,acc_X,acc_Y,acc_Z,temp,tempC,gyr_X,gyr_Y,gyr_Z
0,2163,10,-419,-4849,22,-90,-38,35
1,2151,-3,-449,-4872,22,-85,-37,33
2,2166,-6,-434,-4872,22,-93,-41,31
3,2171,5,-420,-4873,22,-86,-37,34
4,2153,4,-415,-4874,22,-85,-36,36
5,2147,-1,-429,-4872,22,-88,-38,35
6,2152,0,-431,-4869,22,-89,-37,29
7,2157,2,-420,-4872,22,-87,-42,30
8,2156,2,-437,-4871,22,-86,-34,32
9,2150,6,-418,-4881,22,-88,-40,39
10,2158,0,-406,-4872,22,-85,-38,34
11,2163,4,-421,-4875,22,-87,-35,37
12,2160,8,-423,-4865,22,-86,-39,37
13,2163,4,-424,-4863,22,-84,-42,37
14,2160,3,-433,-4870,22,-87,-38,34
15,2155,-9,-439,-4863,22,-86,-43,37
16,2145,5,-414,-4878,22,-84,-37,33
17,2156,5,-442,-4862,22,-86,-38,34
18,2164,-3,-429,-4877,22,-85,-39,38
19,2155,6,-428,-4852,22,-86,-39,36
20,2160,10,-438,-4864,22,-87,-36,33
21,2150,9,-410,-4877,22,-90,-38,34
22,2165,0,-436,-4874,22,-88,-40,30
23,2161,-8,-422,-4858,22,-86,-38,34
24,2147,9,-430,-4854,22,-84,-31,35
25,2167,-8,-429,-4866,22,-86,-37,35
26,2163,-3,-413,-4869,22,-87,-36,33
27,2149,3,-423,-4867,22,-90,-38,36
28,2153,0,-415,-4867,22,-86,-42,34
29,2164,-2,-437,-4870,22,-87,-42,33
30,2164,0,-422,-4850,22,-84,-37,37
31,2155,0,-419,-4865,22,-87,-32,35
32,2163,-3,-416,-4855,22,-88,-40,35
33,2158,0,-436,-4859,22,-86,-44,31
34,2162,2,-427,-4853,22,-87,-34,38
35,2163,-4,-437,-4850,22,-87,-38,34
36,2166,-16,-414,-4871,22,-86,-34,32
37,2157,7,-428,-4850,22,-90,-43,34
38,2161,0,-427,-4856,22,-89,-37,36
39,2157,-4,-416,-4876,22,-92,-37,34
40,2158,0,-413,-4855,22,-86,-36,36
41,2164,9,-434,-4869,22,-87,-34,35
42,2157,5,-426,-4858,22,-88,-34,36
43,2163,0,-426,-4855,22,-84,-39,35
44,2162,-7,-402,-4866,22,-84,-38,37
45,2154,9,-450,-4860,22,-87,-40,31
46,2155,3,-440,-4866,22,-89,-35,39
47,2166,-1,-418,-4865,22,-82,-41,33
48,2162,3,-420,-4861,22,-91,-34,34
49,2164,-6,-420,-4857,22,-85,-38,34
50,2153,1,-431,-4853,22,-85,-41,37
51,2159,5,-422,-4857,22,-85,-38,35
52,2165,2,-429,-4866,22,-90,-40,34
53,2158,1,-435,-4861,22,-84,-43,36
54,2152,5,-423,-4863,22,-86,-37,32
55,2160,4,-422,-4849,22,-88,-37,33
56,2158,12,-434,-4842,22,-87,-37,34
57,2164,4,-411,-4862,22,-87,-41,32
58,2159,-1,-422,-4856,22,-86,-40,36
59,2167,6,-432,-4863,22,-86,-41,34
60,2160,-1,-435,-4835,22,-91,-38,32
61,2166,1,-419,-4862,22,-85,-39,36
62,2151,5,-416,-4843,22,-87,-34,33
63,2158,12,-421,-4848,22,-84,-39,33
64,2163,9,-427,-4849,22,-87,-33,36
65,2165,6,-424,-4873,22,-87,-35,38
66,2157,-4,-433,-4860,22,-90,-37,31
67,2152,-9,-430,-4836,22,-87,-35,32
68,2157,12,-431,-4850,22,-87,-38,36
69,2155,7,-420,-4861,22,-88,-41,33
70,2159,2,-427,-4860,22,-82,-38,37
71,2161,0,-413,-4851,22,-85,-35,34
72,2170,1,-429,-4850,22,-86,-35,38
73,2161,-2,-428,-4845,22,-87,-37,31
74,2157,7,-422,-4858,22,-87,-39,33
75,2161,-3,-417,-4849,22,-89,-38,32
76,2155,5,-418,-4844,22,-87,-37,36
77,2157,0,-424,-4826,22,-85,-37,35
78,2157,-5,-418,-4847,22,-83,-38,35
79,2161,1,-428,-4854,22,-87,-35,36
80,2154,5,-430,-4838,22,-87,-37,30
81,2163,2,-422,-4838,22,-89,-38,36
82,2155,3,-425,-4843,22,-84,-39,32
83,2158,3,-421,-4840,22,-91,-39,32
84,2158,-2,-422,-4841,22,-88,-38,32
85,2157,7,-425,-4851,22,-83,-36,29
86,2169,11,-437,-4846,22,-85,-34,36
87,2154,4,-436,-4854,22,-84,-31,35
88,2166,7,-420,-4848,22,-87,-39,33
89,2157,-2,-420,-4842,22,-87,-38,36
90,2154,3,-416,-4854,22,-85,-33,32
91,2153,4,-409,-4835,22,-85,-39,33
92,2164,1,-424,-4840,22,-85,-34,34
93,2167,1,-424,-4851,22,-85,-38,35
94,2171,-8,-439,-4835,22,-88,-36,28
95,2162,0,-433,-4833,22,-81,-37,32
96,2160,-12,-424,-4839,22,-88,-40,33
97,2157,17,-402,-4833,22,-85,-38,33
98,2157,4,-437,-4836,22,-86,-39,34
99,2158,2,-435,-4853,22,-88,-39,34
100,2164,7,-428,-4839,22,-83,-38,36
101,2149,4,-426,-4825,22,-86,-38,34
102,2166,-1,-418,-4841,22,-84,-38,36
103,2156,3,-418,-4844,22,-89,-39,36
104,2161,2,-421,-4820,22,-82,-41,39
105,2157,9,-430,-4815,22,-83,-38,35
106,2158,1,-426,-4844,22,-86,-43,36
107,2154,0,-427,-4837,22,-88,-36,37
108,2162,-1,-439,-4839,22,-87,-40,35
109,2166,2,-426,-4848,22,-82,-40,32
110,2159,5,-424,-4827,22,-84,-38,35
111,2153,-1,-418,-4841,22,-89,-40,35
112,2161,-12,-427,-4855,22,-89,-36,33
113,2154,-3,-419,-4844,22,-87,-36,30
114,2154,0,-425,-4843,22,-87,-34,35
115,2155,2,-438,-4864,22,-87,-38,32
116,2161,-7,-422,-4834,22,-84,-43,39
117,2156,3,-431,-4847,22,-83,-36,40
118,2162,-11,-416,-4841,22,-87,-34,34
119,2153,11,-415,-4855,22,-85,-38,34
120,2147,8,-429,-4823,22,-87,-38,38
121,2149,-1,-405,-4850,22,-82,-39,38
122,2156,-3,-426,-4836,22,-92,-37,33
123,2154,4,-415,-4846,22,-87,-39,39
124,2164,6,-420,-4829,22,-85,-40,32
125,2158,3,-414,-4839,22,-87,-41,31
126,2160,1,-416,-4830,22,-88,-37,34
127,2164,6,-414,-4834,22,-86,-37,33
128,2162,5,-421,-4842,22,-89,-35,34
129,2170,2,-424,-4843,22,-85,-36,32
130,2160,8,-422,-4845,22,-87,-37,33
131,2152,-5,-429,-4835,22,-87,-38,33
132,2154,4,-427,-4826,22,-86,-39,36
133,2160,-6,-431,-4844,22,-88,-41,34
134,2160,0,-429,-4835,22,-86,-39,34
135,2159,9,-424,-4843,22,-85,-36,31
136,2169,-2,-414,-4832,22,-87,-40,33
137,2162,-5,-416,-4834,22,-83,-36,33
138,2164,0,-415,-4837,22,-84,-35,38
139,2155,-1,-423,-4845,22,-87,-36,32
140,2167,13,-421,-4837,22,-89,-40,30
141,2164,-1,-422,-4828,22,-85,-38,38
142,2154,-5,-422,-4833,22,-89,-30,34
143,2157,0,-432,-4848,22,-88,-39,33
144,2159,-2,-437,-4819,22,-90,-37,37
145,2153,-1,-425,-4838,22,-86,-39,33
146,2161,-3,-422,-4851,22,-87,-40,36
147,2160,-10,-416,-4841,22,-87,-45,32
148,2155,-4,-416,-4825,22,-83,-38,33
149,2162,10,-417,-4827,22,-89,-39,34
150,2161,11,-415,-4830,22,-84,-38,34
151,2158,-7,-421,-4831,22,-89,-34,35
152,2161,-14,-425,-4824,22,-83,-39,35
153,2174,-1,-429,-4818,22,-88,-39,35
154,2153,4,-434,-4815,22,-86,-39,32
155,2166,7,-424,-4823,22,-85,-39,34
156,2159,12,-424,-4842,22,-89,-34,34
157,2161,2,-429,-4841,22,-89,-40,34
158,2159,-6,-422,-4846,22,-85,-42,36
159,2161,2,-429,-4825,22,-88,-36,36
160,2167,-10,-428,-4830,22,-84,-38,34
161,2154,0,-424,-4808,22,-89,-35,37
162,2163,2,-426,-4827,22,-85,-35,35
163,2163,5,-429,-4833,22,-87,-37,37
164,2149,1,-417,-4822,22,-92,-40,38
165,2164,1,-417,-4821,22,-87,-41,35
166,2163,-6,-423,-4825,22,-84,-38,36
167,2154,2,-414,-4837,22,-83,-36,33
168,2163,4,-448,-4838,22,-86,-42,34
169,2154,10,-432,-4824,22,-86,-46,31
170,2157,-4,-425,-4836,22,-86,-36,31
171,2162,6,-415,-4841,22,-84,-39,37
172,2154,7,-424,-4825,22,-84,-40,33
173,2158,1,-432,-4833,22,-85,-35,37
174,2171,4,-437,-4841,22,-86,-42,34
175,2153,5,-429,-4818,22,-92,-39,35
176,2162,10,-412,-4826,22,-83,-38,32
177,2158,-2,-419,-4823,22,-87,-39,32
178,2156,5,-429,-4828,22,-86,-37,35
179,2160,-5,-424,-4824,22,-86,-38,36
180,2164,3,-433,-4849,22,-86,-40,36
181,2159,-1,-428,-4832,22,-86,-37,29
182,2157,-9,-421,-4825,22,-90,-39,32
183,2169,-11,-422,-4839,22,-85,-39,36
184,2160,10,-422,-4823,22,-85,-40,38
185,2167,-13,-436,-4835,22,-88,-37,38
186,2171,-7,-428,-4844,22,-87,-36,34
187,2155,3,-427,-4824,22,-87,-37,36
188,2156,-2,-415,-4839,22,-84,-42,34
189,2157,-4,-419,-4827,22,-88,-38,32
190,2167,-1,-412,-4830,22,-86,-38,37
191,2150,10,-426,-4825,22,-86,-38,32
192,2148,4,-438,-4821,22,-86,-39,30
193,2158,-6,-423,-4832,22,-85,-41,33
194,2155,7,-430,-4823,22,-90,-42,36
195,2151,2,-418,-4820,22,-87,-37,34
196,2156,7,-426,-4838,22,-84,-36,35
197,2156,1,-415,-4826,22,-85,-34,29
198,2155,3,-411,-4825,22,-84,-37,33
199,2156,-5,-419,-4827,22,-87,-39,35
200,2156,2,-421,-4827,22,-87,-35,36
201,2167,-3,-422,-4821,22,-86,-35,38
202,2164,-8,-424,-4829,22,-89,-36,36
203,2161,6,-434,-4831,22,-88,-37,30
204,2156,0,-419,-4810,22,-84,-37,30
205,2160,7,-416,-4836,22,-86,-37,33
206,2162,1,-431,-4820,22,-85,-35,35
207,2156,6,-427,-4833,22,-86,-32,34
208,2164,2,-423,-4828,22,-92,-38,32
209,2167,-4,-415,-4833,22,-83,-37,37
210,2171,5,-430,-4831,22,-87,-41,36
211,2156,-3,-416,-4819,22,-84,-38,37
212,2164,-12,-421,-4826,22,-88,-39,36
213,2162,12,-408,-4811,22,-86,-41,33
214,2163,4,-431,-4830,22,-84,-32,37
215,2166,-6,-419,-4809,22,-86,-42,38
216,2162,6,-426,-4821,22,-84,-41,33
217,2161,-1,-427,-4824,22,-85,-33,42
218,2162,-1,-427,-4825,22,-85,-37,34
219,2162,-6,-433,-4834,22,-84,-38,37
220,2159,0,-429,-4825,22,-87,-35,36
221,2159,-4,-420,-4830,22,-83,-36,32
222,2155,0,-423,-4824,22,-87,-39,30
223,2162,0,-430,-4811,22,-86,-35,32
224,2161,6,-426,-4819,22,-88,-40,33
225,2163,-5,-436,-4806,22,-85,-35,38
226,2166,1,-434,-4818,22,-88,-36,32
227,2149,3,-430,-4810,22,-82,-39,35
228,2151,0,-423,-4821,22,-85,-38,37
229,2157,2,-423,-4818,22,-83,-37,37
230,2157,-6,-422,-4814,22,-88,-35,28
231,2158,2,-428,-4826,22,-81,-35,33
232,2158,1,-439,-4811,22,-85,-40,33
233,2149,3,-423,-4810,22,-84,-36,34
234,2163,10,-426,-4826,22,-88,-42,34
235,2171,9,-424,-4809,22,-87,-36,33
236,2162,3,-426,-4818,22,-84,-40,33
237,2162,3,-445,-4831,22,-86,-36,34
238,2158,5,-418,-4825,22,-87,-38,35
239,2165,-5,-417,-4817,22,-89,-37,32
240,2166,2,-433,-4822,22,-85,-38,35
241,2157,-8,-436,-4805,22,-85,-42,34
242,2154,-3,-416,-4822,22,-90,-37,35
243,2157,0,-428,-4813,22,-87,-40,34
244,2161,11,-428,-4832,22,-88,-37,36
245,2159,2,-411,-4811,22,-87,-41,36
246,2159,2,-420,-4824,22,-90,-39,36
247,2165,-4,-423,-4828,22,-87,-41,32
248,2161,4,-440,-4828,22,-90,-40,37
249,2161,-1,-425,-4814,22,-91,-36,32
250,2161,-3,-433,-4844,22,-86,-38,36
251,2162,-3,-416,-4834,22,-85,-37,34
252,2167,-1,-419,-4826,22,-92,-40,33
253,2165,-4,-431,-4825,22,-82,-37,32
254,2160,2,-425,-4825,22,-89,-38,35
255,2156,-6,-424,-4823,22,-85,-41,35
256,2156,-4,-426,-4816,22,-85,-40,34
257,2162,13,-439,-4834,22,-84,-34,33
258,2153,0,-422,-4824,22,-89,-35,35
259,2163,9,-420,-4819,22,-89,-39,38
260,2165,5,-418,-4818,22,-86,-41,39
261,2164,0,-423,-4832,22,-87,-37,33
262,2153,-2,-434,-4813,22,-85,-45,34
263,2164,6,-417,-4812,22,-82,-38,36
264,2155,3,-424,-4817,22,-85,-39,38
265,2158,10,-425,-4815,22,-79,-39,33
266,2159,4,-427,-4824,22,-90,-41,33
267,2160,3,-419,-4819,22,-85,-39,37
268,2158,3,-426,-4810,22,-85,-36,32
269,2164,-4,-422,-4820,22,-87,-36,39
270,2160,2,-412,-4829,22,-86,-36,30
271,2160,-1,-424,-4823,22,-82,-39,37
272,2160,-10,-426,-4822,22,-86,-37,32
273,2163,1,-436,-4810,22,-85,-36,32
274,2158,3,-425,-4816,22,-89,-42,33
275,2155,-5,-418,-4808,22,-84,-38,39
276,2156,1,-438,-4807,22,-88,-38,30
277,2163,1,-426,-4816,22,-86,-40,35
278,2157,0,-414,-4799,22,-86,-36,34
279,2162,1,-442,-4813,22,-84,-38,30
280,2159,-6,-424,-4815,22,-87,-43,36
281,2172,2,-417,-4820,22,-84,-41,34
282,2160,-1,-436,-4817,22,-90,-35,33
283,2164,-12,-424,-4809,22,-87,-44,33
284,2156,-1,-415,-4807,22,-87,-33,36
285,2168,4,-424,-4824,22,-88,-39,32
286,2153,5,-424,-4817,22,-86,-38,39
287,2172,-6,-416,-4825,22,-82,-38,34
288,2153,1,-413,-4831,22,-91,-35,34
289,2161,7,-416,-4808,22,-84,-41,33
290,2165,6,-415,-4808,22,-84,-42,34
291,2152,2,-432,-4822,22,-86,-35,35
292,2162,2,-421,-4824,22,-84,-38,37
293,2161,0,-436,-4816,22,-84,-40,37
294,2154,1,-419,-4818,22,-86,-37,34
295,2167,8,-419,-4806,22,-83,-41,31
296,2163,0,-426,-4796,22,-82,-39,28
297,2149,7,-431,-4798,22,-86,-39,36
298,2173,4,-428,-4817,22,-86,-35,34
299,2159,8,-420,-4822,22,-88,-37,38
300,2151,2,-424,-4803,22,-90,-33,35
301,2152,6,-424,-4809,22,-86,-42,31
302,2153,8,-421,-4818,22,-85,-45,30
303,2156,5,-416,-4824,22,-87,-36,35
304,2161,0,-419,-4813,22,-84,-38,35
305,2158,5,-430,-4795,22,-89,-36,33
306,2165,3,-442,-4822,22,-85,-42,36
307,2162,0,-414,-4793,22,-85,-42,34
308,2164,0,-417,-4820,22,-88,-31,31
309,2172,8,-433,-4817,22,-84,-38,37
310,2165,1,-427,-4813,22,-90,-41,33
311,2163,-3,-427,-4812,22,-85,-39,35
312,2160,4,-410,-4797,22,-88,-41,31
313,2153,-5,-432,-4816,22,-83,-35,33
314,2152,-3,-425,-4807,22,-90,-40,34
315,2162,5,-430,-4807,22,-87,-36,38
316,2153,-1,-418,-4823,22,-91,-40,32
317,2155,-8,-415,-4818,22,-88,-39,38
318,2166,4,-419,-4815,22,-83,-36,34
319,2151,6,-428,-4804,22,-84,-40,32
320,2166,-8,-434,-4826,22,-84,-39,35
321,2159,4,-420,-4823,22,-80,-38,35
322,2167,1,-427,-4824,22,-84,-37,34
323,2163,-6,-411,-4802,22,-87,-39,34
324,2150,2,-429,-4813,22,-87,-38,38
325,2161,4,-425,-4805,22,-85,-41,33
326,2167,1,-427,-4805,22,-88,-42,29
327,2150,3,-432,-4815,22,-86,-37,36
328,2157,4,-424,-4794,22,-87,-37,35
329,2155,2,-410,-4805,22,-86,-37,38
330,2155,-3,-418,-4821,22,-87,-35,35
331,2167,-6,-420,-4796,22,-84,-36,38
332,2157,-10,-418,-4802,22,-86,-39,36
333,2152,1,-431,-4809,22,-91,-37,35
334,2171,-7,-429,-4799,22,-87,-38,33
335,2158,4,-424,-4813,22,-86,-40,35
336,2160,1,-431,-4805,22,-88,-36,32
337,2158,7,-436,-4801,22,-87,-35,36
338,2163,7,-421,-4801,22,-87,-38,34
339,2164,6,-422,-4805,22,-90,-35,32
340,2159,-3,-421,-4804,22,-88,-37,40
341,2155,-4,-421,-4827,22,-92,-36,34
342,2166,7,-425,-4802,22,-85,-39,32
343,2161,-1,-428,-4811,22,-90,-36,37
344,2155,6,-422,-4813,22,-86,-37,35
345,2160,1,-430,-4802,22,-83,-37,31
346,2152,-6,-419,-4809,22,-82,-38,35
347,2152,3,-429,-4801,22,-89,-38,32
348,2166,-13,-409,-4803,22,-89,-35,32
349,2161,0,-414,-4809,22,-87,-39,35
350,2171,0,-413,-4802,22,-84,-36,33
351,2153,3,-426,-4789,22,-89,-38,32
352,2159,2,-443,-4809,22,-85,-42,35
353,2154,4,-430,-4793,22,-84,-36,35
354,2167,11,-433,-4803,22,-86,-37,37
355,2163,-2,-426,-4813,22,-88,-40,38
356,2150,1,-434,-4809,22,-81,-37,28
357,2169,0,-431,-4799,22,-87,-38,31
358,2158,4,-439,-4806,22,-89,-35,34
359,2157,0,-432,-4802,22,-84,-34,34
360,2153,1,-414,-4809,22,-87,-38,34
361,2162,3,-434,-4803,22,-89,-39,33
362,2155,7,-415,-4824,22,-89,-35,37
363,2153,-2,-420,-4804,22,-85,-34,34
364,2160,-4,-431,-4805,22,-87,-43,36
365,2168,1,-419,-4806,22,-84,-40,29
366,2160,3,-433,-4811,22,-86,-38,33
367,2151,2,-428,-4818,22,-87,-36,36
368,2166,6,-420,-4800,22,-86,-38,38
369,2156,4,-437,-4804,22,-88,-41,32
370,2161,-2,-420,-4804,22,-86,-40,38
371,2153,2,-419,-4803,22,-90,-36,30
372,2160,-1,-433,-4792,22,-86,-38,34
373,2157,6,-425,-4803,22,-85,-39,31
374,2167,9,-414,-4800,22,-87,-39,31
375,2158,-2,-433,-4797,22,-91,-38,32
376,2165,5,-421,-4795,22,-85,-34,36
377,2166,5,-417,-4804,22,-87,-37,33
378,2162,5,-426,-4807,22,-87,-36,36
379,2160,7,-434,-4802,22,-89,-35,32
380,2168,5,-421,-4788,22,-90,-34,33
381,2155,-1,-412,-4811,22,-87,-36,35
382,2155,-4,-429,-4815,22,-87,-38,30
383,2154,4,-426,-4802,22,-86,-39,34
384,2165,7,-421,-4816,22,-91,-37,32
385,2163,8,-428,-4809,22,-91,-35,36
386,2153,3,-422,-4799,22,-86,-40,35
387,2157,4,-412,-4800,22,-90,-34,33
388,2164,17,-413,-4807,22,-91,-34,38
389,2163,2,-423,-4807,22,-88,-35,34
390,2148,0,-420,-4811,22,-90,-41,34
391,2153,1,-416,-4798,22,-87,-39,34
392,2157,-3,-423,-4812,22,-86,-41,35
393,2147,3,-424,-4800,22,-87,-38,35
394,2159,4,-420,-4807,22,-90,-38,33
395,2168,1,-431,-4807,22,-95,-41,33
396,2156,-6,-440,-4824,22,-88,-42,35
397,2166,10,-425,-4795,22,-88,-37,36
398,2146,0,-424,-4805,22,-86,-39,32
399,2164,1,-431,-4811,22,-86,-37,38
400,2153,7,-411,-4814,22,-87,-35,32
401,2151,-4,-428,-4801,22,-85,-41,37
402,2168,12,-423,-4810,22,-87,-41,30
403,2152,-5,-436,-4799,22,-87,-36,33
404,2159,-6,-401,-4800,22,-85,-41,33
405,2151,16,-419,-4813,22,-88,-36,33
406,2155,-14,-440,-4816,22,-86,-40,34
407,2153,4,-440,-4801,22,-88,-40,30
408,2160,5,-410,-4780,22,-85,-39,37
409,2161,13,-419,-4799,22,-91,-38,35
410,2162,1,-429,-4800,22,-87,-38,35
411,2167,3,-426,-4808,22,-82,-41,29
412,2163,3,-435,-4814,22,-82,-39,34
413,2151,2,-432,-4823,22,-86,-39,34
414,2166,2,-436,-4804,22,-86,-37,30
415,2164,4,-428,-4803,22,-87,-38,34
416,2168,1,-434,-4818,22,-87,-42,35
417,2155,6,-403,-4800,22,-87,-35,33
418,2162,3,-424,-4804,22,-87,-41,34
419,2163,-11,-426,-4797,22,-85,-40,36
420,2159,-7,-419,-4787,22,-86,-39,31
421,2153,-4,-425,-4798,22,-86,-38,38
422,2153,9,-410,-4802,22,-88,-44,35
423,2159,7,-419,-4790,22,-81,-36,33
424,2156,16,-411,-4805,22,-90,-38,36
425,2164,2,-441,-4794,22,-89,-39,37
426,2155,2,-426,-4811,22,-86,-38,38
427,2164,2,-422,-4810,22,-87,-40,35
428,2160,1,-424,-4806,22,-89,-39,38
429,2158,1,-424,-4801,22,-86,-35,36
430,2166,13,-422,-4798,22,-86,-41,33
431,2162,6,-429,-4802,22,-85,-42,34
432,2159,8,-431,-4792,22,-88,-38,37
433,2150,-2,-429,-4802,22,-88,-36,36
434,2146,-7,-443,-4801,22,-89,-36,31
435,2157,-1,-423,-4803,22,-89,-35,38
436,2166,2,-422,-4794,22,-87,-40,34
437,2155,0,-418,-4794,22,-89,-40,35
438,2150,-6,-414,-4808,22,-81,-39,35
439,2156,13,-438,-4804,22,-87,-32,35
440,2157,2,-440,-4794,22,-87,-38,34
441,2160,-7,-421,-4818,22,-84,-38,35
442,2165,6,-415,-4807,22,-86,-32,34
443,2155,8,-431,-4803,22,-87,-37,36
444,2161,3,-432,-4791,22,-87,-39,38
445,2165,-6,-421,-4812,22,-88,-40,37
446,2159,0,-427,-4793,22,-85,-37,34
447,2152,-2,-409,-4806,22,-88,-39,38
448,2158,15,-418,-4792,22,-89,-35,35
449,2162,-3,-424,-4811,22,-85,-35,32
450,2168,5,-420,-4800,22,-86,-40,34
451,2160,-6,-432,-4807,22,-88,-41,31
452,2162,-2,-426,-4782,22,-86,-33,35
453,2159,-2,-430,-4800,22,-84,-38,36
454,2153,8,-431,-4798,22,-87,-35,35
455,2165,-1,-431,-4795,22,-88,-38,36
456,2158,12,-414,-4798,22,-89,-37,32
457,2159,2,-423,-4800,22,-87,-37,38
458,2154,10,-430,-4800,22,-88,-37,36
459,2153,6,-420,-4802,22,-86,-40,33
460,2159,5,-430,-4797,22,-89,-38,34
461,2152,5,-417,-4807,22,-87,-39,33
462,2152,3,-432,-4797,22,-86,-48,38
463,2172,1,-428,-4800,22,-84,-38,32
464,2162,-4,-415,-4789,22,-86,-38,37
465,2160,1,-427,-4799,22,-87,-40,32
466,2154,1,-410,-4802,22,-88,-44,33
467,2152,-5,-423,-4794,22,-86,-35,33
468,2154,-6,-422,-4792,22,-88,-39,33
469,2151,13,-413,-4807,22,-86,-36,34
470,2153,2,-421,-4800,22,-89,-35,36
471,2156,9,-431,-4810,22,-91,-39,36
472,2153,-2,-429,-4795,22,-86,-36,34
473,2155,-4,-430,-4786,22,-84,-36,34
474,2159,8,-426,-4788,22,-86,-37,34
475,2160,-4,-415,-4804,22,-84,-41,32
476,2164,22,-431,-4805,22,-89,-40,33
477,2154,-16,-420,-4811,22,-81,-37,34
478,2147,-3,-398,-4812,22,-85,-31,33
479,2162,-4,-422,-4809,22,-88,-39,34
480,2163,-1,-425,-4801,22,-86,-38,37
481,2159,6,-412,-4797,22,-91,-37,36
482,2168,0,-433,-4791,22,-85,-38,35
483,2155,4,-435,-4799,22,-84,-42,33
484,2169,2,-423,-4780,22,-86,-43,37
485,2169,0,-434,-4797,22,-86,-35,35
486,2172,0,-438,-4792,22,-85,-36,35
487,2169,-4,-434,-4809,22,-89,-43,34
488,2157,4,-443,-4795,22,-87,-37,36
489,2154,-5,-421,-4804,22,-91,-39,29
490,2159,8,-438,-4792,22,-84,-36,34
491,2149,8,-427,-4808,22,-82,-38,34
492,2165,-2,-431,-4782,22,-81,-37,34
493,2166,-12,-438,-4786,22,-84,-40,33
494,2156,7,-441,-4806,22,-88,-38,33
495,2153,9,-424,-4809,22,-86,-39,34
496,2161,-3,-435,-4789,22,-87,-36,34
497,2157,5,-429,-4816,22,-82,-38,35
498,2161,-1,-427,-4792,22,-85,-41,37
499,2159,-3,-434,-4799,22,-90,-41,36
500,2163,8,-428,-4798,22,-86,-35,31
501,2164,-7,-423,-4800,22,-86,-40,34
502,2161,7,-449,-4806,22,-88,-41,34
503,2150,-4,-422,-4796,22,-90,-36,35
504,2156,4,-434,-4802,22,-85,-38,32
505,2158,-5,-426,-4808,22,-92,-34,33
506,2162,-6,-431,-4789,22,-82,-36,35
507,2163,-1,-409,-4800,22,-85,-39,38
508,2154,4,-408,-4789,22,-91,-40,37
509,2160,-6,-413,-4798,22,-87,-36,32
510,2156,3,-412,-4784,22,-89,-36,39
511,2162,-1,-426,-4801,22,-89,-37,37
512,2168,-6,-421,-4798,22,-89,-35,37
513,2156,-3,-430,-4798,22,-89,-38,34
514,2154,5,-415,-4791,22,-88,-41,34
515,2159,-4,-426,-4812,22,-87,-34,33
516,2156,2,-412,-4788,22,-89,-39,34
517,2167,-1,-418,-4787,22,-85,-40,33
518,2163,-3,-418,-4790,22,-91,-36,34
519,2152,3,-430,-4799,22,-90,-36,34
520,2164,1,-408,-4786,22,-86,-37,34
521,2155,-2,-435,-4796,22,-86,-35,31
522,2160,4,-428,-4790,22,-86,-36,32
523,2159,-2,-414,-4798,22,-88,-38,33
524,2157,-5,-434,-4808,22,-87,-39,34
525,2155,16,-427,-4806,22,-86,-39,33
526,2164,3,-412,-4798,22,-85,-38,32
527,2159,-6,-420,-4788,22,-84,-36,34
528,2160,-8,-431,-4800,22,-89,-43,32
529,2152,-2,-433,-4800,22,-88,-41,34
530,2160,-1,-421,-4798,22,-87,-40,33
531,2162,-3,-438,-4826,22,-84,-39,34
532,2164,11,-420,-4789,22,-87,-42,35
533,2164,-6,-429,-4797,22,-93,-39,37
534,2167,-3,-433,-4810,22,-83,-40,35
535,2162,0,-434,-4800,22,-84,-40,36
536,2170,-2,-428,-4787,22,-85,-38,36
537,2155,-5,-423,-4794,22,-83,-35,32
538,2156,-4,-427,-4800,22,-89,-35,34
539,2154,3,-426,-4791,22,-87,-36,33
540,2162,-6,-420,-4795,22,-88,-38,32
541,2154,0,-428,-4787,22,-88,-39,37
542,2165,2,-429,-4787,22,-87,-40,37
543,2161,-13,-425,-4792,22,-86,-37,31
544,2158,-3,-417,-4783,22,-83,-38,33
545,2156,0,-434,-4795,22,-86,-43,34
546,2155,-3,-425,-4783,22,-89,-36,37
547,2155,-9,-419,-4803,22,-85,-41,32
548,2170,-1,-416,-4789,22,-86,-34,29
549,2164,7,-423,-4792,22,-90,-38,34
550,2157,12,-438,-4798,22,-83,-39,32
551,2161,3,-420,-4793,22,-89,-37,37
552,2156,13,-425,-4790,22,-85,-38,34
553,2160,4,-413,-4791,22,-89,-36,34
554,2167,2,-421,-4791,22,-87,-40,36
555,2152,-5,-426,-4790,22,-83,-33,32
556,2158,-3,-425,-4799,22,-88,-38,32
557,2161,5,-429,-4788,22,-88,-34,31
558,2161,6,-429,-4795,22,-87,-35,36
559,2158,2,-432,-4800,22,-85,-38,36
560,2164,3,-423,-4797,22,-86,-40,34
561,2159,1,-431,-4806,22,-85,-38,37
562,2161,0,-431,-4808,22,-89,-43,34
563,2156,-4,-417,-4788,22,-88,-38,37
564,2156,4,-429,-4781,22,-83,-38,36
565,2161,5,-437,-4804,22,-88,-42,30
566,2157,-8,-428,-4799,22,-86,-43,34
567,2159,5,-423,-4797,22,-85,-41,33
568,2162,-5,-433,-4780,22,-86,-40,33
569,2158,-1,-425,-4793,22,-86,-40,33
570,2162,4,-423,-4807,22,-86,-40,32
571,2155,0,-431,-4802,22,-88,-38,35
572,2150,-6,-427,-4789,22,-85,-41,35
573,2159,2,-409,-4801,22,-91,-38,38
574,2156,-1,-426,-4799,22,-83,-42,30
575,2171,3,-429,-4794,22,-86,-40,35
576,2157,-3,-428,-4798,22,-84,-39,32
577,2162,0,-436,-4795,22,-90,-36,36
578,2164,5,-418,-4804,22,-85,-45,31
579,2156,-4,-411,-4793,22,-86,-39,33
580,2154,-5,-424,-4796,22,-86,-35,33
581,2159,-4,-426,-4790,22,-87,-34,34
582,2160,-3,-411,-4786,22,-86,-43,34
583,2155,-2,-428,-4791,22,-86,-37,34
584,2163,-5,-434,-4791,22,-85,-43,38
585,2161,-1,-415,-4801,22,-87,-37,33
586,2165,-1,-413,-4790,22,-86,-39,33
587,2160,1,-423,-4798,22,-90,-40,38
588,2164,-10,-425,-4767,22,-88,-35,35
589,2164,6,-418,-4785,22,-85,-32,33
590,2159,-4,-430,-4787,22,-87,-37,34
591,2166,8,-432,-4809,22,-91,-37,33
592,2171,-8,-432,-4788,22,-86,-40,35
593,2162,-1,-422,-4785,22,-90,-38,30
594,2159,11,-436,-4801,22,-88,-37,33
595,2162,2,-418,-4806,22,-83,-38,36
596,2158,1,-421,-4804,22,-84,-40,30
597,2154,-4,-423,-4799,22,-89,-37,34
598,2156,-1,-414,-4791,22,-89,-37,33
599,2153,4,-418,-4799,22,-86,-37,39
600,2157,6,-422,-4806,22,-87,-39,36
601,2157,7,-430,-4808,22,-87,-39,34
602,2158,11,-408,-4801,22,-87,-38,33
603,2165,2,-431,-4785,22,-87,-41,34
604,2157,7,-425,-4793,22,-84,-41,36
605,2164,8,-427,-4783,22,-86,-34,34
606,2162,14,-430,-4799,22,-82,-36,37
607,2157,8,-422,-4793,22,-86,-39,36
608,2155,-3,-433,-4792,22,-87,-36,36
609,2156,-4,-421,-4780,22,-86,-37,38
610,2148,4,-436,-4792,22,-83,-42,39
611,2158,-11,-423,-4787,22,-86,-34,37
612,2152,0,-418,-4782,22,-89,-33,36
613,2161,3,-417,-4809,22,-89,-39,35
614,2163,-3,-417,-4780,22,-87,-39,37
615,2157,2,-415,-4799,22,-84,-42,33
616,2148,1,-432,-4784,22,-84,-37,37
617,2155,-3,-408,-4784,22,-86,-35,35
618,2153,4,-432,-4797,22,-89,-38,34
619,2158,6,-441,-4796,22,-85,-37,34
620,2162,0,-433,-4794,22,-86,-32,37
621,2156,6,-435,-4789,22,-85,-34,35
622,2161,8,-437,-4796,22,-86,-38,31
623,2163,7,-425,-4802,22,-86,-40,37
624,2153,6,-435,-4786,22,-87,-41,32
625,2171,3,-435,-4775,22,-88,-38,37
626,2161,-3,-423,-4785,22,-90,-33,34
627,2172,4,-435,-4785,22,-86,-35,34
628,2151,-2,-428,-4786,22,-84,-36,35
629,2170,-9,-427,-4791,22,-85,-38,32
630,2157,3,-426,-4783,22,-88,-36,39
631,2173,-5,-416,-4797,22,-86,-41,33
632,2149,6,-426,-4792,22,-85,-38,33
633,2163,5,-429,-4794,22,-87,-40,33
634,2154,-8,-423,-4800,22,-88,-40,35
635,2161,2,-425,-4799,22,-84,-32,41
636,2164,1,-423,-4797,22,-85,-40,35
637,2160,7,-417,-4797,22,-86,-37,36
638,2156,3,-424,-4785,22,-87,-39,35
639,2160,7,-428,-4774,22,-83,-38,33
640,2154,2,-417,-4788,22,-88,-39,36
641,2153,3,-424,-4786,22,-87,-35,31
642,2161,3,-422,-4788,22,-87,-33,36
643,2164,0,-427,-4796,22,-86,-41,36
644,2159,-5,-449,-4787,22,-86,-43,38
645,2162,-3,-421,-4784,22,-85,-37,34
646,2158,2,-418,-4792,22,-90,-37,37
647,2154,3,-423,-4777,22,-85,-36,34
648,2150,-2,-419,-4792,22,-83,-37,35
649,2159,-3,-424,-4772,22,-89,-39,34
650,2156,6,-406,-4788,22,-82,-35,35
651,2163,10,-438,-4798,22,-81,-35,35
652,2165,-10,-414,-4784,22,-82,-40,33
653,2168,0,-432,-4794,22,-83,-40,31
654,2155,-5,-437,-4787,22,-86,-39,33
655,2153,13,-435,-4799,22,-86,-36,35
656,2152,2,-420,-4788,22,-84,-35,33
657,2156,-3,-424,-4788,22,-90,-43,36
658,2150,5,-439,-4794,22,-90,-39,33
659,2168,-3,-437,-4778,22,-82,-36,36
660,2166,-9,-413,-4777,22,-88,-40,34
661,2154,-15,-439,-4790,22,-91,-40,34
662,2161,-4,-420,-4768,22,-85,-40,29
663,2153,5,-421,-4790,22,-87,-38,35
664,2154,13,-422,-4788,22,-84,-42,37
665,2149,-6,-430,-4779,22,-82,-44,36
666,2158,3,-425,-4784,22,-85,-39,34
667,2164,-4,-432,-4793,22,-88,-37,37
668,2158,-7,-416,-4806,22,-86,-39,32
669,2163,5,-425,-4802,22,-89,-37,32
670,2162,4,-439,-4782,22,-90,-39,35
671,2153,7,-422,-4801,22,-85,-38,34
672,2160,6,-403,-4783,22,-85,-39,36
673,2161,6,-423,-4785,22,-85,-40,34
674,2163,10,-419,-4781,22,-86,-40,38
675,2158,-5,-433,-4792,22,-82,-33,36
676,2167,1,-428,-4798,22,-88,-39,34
677,2158,0,-430,-4777,22,-86,-38,34
678,2162,2,-424,-4783,22,-89,-35,33
679,2166,-1,-437,-4790,22,-90,-37,34
680,2160,-2,-431,-4779,22,-81,-40,34
681,2157,12,-438,-4797,22,-89,-39,38
682,2157,-4,-429,-4798,22,-87,-36,36
683,2154,3,-429,-4788,22,-88,-40,36
684,2148,0,-430,-4789,22,-84,-37,30
685,2148,8,-421,-4786,22,-85,-40,33
686,2163,-8,-429,-4789,22,-88,-39,37
687,2156,-15,-425,-4775,22,-83,-41,36
688,2167,6,-428,-4789,22,-84,-38,32
689,2147,4,-435,-4794,22,-89,-42,33
690,2160,-1,-438,-4777,22,-87,-39,29
691,2160,1,-425,-4777,22,-86,-38,37
692,2165,8,-417,-4789,22,-88,-40,32
693,2154,-1,-435,-4785,22,-86,-41,34
694,2160,-1,-437,-4801,22,-90,-38,36
695,2160,-2,-432,-4782,22,-83,-36,36
696,2154,6,-433,-4777,22,-90,-36,34
697,2152,-6,-433,-4787,22,-90,-38,34
698,2156,3,-431,-4786,22,-89,-38,32
699,2162,3,-434,-4782,22,-87,-41,35
700,2152,-7,-419,-4781,22,-88,-35,31
701,2153,0,-418,-4797,22,-86,-38,33
702,2169,2,-419,-4781,22,-84,-38,36
703,2159,10,-421,-4793,22,-84,-38,36
704,2157,2,-434,-4797,22,-88,-35,30
705,2162,-2,-423,-4769,22,-90,-40,30
706,2159,7,-414,-4796,22,-84,-39,33
707,2165,0,-432,-4780,22,-90,-34,32
708,2161,0,-406,-4781,22,-82,-42,36
709,2175,3,-428,-4794,22,-86,-37,30
710,2167,8,-427,-4775,22,-83,-40,33
711,2149,11,-408,-4792,22,-85,-41,35
712,2152,-2,-422,-4781,22,-88,-38,33
713,2166,-3,-423,-4791,22,-83,-34,35
714,2160,-5,-432,-4790,22,-90,-39,34
715,2166,-7,-423,-4783,22,-89,-40,36
716,2157,3,-433,-4794,22,-81,-41,34
717,2156,5,-427,-4770,22,-86,-38,38
718,2166,1,-418,-4778,22,-86,-39,35
719,2161,-1,-438,-4802,22,-89,-36,34
720,2149,-3,-425,-4793,22,-85,-41,37
721,2158,1,-423,-4790,22,-87,-36,32
722,2161,6,-421,-4784,22,-88,-40,36
723,2155,-10,-430,-4791,22,-89,-41,31
724,2167,-10,-426,-4797,22,-85,-39,31
725,2153,2,-417,-4797,22,-92,-40,39
726,2167,2,-427,-4782,22,-91,-41,38
727,2158,2,-441,-4798,22,-87,-39,35
728,2162,-10,-427,-4792,22,-88,-36,32
729,2165,-4,-417,-4779,22,-88,-38,35
730,2158,-4,-434,-4791,22,-82,-38,35
731,2159,-6,-426,-4790,22,-86,-37,33
732,2160,-3,-405,-4791,22,-85,-39,28
733,2156,-3,-428,-4791,22,-85,-36,36
734,2154,-9,-417,-4791,22,-87,-40,34
735,2163,2,-432,-4793,22,-84,-40,35
736,2161,3,-411,-4794,22,-91,-36,31
737,2164,-1,-434,-4788,22,-87,-40,33
738,2167,1,-427,-4790,22,-89,-34,35
739,2162,-8,-428,-4801,22,-90,-35,35
740,2164,-1,-440,-4791,22,-89,-41,33
741,2162,2,-418,-4776,22,-84,-36,33
742,2162,12,-417,-4795,22,-88,-44,35
743,2159,-3,-425,-4776,22,-85,-39,35
744,2166,-6,-436,-4805,22,-88,-32,35
745,2162,8,-430,-4779,22,-84,-40,33
746,2156,0,-414,-4777,22,-87,-39,37
747,2150,1,-421,-4776,22,-88,-37,35
748,2162,1,-423,-4782,22,-86,-36,35
749,2156,2,-426,-4796,22,-86,-41,37
750,2163,2,-431,-4783,22,-88,-41,32
751,2163,-10,-425,-4800,22,-86,-39,35
752,2158,2,-443,-4782,22,-82,-36,33
753,2156,-1,-429,-4790,22,-85,-37,35
754,2159,-4,-432,-4782,22,-86,-40,34
755,2160,7,-431,-4792,22,-86,-40,37
756,2159,1,-431,-4785,22,-81,-40,36
757,2168,5,-420,-4783,22,-89,-33,35
758,2157,3,-423,-4778,22,-90,-39,34
759,2152,-5,-425,-4794,22,-90,-39,32
760,2158,9,-439,-4800,22,-88,-38,34
761,2157,4,-436,-4795,22,-94,-38,36
762,2167,1,-430,-4790,22,-88,-38,32
763,2154,1,-427,-4789,22,-83,-43,33
764,2169,2,-428,-4777,22,-89,-37,30
765,2158,2,-427,-4786,22,-85,-36,37
766,2160,6,-418,-4781,22,-86,-36,37
767,2158,6,-418,-4789,22,-90,-36,32
768,2164,-3,-412,-4787,22,-90,-40,33
769,2170,-5,-435,-4794,22,-85,-37,35
770,2158,-1,-429,-4795,22,-88,-42,32
771,2158,7,-435,-4776,22,-89,-38,29
772,2158,6,-428,-4775,22,-88,-35,34
773,2153,0,-419,-4791,22,-84,-42,36
774,2156,-1,-429,-4775,22,-86,-39,33
775,2168,-8,-415,-4777,22,-87,-40,32
776,2170,-4,-436,-4791,22,-83,-38,33
777,2163,-8,-405,-4786,22,-83,-36,36
778,2167,9,-427,-4776,22,-88,-42,33
779,2166,5,-437,-4784,22,-86,-36,36
780,2168,3,-429,-4778,22,-88,-33,34
781,2164,15,-425,-4794,22,-88,-38,37
782,2153,7,-426,-4797,22,-90,-41,37
783,2169,-6,-409,-4785,22,-88,-36,39
784,2162,12,-422,-4777,22,-88,-40,35
785,2158,-11,-427,-4787,22,-89,-38,36
786,2155,4,-413,-4793,22,-88,-36,30
787,2159,6,-433,-4788,22,-85,-39,33
788,2164,2,-419,-4780,22,-92,-41,39
789,2160,5,-413,-4782,22,-84,-37,37
790,2155,0,-414,-4777,22,-86,-36,38
791,2163,-5,-414,-4789,22,-93,-40,30
792,2155,9,-409,-4785,22,-85,-35,33
793,2158,11,-399,-4804,22,-89,-36,32
794,2158,8,-428,-4791,22,-83,-36,34
795,2159,5,-420,-4780,22,-85,-37,35
796,2156,-1,-421,-4778,22,-90,-39,32
797,2163,-4,-432,-4781,22,-89,-38,34
798,2162,7,-432,-4790,22,-85,-33,36
799,2156,2,-429,-4775,22,-86,-41,31
800,2162,-9,-402,-4785,22,-87,-40,34
801,2154,6,-422,-4793,22,-86,-39,34
802,2169,6,-427,-4785,22,-88,-40,33
803,2156,-6,-421,-4797,22,-86,-39,31
804,2163,4,-416,-4786,22,-85,-36,37
805,2160,3,-424,-4785,22,-86,-39,32
806,2167,14,-424,-4790,22,-86,-37,37
807,2161,-1,-414,-4789,22,-82,-38,35
808,2154,0,-424,-4795,22,-91,-38,35
809,2152,3,-443,-4791,22,-88,-35,33
810,2173,10,-439,-4767,22,-86,-36,39
811,2150,-1,-417,-4786,22,-88,-39,31
812,2169,9,-418,-4778,22,-83,-33,33
813,2164,7,-444,-4775,22,-88,-40,37
814,2152,4,-431,-4793,22,-87,-33,34
815,2159,-3,-422,-4783,22,-87,-35,38
816,2160,-3,-423,-4781,22,-86,-35,33
817,2151,0,-427,-4782,22,-85,-36,32
818,2153,2,-426,-4781,22,-86,-37,36
819,2157,0,-418,-4789,22,-89,-38,34
820,2156,-1,-426,-4789,22,-90,-38,35
821,2159,8,-423,-4785,22,-86,-31,36
822,2154,15,-439,-4793,22,-88,-44,34
823,2161,-2,-438,-4779,22,-86,-37,33
824,2158,13,-429,-4787,22,-84,-33,33
825,2166,7,-413,-4778,22,-84,-37,30
826,2156,5,-426,-4782,22,-83,-39,34
827,2152,-1,-420,-4791,22,-89,-35,37
828,2160,3,-428,-4780,22,-86,-39,32
829,2163,0,-430,-4773,22,-88,-38,35
830,2151,-3,-420,-4786,22,-88,-41,34
831,2154,-4,-435,-4786,22,-89,-39,35
832,2153,0,-430,-4785,22,-87,-32,39
833,2159,-2,-427,-4775,22,-88,-41,37
834,2157,-2,-432,-4789,22,-87,-40,34
835,2153,-1,-431,-4782,22,-88,-37,31
836,2154,-8,-430,-4776,22,-89,-40,33
837,2161,-2,-417,-4777,22,-82,-35,31
838,2154,4,-410,-4785,22,-85,-40,37
839,2158,2,-424,-4774,22,-84,-32,33
840,2153,-10,-417,-4777,22,-90,-38,37
841,2159,-5,-433,-4773,22,-85,-36,36
842,2153,4,-430,-4776,22,-86,-42,32
843,2168,-9,-413,-4780,22,-83,-38,39
844,2158,2,-423,-4784,22,-86,-35,33
845,2157,0,-410,-4774,22,-87,-39,37
846,2161,0,-420,-4777,22,-89,-42,33
847,2167,11,-422,-4781,22,-86,-37,29
848,2160,5,-424,-4783,22,-86,-35,34
849,2158,-3,-426,-4776,22,-89,-41,36
850,2160,3,-424,-4777,22,-83,-41,38
851,2156,-3,-418,-4777,22,-89,-40,36
852,2160,-5,-417,-4788,22,-91,-39,32
853,2152,2,-415,-4783,22,-82,-39,34
854,2160,-7,-420,-4774,22,-85,-39,34
855,2155,-3,-431,-4768,22,-84,-34,32
856,2158,-7,-425,-4791,22,-87,-39,36
857,2159,4,-426,-4775,22,-85,-39,34
858,2167,-5,-413,-4765,22,-88,-40,31
859,2155,0,-431,-4783,22,-87,-38,37
860,2157,-2,-422,-4774,22,-84,-42,31
861,2153,8,-416,-4773,22,-82,-42,34
862,2159,1,-419,-4776,22,-84,-35,30
863,2168,4,-416,-4776,22,-90,-34,35
864,2153,4,-423,-4776,22,-88,-36,35
865,2152,-7,-427,-4774,22,-86,-37,39
866,2162,4,-421,-4785,22,-89,-41,34
867,2163,5,-416,-4774,22,-86,-36,36
868,2162,-2,-430,-4788,22,-88,-41,34
869,2155,2,-424,-4773,22,-87,-35,33
870,2162,2,-446,-4778,22,-89,-38,35
871,2161,-2,-424,-4782,22,-83,-41,32
872,2159,-5,-419,-4783,22,-88,-35,32
873,2155,4,-434,-4786,22,-85,-37,34
874,2158,5,-419,-4776,22,-86,-40,33
875,2160,6,-422,-4772,22,-86,-39,37
876,2155,-3,-429,-4772,22,-90,-38,33
877,2155,4,-437,-4774,22,-90,-40,30
878,2152,-3,-439,-4781,22,-86,-40,32
879,2157,-1,-428,-4772,22,-86,-39,36
880,2158,-4,-428,-4780,22,-85,-34,35
881,2161,3,-420,-4774,22,-84,-41,35
882,2163,0,-427,-4773,22,-86,-37,32
883,2161,8,-421,-4774,22,-83,-43,34
884,2157,5,-416,-4780,22,-89,-42,39
885,2164,-3,-419,-4784,22,-85,-36,28
886,2163,4,-427,-4790,22,-86,-39,34
887,2156,0,-427,-4776,22,-90,-45,38
888,2156,1,-422,-4791,22,-90,-39,29
889,2153,5,-426,-4766,22,-81,-37,36
890,2170,1,-414,-4780,22,-89,-39,34
891,2168,-2,-424,-4773,22,-86,-40,34
892,2152,-2,-434,-4775,22,-89,-39,31
893,2154,0,-425,-4770,22,-88,-37,36
894,2159,-3,-419,-4767,22,-85,-34,37
895,2168,6,-426,-4773,22,-86,-38,33
896,2162,-1,-421,-4779,22,-86,-38,34
897,2169,2,-424,-4769,22,-85,-37,32
898,2161,4,-416,-4774,22,-88,-39,37
899,2155,0,-421,-4763,22,-87,-38,35
900,2165,6,-407,-4766,22,-85,-37,30
901,2166,2,-431,-4776,22,-87,-40,30
902,2166,5,-433,-4777,22,-83,-38,32
903,2160,-3,-413,-4767,22,-82,-37,34
904,2158,3,-431,-4784,22,-84,-35,33
905,2154,1,-436,-4789,22,-90,-39,36
906,2153,14,-411,-4790,22,-85,-39,38
907,2153,4,-428,-4781,22,-87,-36,34
908,2165,-4,-423,-4776,22,-86,-42,35
909,2156,3,-434,-4778,22,-81,-39,37
910,2157,0,-424,-4778,22,-87,-39,39
911,2161,-5,-436,-4778,22,-86,-36,35
912,2157,1,-425,-4767,22,-88,-34,30
913,2154,2,-418,-4763,22,-87,-41,37
914,2161,-5,-425,-4784,22,-88,-39,33
915,2154,-7,-422,-4774,22,-91,-41,35
916,2162,-5,-433,-4800,22,-85,-41,33
917,2157,5,-438,-4787,22,-85,-39,34
918,2157,1,-426,-4798,22,-88,-37,33
919,2155,-4,-443,-4774,22,-88,-45,33
920,2158,-1,-428,-4772,22,-85,-35,29
921,2167,-6,-423,-4783,22,-80,-34,34
922,2159,8,-432,-4777,22,-83,-37,33
923,2155,3,-423,-4776,22,-87,-40,37
924,2154,1,-429,-4770,22,-85,-37,33
925,2163,10,-427,-4770,22,-84,-40,37
926,2157,5,-439,-4770,22,-84,-39,35
927,2159,1,-409,-4776,22,-83,-35,34
928,2162,2,-417,-4777,22,-83,-37,34
929,2155,-2,-428,-4774,22,-87,-38,36
930,2162,4,-417,-4784,22,-84,-39,36
931,2159,-2,-423,-4775,22,-84,-39,34
932,2151,0,-416,-4781,22,-84,-42,36
933,2170,-2,-434,-4771,22,-85,-35,34
934,2162,0,-425,-4762,22,-88,-41,37
935,2156,1,-424,-4778,22,-86,-36,33
936,2159,-3,-427,-4765,22,-84,-37,36
937,2157,2,-422,-4776,22,-86,-37,32
938,2163,-3,-418,-4778,22,-85,-41,35
939,2165,4,-445,-4773,22,-86,-39,32
940,2154,-3,-410,-4768,22,-89,-41,34
941,2153,-2,-433,-4783,22,-87,-37,34
942,2156,-4,-432,-4775,22,-83,-40,31
943,2151,9,-429,-4772,22,-84,-40,33
944,2153,2,-453,-4781,22,-88,-37,35
945,2165,3,-422,-4786,22,-88,-38,32
946,2159,10,-416,-4783,22,-91,-36,34
947,2156,-11,-411,-4763,22,-85,-39,33
948,2157,0,-430,-4785,22,-87,-41,32
949,2166,-9,-416,-4792,22,-84,-40,34
950,2162,-6,-427,-4780,22,-85,-37,33
951,2150,6,-427,-4782,22,-83,-38,34
952,2165,1,-426,-4783,22,-92,-37,32
953,2170,3,-409,-4772,22,-89,-39,34
954,2164,-7,-429,-4774,22,-86,-41,34
955,2164,-1,-421,-4766,22,-86,-42,31
956,2152,7,-418,-4769,22,-90,-37,32
957,2170,13,-420,-4780,22,-85,-37,33
958,2153,6,-439,-4776,22,-85,-37,31
959,2152,-2,-440,-4776,22,-86,-38,36
960,2158,3,-434,-4779,22,-86,-40,37
961,2166,0,-414,-4774,22,-87,-34,33
962,2157,2,-428,-4788,22,-88,-38,31
963,2163,-4,-422,-4782,22,-89,-40,33
964,2158,5,-427,-4787,22,-87,-34,32
965,2162,-4,-418,-4781,22,-82,-36,32
966,2159,3,-424,-4777,22,-85,-40,33
967,2165,8,-425,-4767,22,-85,-40,32
968,2161,4,-429,-4781,22,-91,-41,33
969,2152,8,-429,-4774,22,-87,-33,35
970,2161,-6,-422,-4785,22,-93,-39,32
971,2158,1,-427,-4766,22,-85,-44,29
972,2161,-6,-422,-4762,22,-82,-39,31
973,2163,-3,-429,-4786,22,-86,-35,33
974,2150,14,-421,-4781,22,-91,-43,37
975,2165,4,-429,-4766,22,-88,-39,35
976,2150,7,-418,-4774,22,-87,-38,33
977,2166,-2,-424,-4781,22,-87,-41,37
978,2158,13,-430,-4781,22,-84,-34,31
979,2164,-3,-424,-4780,22,-89,-37,36
980,2158,-1,-419,-4770,22,-89,-43,35
981,2161,1,-419,-4774,22,-87,-35,34
982,2169,1,-422,-4763,22,-89,-39,36
983,2160,11,-423,-4791,22,-89,-38,34
984,2162,9,-427,-4771,22,-90,-37,34
985,2154,-3,-419,-4744,23,-86,-38,37
986,2157,4,-427,-4783,22,-86,-37,33
987,2157,-7,-427,-4776,22,-82,-38,33
988,2160,1,-427,-4782,22,-87,-34,34
989,2152,7,-430,-4775,22,-88,-35,35
990,2159,4,-428,-4782,22,-89,-41,34
991,2159,-3,-423,-4777,22,-90,-41,28
992,2168,-5,-432,-4764,22,-87,-36,35
993,2154,0,-424,-4764,22,-86,-42,35
994,2167,7,-423,-4788,22,-83,-33,33
995,2160,1,-399,-4770,22,-88,-38,32
