,acc_X,acc_Y,acc_Z,temp,tempC,gyr_X,gyr_Y,gyr_Z
0,2155,-1,-426,-4701,23,-356,-154,144
1,2159,3,-419,-4700,23,-346,-151,148
2,2154,1,-427,-4713,23,-340,-157,148
3,2159,4,-430,-4692,23,-339,-154,145
4,2160,-6,-428,-4698,23,-345,-157,150
5,2156,-5,-435,-4703,23,-349,-155,144
6,2164,8,-434,-4702,23,-349,-159,143
7,2160,2,-420,-4693,23,-343,-154,137
8,2153,7,-414,-4694,23,-354,-143,134
9,2161,5,-421,-4697,23,-348,-147,137
10,2164,2,-425,-4696,23,-344,-152,140
11,2160,2,-434,-4695,23,-361,-160,124
12,2162,5,-428,-4705,23,-355,-145,138
13,2162,7,-426,-4686,23,-363,-157,142
14,2167,1,-417,-4696,23,-342,-161,136
15,2156,-1,-438,-4700,23,-341,-146,142
16,2163,-4,-432,-4690,23,-345,-156,132
17,2160,4,-428,-4700,23,-350,-145,149
18,2163,-6,-421,-4693,23,-344,-158,147
19,2159,-2,-435,-4698,23,-351,-134,134
20,2165,3,-433,-4690,23,-345,-141,143
21,2158,-4,-419,-4702,23,-333,-138,132
22,2159,-3,-425,-4699,23,-350,-145,135
23,2165,5,-434,-4699,23,-349,-141,140
24,2156,-3,-430,-4697,23,-348,-147,148
25,2154,4,-422,-4695,23,-355,-151,140
26,2158,-7,-421,-4691,23,-333,-149,144
27,2154,-5,-420,-4699,23,-359,-153,139
28,2154,3,-410,-4706,23,-362,-150,140
29,2159,2,-423,-4704,23,-345,-145,142
30,2164,-3,-426,-4704,23,-349,-152,135
31,2152,-1,-412,-4691,23,-348,-145,136
32,2159,4,-415,-4701,23,-341,-134,133
33,2156,-1,-418,-4700,23,-357,-153,127
34,2158,4,-437,-4704,23,-356,-155,134
35,2154,1,-428,-4693,23,-336,-159,132
36,2160,-5,-428,-4696,23,-343,-170,136
37,2159,-2,-424,-4700,23,-343,-140,138
38,2157,5,-419,-4702,23,-354,-148,144
39,2154,7,-419,-4696,23,-338,-160,153
40,2160,-4,-423,-4697,23,-355,-155,146
41,2163,0,-424,-4700,23,-342,-142,143
42,2163,1,-421,-4699,23,-337,-143,143
43,2160,0,-425,-4700,23,-342,-146,137
44,2159,1,-426,-4696,23,-352,-153,144
45,2159,0,-434,-4699,23,-333,-147,138
46,2158,3,-434,-4688,23,-346,-142,158
47,2158,6,-418,-4699,23,-364,-150,146
48,2161,0,-420,-4703,23,-341,-140,148
49,2165,2,-423,-4707,23,-341,-155,138
50,2155,-3,-410,-4694,23,-345,-158,139
51,2163,7,-429,-4701,23,-344,-152,130
52,2162,-2,-430,-4703,23,-351,-158,136
53,2163,3,-427,-4711,23,-333,-133,144
54,2162,-9,-420,-4699,23,-353,-162,148
55,2160,-5,-426,-4699,23,-342,-154,126
56,2157,3,-423,-4704,23,-346,-158,148
57,2156,1,-419,-4698,23,-348,-153,134
58,2159,-9,-420,-4683,23,-347,-139,137
59,2158,0,-419,-4682,23,-351,-131,127
60,2155,1,-426,-4700,23,-353,-151,146
61,2154,-3,-431,-4701,23,-341,-153,126
62,2156,0,-430,-4700,23,-344,-142,138
63,2167,-4,-422,-4703,23,-353,-163,139
64,2156,9,-427,-4696,23,-341,-149,144
65,2155,-5,-425,-4687,23,-332,-158,140
66,2153,4,-421,-4699,23,-339,-150,142
67,2152,2,-428,-4693,23,-344,-152,132
68,2161,1,-425,-4693,23,-342,-149,138
69,2167,5,-421,-4698,23,-336,-161,147
70,2162,9,-427,-4698,23,-341,-142,145
71,2160,9,-429,-4694,23,-355,-140,142
72,2156,7,-418,-4697,23,-342,-148,141
73,2164,-3,-421,-4692,23,-347,-164,136
74,2163,-5,-422,-4701,23,-336,-148,134
75,2161,-1,-417,-4701,23,-356,-157,145
76,2159,-6,-422,-4692,23,-348,-134,148
77,2159,11,-429,-4703,23,-344,-151,143
78,2152,1,-420,-4708,23,-335,-149,135
79,2155,10,-417,-4696,23,-355,-144,127
80,2154,2,-423,-4703,23,-346,-154,144
81,2163,1,-426,-4701,23,-358,-149,132
82,2163,9,-427,-4702,23,-340,-149,120
83,2163,-1,-411,-4703,23,-344,-147,147
84,2163,2,-433,-4700,23,-346,-151,124
85,2151,-1,-411,-4692,23,-339,-162,133
86,2168,-4,-416,-4701,23,-344,-148,137
87,2166,-5,-427,-4699,23,-347,-144,137
88,2158,-2,-423,-4694,23,-340,-167,136
89,2154,2,-430,-4694,23,-324,-143,142
90,2155,4,-421,-4696,23,-334,-139,131
91,2158,3,-420,-4702,23,-341,-149,140
92,2160,4,-429,-4706,23,-344,-153,151
93,2162,3,-414,-4699,23,-346,-154,133
94,2161,-3,-420,-4696,23,-346,-155,142
95,2161,0,-417,-4707,23,-336,-145,141
96,2166,0,-422,-4708,23,-344,-134,139
97,2161,-2,-414,-4700,23,-341,-155,148
98,2156,-3,-422,-4712,23,-340,-145,136
99,2164,6,-428,-4704,23,-338,-142,135
100,2160,-7,-427,-4702,23,-352,-156,136
101,2164,2,-427,-4696,23,-357,-152,144
102,2161,0,-432,-4701,23,-345,-143,137
103,2163,-2,-425,-4692,23,-350,-151,135
104,2162,0,-421,-4688,23,-342,-155,148
105,2158,-5,-433,-4697,23,-341,-147,138
106,2166,-3,-430,-4696,23,-360,-143,146
107,2158,3,-426,-4695,23,-342,-149,136
108,2161,-3,-432,-4699,23,-355,-157,139
109,2156,-1,-437,-4697,23,-341,-154,136
110,2158,1,-415,-4698,23,-337,-159,128
111,2156,2,-434,-4702,23,-338,-134,152
112,2162,9,-422,-4694,23,-342,-156,140
113,2161,-2,-418,-4697,23,-356,-156,128
114,2156,2,-426,-4700,23,-352,-158,138
115,2160,3,-419,-4689,23,-342,-146,147
116,2156,6,-418,-4694,23,-349,-152,140
117,2171,2,-421,-4702,23,-338,-147,151
118,2162,-3,-418,-4694,23,-340,-132,138
119,2164,-3,-431,-4709,23,-343,-164,144
120,2164,-3,-424,-4695,23,-359,-162,135
121,2161,-7,-418,-4692,23,-352,-152,133
122,2175,2,-421,-4692,23,-350,-145,151
123,2162,5,-419,-4691,23,-350,-166,130
124,2156,0,-423,-4692,23,-353,-176,134
125,2153,-2,-437,-4705,23,-349,-161,136
126,2160,3,-432,-4696,23,-343,-141,141
127,2158,-5,-421,-4697,23,-344,-142,131
128,2154,9,-425,-4683,23,-326,-146,128
129,2154,0,-426,-4696,23,-335,-153,149
130,2160,3,-419,-4690,23,-351,-141,140
131,2155,8,-427,-4694,23,-337,-138,139
132,2152,1,-433,-4695,23,-345,-152,146
133,2152,-3,-426,-4695,23,-343,-147,141
134,2163,2,-408,-4691,23,-329,-146,143
135,2159,6,-416,-4703,23,-354,-159,157
136,2158,1,-419,-4683,23,-344,-161,138
137,2151,-5,-433,-4696,23,-350,-154,149
138,2160,2,-434,-4697,23,-348,-160,144
139,2163,-3,-424,-4691,23,-341,-146,122
140,2151,-3,-417,-4699,23,-339,-146,141
141,2155,-1,-425,-4699,23,-351,-160,137
142,2163,3,-420,-4698,23,-354,-146,140
143,2156,5,-431,-4700,23,-350,-142,151
144,2160,7,-428,-4686,23,-357,-159,146
145,2166,5,-426,-4702,23,-353,-163,148
146,2158,-2,-417,-4692,23,-340,-152,144
147,2162,0,-437,-4704,23,-337,-141,130
148,2161,-4,-424,-4707,23,-359,-157,139
149,2153,-3,-428,-4695,23,-351,-146,134
150,2153,-2,-434,-4692,23,-363,-153,130
151,2163,4,-427,-4690,23,-343,-144,142
152,2161,-2,-422,-4704,23,-341,-144,133
153,2159,8,-427,-4687,23,-351,-154,138
154,2160,-4,-431,-4698,23,-337,-144,139
155,2158,11,-424,-4695,23,-361,-158,135
156,2152,3,-421,-4701,23,-359,-154,133
157,2164,3,-423,-4693,23,-335,-168,142
158,2158,1,-424,-4710,23,-344,-153,146
159,2157,8,-424,-4707,23,-345,-145,133
160,2161,-3,-419,-4695,23,-335,-152,137
161,2156,3,-431,-4689,23,-351,-122,134
162,2166,-2,-436,-4699,23,-349,-148,128
163,2161,-2,-423,-4688,23,-343,-161,131
164,2152,-2,-423,-4695,23,-342,-145,140
165,2157,-10,-427,-4691,23,-350,-143,154
166,2158,0,-428,-4696,23,-339,-150,133
167,2165,2,-436,-4696,23,-357,-143,148
168,2160,3,-433,-4698,23,-342,-154,134
169,2158,2,-428,-4693,23,-339,-145,149
170,2158,-3,-424,-4689,23,-345,-146,136
171,2163,2,-413,-4687,23,-359,-153,127
172,2154,5,-424,-4689,23,-351,-158,134
173,2151,-4,-433,-4695,23,-354,-137,137
174,2160,-2,-427,-4686,23,-343,-148,146
175,2165,10,-431,-4697,23,-358,-149,141
176,2160,-1,-417,-4694,23,-346,-138,143
177,2157,4,-422,-4709,23,-353,-156,138
178,2159,5,-425,-4694,23,-341,-132,140
179,2161,-1,-433,-4707,23,-356,-159,137
180,2158,4,-431,-4697,23,-345,-149,138
181,2162,4,-430,-4702,23,-337,-144,127
182,2156,-7,-421,-4692,23,-361,-164,136
183,2158,-3,-417,-4691,23,-335,-154,134
184,2163,-8,-437,-4691,23,-343,-142,142
185,2155,5,-436,-4689,23,-348,-158,141
186,2176,-9,-422,-4704,23,-365,-149,143
187,2154,7,-435,-4696,23,-343,-156,148
188,2158,-2,-423,-4695,23,-346,-147,139
189,2157,1,-415,-4697,23,-340,-160,142
190,2159,3,-418,-4685,23,-342,-148,132
191,2157,-3,-417,-4693,23,-354,-149,127
192,2161,0,-419,-4704,23,-347,-160,132
193,2166,6,-423,-4684,23,-365,-157,147
194,2158,-5,-432,-4697,23,-346,-145,129
195,2161,-8,-422,-4707,23,-347,-152,145
196,2166,3,-443,-4699,23,-334,-153,138
197,2161,-5,-425,-4694,23,-352,-158,146
198,2168,2,-422,-4686,23,-351,-161,136
199,2163,3,-422,-4688,23,-327,-151,141
200,2153,7,-425,-4692,23,-359,-159,135
201,2159,-1,-428,-4707,23,-330,-153,140
202,2166,4,-440,-4690,23,-343,-161,133
203,2162,4,-434,-4700,23,-349,-158,141
204,2161,-2,-428,-4690,23,-340,-143,139
205,2154,4,-427,-4694,23,-344,-146,150
206,2158,-3,-424,-4691,23,-341,-165,143
207,2162,-3,-421,-4693,23,-346,-159,125
208,2159,8,-434,-4695,23,-346,-152,148
209,2153,1,-426,-4696,23,-359,-156,140
210,2160,8,-420,-4699,23,-348,-168,146
211,2160,-2,-425,-4695,23,-350,-164,138
212,2169,0,-426,-4688,23,-352,-143,141
213,2162,2,-422,-4693,23,-350,-141,138
214,2160,7,-419,-4689,23,-347,-151,145
215,2155,1,-405,-4699,23,-351,-166,149
216,2160,14,-410,-4691,23,-348,-156,133
217,2161,2,-424,-4692,23,-331,-168,137
218,2152,0,-425,-4696,23,-331,-140,139
219,2156,2,-421,-4692,23,-335,-147,137
220,2159,-5,-424,-4699,23,-341,-145,154
221,2160,-1,-423,-4696,23,-351,-153,143
222,2164,3,-413,-4690,23,-349,-161,140
223,2158,3,-423,-4701,23,-346,-159,134
224,2163,7,-430,-4695,23,-345,-164,145
225,2160,9,-426,-4698,23,-345,-137,133
226,2161,4,-429,-4694,23,-343,-155,153
227,2154,0,-417,-4697,23,-344,-156,143
228,2158,-9,-439,-4695,23,-352,-146,136
229,2161,2,-429,-4699,23,-352,-142,148
230,2164,3,-420,-4704,23,-332,-156,150
231,2161,1,-434,-4690,23,-353,-135,137
232,2164,2,-430,-4694,23,-346,-169,134
233,2164,-2,-439,-4701,23,-347,-148,147
234,2163,-1,-416,-4682,23,-341,-157,151
235,2163,-1,-430,-4686,23,-349,-138,136
236,2159,-1,-421,-4700,23,-337,-147,149
237,2155,2,-428,-4687,23,-347,-149,147
238,2163,0,-409,-4685,23,-349,-143,143
239,2158,1,-434,-4698,23,-344,-157,143
240,2155,-2,-418,-4686,23,-343,-153,155
241,2151,-2,-417,-4687,23,-340,-150,132
242,2158,4,-416,-4701,23,-353,-170,143
243,2161,1,-420,-4696,23,-330,-149,151
244,2162,-2,-417,-4690,23,-360,-134,147
245,2152,1,-424,-4692,23,-356,-147,146
246,2152,-1,-426,-4697,23,-346,-150,134
247,2161,-5,-434,-4699,23,-348,-161,130
248,2157,-12,-431,-4691,23,-357,-173,124
249,2157,-2,-427,-4696,23,-324,-142,140
250,2159,1,-425,-4699,23,-346,-153,129
251,2160,3,-432,-4704,23,-341,-160,140
252,2157,-3,-418,-4699,23,-342,-150,140
253,2162,3,-416,-4703,23,-347,-148,134
254,2159,6,-426,-4685,23,-352,-159,123
255,2158,-1,-413,-4697,23,-338,-156,156
256,2152,1,-425,-4685,23,-347,-154,133
257,2165,1,-420,-4695,23,-337,-151,129
258,2160,4,-414,-4701,23,-339,-138,152
259,2152,-2,-425,-4688,23,-358,-157,127
260,2164,7,-420,-4697,23,-350,-140,143
261,2160,5,-431,-4696,23,-351,-164,138
262,2163,-2,-420,-4694,23,-340,-157,149
263,2155,0,-432,-4698,23,-344,-157,137
264,2165,4,-425,-4697,23,-369,-144,141
265,2162,1,-421,-4689,23,-336,-144,142
266,2159,2,-426,-4696,23,-355,-135,130
267,2164,-1,-418,-4700,23,-354,-163,147
268,2156,0,-431,-4693,23,-348,-150,149
269,2165,1,-426,-4692,23,-340,-146,147
270,2157,8,-420,-4697,23,-338,-162,149
271,2165,5,-426,-4696,23,-342,-146,145
272,2159,-1,-424,-4697,23,-350,-137,128
273,2158,12,-423,-4693,23,-345,-145,133
274,2160,2,-424,-4682,23,-339,-142,132
275,2166,-3,-428,-4695,23,-353,-135,140
276,2161,-5,-424,-4694,23,-337,-162,145
277,2161,3,-422,-4688,23,-337,-146,143
278,2161,-5,-418,-4702,23,-354,-145,132
279,2161,1,-431,-4682,23,-341,-146,155
280,2157,-2,-424,-4702,23,-334,-152,144
281,2162,3,-419,-4677,23,-362,-149,158
282,2166,-2,-415,-4689,23,-351,-157,144
283,2170,-1,-422,-4689,23,-360,-153,147
284,2157,-2,-423,-4692,23,-352,-134,144
285,2158,8,-412,-4699,23,-348,-152,123
286,2157,-3,-417,-4701,23,-343,-148,137
287,2160,1,-431,-4702,23,-354,-149,135
288,2163,-5,-425,-4702,23,-356,-146,152
289,2160,3,-421,-4692,23,-352,-132,130
290,2151,2,-425,-4685,23,-338,-143,145
291,2164,0,-428,-4689,23,-346,-139,145
292,2160,10,-420,-4693,23,-343,-156,143
293,2154,-4,-431,-4687,23,-351,-146,135
294,2161,0,-422,-4692,23,-351,-159,141
295,2164,-1,-427,-4702,23,-345,-153,156
296,2156,-1,-421,-4695,23,-351,-156,144
297,2153,-1,-417,-4693,23,-348,-149,140
298,2163,-7,-424,-4691,23,-341,-157,131
299,2157,-4,-422,-4700,23,-349,-149,141
300,2160,-5,-420,-4685,23,-344,-151,145
301,2155,2,-423,-4690,23,-345,-137,135
302,2166,7,-429,-4687,23,-351,-148,130
303,2154,2,-426,-4688,23,-339,-131,137
304,2163,-4,-423,-4684,23,-349,-144,139
305,2160,7,-415,-4687,23,-355,-149,140
306,2154,0,-430,-4693,23,-343,-150,137
307,2160,6,-421,-4696,23,-340,-156,132
308,2161,0,-427,-4697,23,-354,-145,139
309,2162,3,-425,-4697,23,-351,-152,141
310,2158,4,-432,-4692,23,-354,-152,142
311,2158,5,-425,-4693,23,-353,-143,144
312,2161,2,-422,-4691,23,-354,-146,146
313,2159,1,-426,-4701,23,-333,-147,145
314,2155,5,-416,-4693,23,-342,-150,133
315,2162,12,-417,-4686,23,-340,-139,144
316,2166,3,-413,-4690,23,-349,-137,141
317,2155,7,-416,-4693,23,-337,-147,137
318,2159,-4,-424,-4700,23,-357,-152,137
319,2156,-6,-438,-4694,23,-342,-164,139
320,2159,5,-426,-4692,23,-343,-144,125
321,2159,3,-419,-4697,23,-349,-158,139
322,2167,-3,-432,-4702,23,-347,-148,132
323,2162,2,-431,-4689,23,-340,-148,134
324,2159,3,-419,-4680,23,-352,-142,149
325,2154,5,-417,-4690,23,-333,-153,133
326,2157,5,-434,-4693,23,-344,-162,138
327,2169,-3,-430,-4698,23,-348,-148,136
328,2156,-8,-432,-4695,23,-351,-156,127
329,2160,1,-424,-4688,23,-348,-147,142
330,2161,1,-419,-4697,23,-352,-139,137
331,2163,-1,-422,-4689,23,-350,-157,145
332,2158,3,-421,-4686,23,-354,-142,135
333,2161,-2,-427,-4690,23,-345,-157,137
334,2166,-1,-423,-4686,23,-335,-149,141
335,2163,-7,-420,-4691,23,-345,-151,128
336,2163,0,-415,-4696,23,-351,-156,141
337,2165,3,-424,-4695,23,-357,-159,140
338,2159,1,-421,-4691,23,-345,-159,143
339,2158,-3,-428,-4688,23,-343,-155,139
340,2157,-1,-420,-4691,23,-348,-143,140
341,2160,-6,-423,-4687,23,-331,-148,144
342,2162,4,-434,-4696,23,-354,-145,124
343,2158,6,-436,-4691,23,-334,-151,135
344,2152,-1,-420,-4691,23,-351,-158,138
345,2163,4,-436,-4681,23,-342,-164,147
346,2158,2,-425,-4693,23,-329,-154,137
347,2162,6,-428,-4692,23,-351,-143,142
348,2160,4,-420,-4688,23,-348,-156,130
349,2163,0,-418,-4697,23,-342,-151,134
350,2163,6,-425,-4686,23,-338,-152,136
351,2150,7,-420,-4670,23,-349,-151,144
352,2158,1,-434,-4679,23,-331,-150,143
353,2160,2,-428,-4687,23,-345,-151,139
354,2154,-2,-426,-4683,23,-353,-155,130
355,2158,-1,-428,-4689,23,-342,-143,129
356,2157,-4,-430,-4698,23,-351,-147,144
357,2158,4,-414,-4688,23,-351,-165,130
358,2162,-3,-417,-4690,23,-347,-136,142
359,2154,-5,-427,-4684,23,-327,-168,147
360,2157,4,-435,-4684,23,-336,-162,139
361,2165,3,-429,-4692,23,-347,-151,134
362,2155,4,-426,-4683,23,-340,-148,134
363,2160,1,-420,-4684,23,-360,-140,135
364,2162,-1,-430,-4692,23,-345,-141,134
365,2165,4,-414,-4698,23,-349,-139,150
366,2158,0,-427,-4683,23,-343,-156,138
367,2159,5,-425,-4696,23,-341,-151,139
368,2163,-1,-414,-4688,23,-351,-148,145
369,2158,11,-419,-4686,23,-335,-155,149
370,2153,7,-421,-4695,23,-336,-145,152
371,2159,0,-425,-4692,23,-345,-138,130
372,2161,4,-424,-4680,23,-355,-136,141
373,2165,-4,-427,-4695,23,-343,-141,137
374,2156,3,-416,-4698,23,-343,-159,149
375,2157,4,-413,-4690,23,-342,-154,133
376,2161,3,-421,-4688,23,-337,-156,140
377,2167,1,-427,-4682,23,-344,-150,136
378,2161,5,-427,-4691,23,-351,-152,145
379,2161,2,-427,-4686,23,-353,-145,140
380,2160,-2,-431,-4682,23,-344,-168,138
381,2153,0,-431,-4695,23,-349,-148,142
382,2159,0,-420,-4687,23,-337,-156,148
383,2155,-5,-418,-4677,23,-341,-150,149
384,2162,2,-428,-4682,23,-344,-145,144
385,2157,2,-427,-4695,23,-341,-157,136
386,2164,3,-432,-4693,23,-347,-149,127
387,2151,-1,-425,-4685,23,-346,-153,139
388,2159,0,-427,-4691,23,-339,-143,126
389,2160,-2,-431,-4698,23,-344,-148,141
390,2158,8,-429,-4695,23,-350,-134,133
391,2156,4,-431,-4699,23,-334,-149,140
392,2157,0,-429,-4683,23,-350,-150,137
393,2152,3,-412,-4689,23,-339,-151,133
394,2170,-8,-418,-4694,23,-350,-148,146
395,2160,3,-432,-4684,23,-342,-144,151
396,2159,-2,-417,-4694,23,-345,-149,140
397,2153,2,-414,-4688,23,-346,-158,137
398,2161,-2,-438,-4698,23,-355,-159,138
399,2164,7,-427,-4690,23,-341,-163,144
400,2154,2,-431,-4691,23,-358,-154,140
401,2166,-5,-435,-4699,23,-355,-147,140
402,2164,0,-418,-4689,23,-337,-158,133
403,2155,4,-421,-4692,23,-349,-141,141
404,2159,-6,-433,-4695,23,-350,-151,123
405,2156,1,-422,-4682,23,-333,-157,139
406,2161,-5,-421,-4683,23,-333,-155,146
407,2158,5,-429,-4685,23,-356,-153,139
408,2163,3,-429,-4689,23,-352,-171,137
409,2156,4,-418,-4687,23,-353,-156,141
410,2159,-1,-421,-4695,23,-359,-142,136
411,2163,-7,-426,-4696,23,-341,-150,146
412,2165,-8,-423,-4683,23,-347,-140,139
413,2162,1,-418,-4684,23,-334,-152,149
414,2159,2,-419,-4691,23,-332,-157,137
415,2160,3,-423,-4695,23,-349,-150,140
416,2159,1,-428,-4690,23,-344,-144,139
417,2160,9,-418,-4689,23,-350,-162,138
418,2164,1,-429,-4681,23,-346,-152,138
419,2161,0,-432,-4689,23,-346,-154,139
420,2157,2,-430,-4696,23,-336,-154,127
421,2162,3,-426,-4688,23,-345,-149,137
422,2161,5,-413,-4689,23,-327,-149,135
423,2158,7,-426,-4684,23,-341,-147,140
424,2159,0,-440,-4689,23,-349,-158,158
425,2157,5,-435,-4692,23,-337,-151,137
426,2159,4,-411,-4691,23,-339,-155,131
427,2166,0,-416,-4685,23,-355,-134,140
428,2156,6,-415,-4687,23,-335,-157,132
429,2162,-4,-427,-4698,23,-362,-154,131
430,2169,-2,-420,-4687,23,-354,-151,148
431,2165,-3,-431,-4687,23,-351,-156,148
432,2167,-1,-415,-4692,23,-350,-160,132
433,2160,3,-430,-4687,23,-338,-158,140
434,2158,5,-424,-4687,23,-345,-154,136
435,2166,3,-425,-4692,23,-337,-153,120
436,2160,0,-421,-4694,23,-324,-149,137
437,2161,4,-427,-4688,23,-357,-150,141
438,2158,1,-414,-4692,23,-350,-152,144
439,2155,-2,-424,-4689,23,-345,-152,139
440,2159,2,-427,-4687,23,-344,-148,146
441,2156,-4,-431,-4689,23,-355,-149,138
442,2162,10,-419,-4691,23,-342,-160,135
443,2163,-1,-428,-4689,23,-352,-130,148
444,2169,6,-416,-4686,23,-350,-156,143
445,2164,1,-427,-4690,23,-350,-134,131
446,2164,-1,-426,-4688,23,-340,-145,141
447,2167,2,-423,-4683,23,-335,-137,148
448,2157,-4,-436,-4700,23,-348,-155,142
449,2158,0,-412,-4694,23,-335,-165,141
450,2158,5,-424,-4688,23,-349,-153,139
451,2155,0,-420,-4695,23,-335,-148,132
452,2156,6,-416,-4691,23,-346,-141,131
453,2160,-6,-434,-4683,23,-344,-139,146
454,2157,-5,-425,-4698,23,-357,-136,149
455,2163,6,-413,-4686,23,-350,-143,133
456,2156,6,-432,-4684,23,-333,-164,126
457,2159,5,-424,-4691,23,-349,-135,143
458,2159,0,-421,-4682,23,-337,-151,144
459,2155,3,-419,-4696,23,-359,-132,123
460,2155,-5,-432,-4698,23,-344,-149,132
461,2168,4,-423,-4687,23,-344,-142,141
462,2156,2,-440,-4687,23,-336,-137,132
463,2159,4,-414,-4685,23,-362,-156,136
464,2158,0,-421,-4682,23,-341,-168,137
465,2155,1,-420,-4688,23,-341,-155,141
466,2162,10,-421,-4680,23,-350,-169,156
467,2154,-5,-431,-4677,23,-362,-163,142
468,2165,1,-421,-4694,23,-350,-146,139
469,2161,4,-432,-4684,23,-344,-150,137
470,2155,6,-429,-4683,23,-359,-149,135
471,2160,-4,-419,-4685,23,-339,-150,129
472,2162,-1,-423,-4693,23,-355,-148,138
473,2164,3,-429,-4693,23,-354,-142,139
474,2158,2,-420,-4694,23,-334,-154,136
475,2164,3,-430,-4689,23,-361,-154,146
476,2169,0,-430,-4683,23,-347,-157,125
477,2161,1,-420,-4690,23,-350,-150,132
478,2154,3,-426,-4686,23,-352,-159,151
479,2155,-1,-433,-4690,23,-350,-149,146
480,2166,4,-415,-4683,23,-344,-158,157
481,2160,-5,-427,-4678,23,-356,-151,152
482,2162,5,-432,-4684,23,-351,-163,143
483,2163,-1,-409,-4694,23,-336,-156,139
484,2167,1,-412,-4687,23,-339,-142,143
485,2165,0,-424,-4692,23,-349,-149,141
486,2157,-2,-418,-4692,23,-346,-152,145
487,2154,1,-420,-4677,23,-351,-149,141
488,2157,1,-414,-4675,23,-350,-148,139
489,2152,0,-419,-4687,23,-349,-139,132
490,2153,-2,-417,-4690,23,-360,-160,132
491,2162,5,-418,-4690,23,-361,-149,139
492,2158,5,-432,-4686,23,-351,-152,129
493,2166,3,-417,-4694,23,-340,-162,151
494,2153,4,-421,-4688,23,-352,-144,130
495,2168,7,-430,-4691,23,-357,-153,141
496,2160,6,-425,-4684,23,-345,-149,142
497,2162,6,-422,-4694,23,-346,-151,131
498,2161,-5,-427,-4692,23,-344,-152,142
499,2157,1,-421,-4693,23,-347,-162,146
500,2165,7,-430,-4694,23,-344,-146,142
501,2153,6,-427,-4692,23,-347,-166,135
502,2163,7,-422,-4685,23,-350,-145,134
503,2157,-3,-422,-4682,23,-345,-149,136
504,2160,-6,-436,-4681,23,-354,-156,143
505,2157,-7,-422,-4687,23,-341,-155,134
506,2158,7,-418,-4688,23,-343,-142,128
507,2159,-4,-424,-4681,23,-340,-151,122
508,2161,0,-431,-4688,23,-351,-151,138
509,2163,2,-422,-4697,23,-350,-154,127
510,2158,4,-427,-4685,23,-352,-148,151
511,2158,2,-420,-4688,23,-342,-147,142
512,2162,1,-422,-4681,23,-353,-152,143
513,2156,2,-427,-4700,23,-340,-145,133
514,2165,1,-427,-4692,23,-348,-137,154
515,2161,-3,-429,-4686,23,-348,-162,150
516,2158,9,-414,-4683,23,-338,-146,135
517,2164,6,-419,-4683,23,-345,-147,132
518,2155,-1,-433,-4686,23,-343,-159,136
519,2163,-1,-421,-4695,23,-345,-147,140
520,2154,-3,-433,-4686,23,-338,-159,138
521,2161,-2,-430,-4683,23,-326,-155,148
522,2156,-5,-431,-4679,23,-344,-145,139
523,2163,4,-423,-4687,23,-346,-153,147
524,2162,2,-427,-4697,23,-343,-152,141
525,2164,-6,-420,-4686,23,-348,-151,143
526,2152,5,-433,-4683,23,-354,-148,149
527,2164,0,-424,-4687,23,-340,-165,143
528,2158,-1,-420,-4689,23,-341,-159,123
529,2149,3,-423,-4692,23,-336,-142,134
530,2160,2,-420,-4683,23,-345,-151,139
531,2156,3,-427,-4689,23,-364,-142,145
532,2163,5,-432,-4684,23,-358,-148,128
533,2160,5,-425,-4685,23,-341,-150,143
534,2151,3,-428,-4682,23,-350,-147,145
535,2162,-6,-417,-4680,23,-338,-154,129
536,2156,1,-429,-4669,23,-353,-145,136
537,2158,6,-420,-4674,23,-341,-137,137
538,2161,3,-439,-4676,23,-331,-155,146
539,2155,6,-434,-4682,23,-347,-160,135
540,2161,4,-424,-4673,23,-353,-167,134
541,2160,-4,-417,-4685,23,-355,-146,136
542,2162,7,-420,-4688,23,-344,-152,149
543,2168,6,-427,-4678,23,-355,-135,147
544,2161,-4,-426,-4679,23,-338,-136,150
545,2155,9,-426,-4691,23,-356,-140,136
546,2160,0,-424,-4676,23,-345,-145,130
547,2157,8,-424,-4698,23,-347,-136,145
548,2157,-1,-424,-4682,23,-344,-144,137
549,2163,-3,-426,-4681,23,-352,-146,139
550,2159,5,-415,-4681,23,-335,-163,140
551,2155,0,-416,-4677,23,-347,-154,135
552,2152,-2,-425,-4687,23,-347,-146,132
553,2151,0,-431,-4681,23,-345,-144,139
554,2160,0,-439,-4693,23,-342,-153,147
555,2159,3,-418,-4685,23,-353,-145,137
556,2159,2,-424,-4691,23,-339,-169,139
557,2161,8,-426,-4687,23,-350,-142,144
558,2156,5,-426,-4684,23,-343,-144,150
559,2161,1,-426,-4685,23,-342,-160,138
560,2161,1,-423,-4682,23,-348,-154,149
561,2158,-6,-422,-4693,23,-349,-152,151
562,2162,7,-420,-4682,23,-345,-173,141
563,2157,-2,-429,-4689,23,-334,-158,147
564,2159,6,-406,-4695,23,-347,-161,138
565,2157,8,-419,-4684,23,-356,-145,133
566,2165,7,-426,-4691,23,-335,-153,150
567,2164,6,-430,-4686,23,-345,-148,141
568,2156,-4,-418,-4686,23,-343,-159,131
569,2163,1,-425,-4691,23,-353,-164,127
570,2164,0,-429,-4691,23,-350,-143,134
571,2153,2,-413,-4692,23,-341,-159,140
572,2160,3,-422,-4680,23,-337,-149,140
573,2160,6,-432,-4686,23,-347,-166,123
574,2157,7,-438,-4680,23,-346,-157,138
575,2160,6,-431,-4695,23,-349,-156,136
576,2158,-7,-423,-4679,23,-355,-162,126
577,2165,9,-431,-4683,23,-354,-147,142
578,2160,6,-432,-4676,23,-343,-158,139
579,2156,-3,-432,-4675,23,-350,-156,141
580,2151,4,-413,-4686,23,-351,-155,140
581,2158,0,-427,-4680,23,-341,-145,123
582,2163,-13,-426,-4679,23,-341,-160,125
583,2154,5,-425,-4673,23,-334,-151,140
584,2159,0,-420,-4688,23,-347,-160,147
585,2165,0,-430,-4682,23,-349,-143,147
586,2158,2,-420,-4683,23,-343,-149,147
587,2157,2,-433,-4675,23,-337,-147,124
588,2160,7,-424,-4680,23,-343,-143,145
589,2166,13,-417,-4679,23,-333,-144,142
590,2163,1,-423,-4671,23,-333,-143,128
591,2148,1,-416,-4678,23,-351,-149,144
592,2154,8,-420,-4686,23,-362,-157,136
593,2154,1,-424,-4683,23,-343,-141,121
594,2163,3,-430,-4676,23,-348,-162,135
595,2160,5,-415,-4683,23,-334,-148,146
596,2153,-5,-426,-4682,23,-352,-158,134
597,2162,3,-425,-4685,23,-350,-145,145
598,2165,1,-428,-4691,23,-338,-157,148
599,2163,-2,-419,-4697,23,-337,-167,145
600,2157,4,-423,-4688,23,-357,-154,132
601,2170,4,-430,-4685,23,-347,-150,132
602,2156,8,-419,-4675,23,-344,-154,137
603,2160,1,-416,-4686,23,-350,-137,136
604,2158,-4,-430,-4677,23,-354,-138,142
605,2158,1,-420,-4677,23,-339,-154,153
606,2158,-1,-427,-4680,23,-338,-147,129
607,2158,-5,-423,-4690,23,-345,-136,146
608,2158,-4,-405,-4695,23,-349,-154,138
609,2160,-1,-417,-4686,23,-344,-152,144
610,2159,-8,-418,-4681,23,-352,-147,149
611,2167,7,-417,-4685,23,-354,-150,138
612,2157,0,-426,-4693,23,-338,-156,143
613,2156,10,-428,-4683,23,-345,-148,136
614,2163,4,-418,-4684,23,-347,-158,145
615,2161,-2,-420,-4689,23,-351,-146,137
616,2158,5,-420,-4693,23,-351,-148,143
617,2167,-4,-431,-4687,23,-334,-142,143
618,2161,2,-425,-4685,23,-340,-148,136
619,2163,-7,-420,-4678,23,-349,-147,150
620,2164,-4,-432,-4687,23,-356,-150,146
621,2160,-1,-419,-4682,23,-347,-136,147
622,2159,5,-417,-4670,23,-347,-153,135
623,2153,-1,-424,-4677,23,-338,-156,145
624,2165,-6,-421,-4678,23,-347,-134,143
625,2168,7,-429,-4678,23,-350,-159,137
626,2157,3,-424,-4690,23,-332,-159,147
627,2156,4,-435,-4692,23,-353,-146,151
628,2167,-5,-432,-4681,23,-348,-150,140
629,2157,3,-415,-4680,23,-357,-154,142
630,2170,7,-416,-4690,23,-340,-155,145
631,2154,1,-419,-4672,23,-340,-144,144
632,2158,-2,-437,-4676,23,-333,-139,149
633,2162,1,-416,-4682,23,-354,-147,137
634,2154,2,-430,-4682,23,-351,-153,134
635,2160,-1,-424,-4678,23,-350,-140,142
636,2158,-4,-419,-4677,23,-345,-153,138
637,2162,4,-426,-4694,23,-337,-156,137
638,2163,-1,-421,-4687,23,-339,-146,141
639,2160,3,-427,-4691,23,-350,-146,146
640,2156,-1,-431,-4680,23,-345,-158,138
641,2163,-9,-421,-4687,23,-351,-156,141
642,2154,5,-432,-4683,23,-345,-156,144
643,2157,-1,-421,-4675,23,-344,-159,139
644,2157,-1,-425,-4684,23,-351,-152,138
645,2158,6,-428,-4690,23,-344,-143,136
646,2161,0,-432,-4679,23,-335,-160,142
647,2161,-1,-428,-4690,23,-345,-147,146
648,2164,-6,-420,-4678,23,-348,-162,147
649,2158,1,-427,-4682,23,-339,-154,135
650,2156,-3,-431,-4679,23,-337,-154,142
651,2155,8,-421,-4694,23,-351,-134,142
652,2157,-2,-418,-4686,23,-357,-148,139
653,2158,-4,-422,-4682,23,-351,-142,119
654,2164,0,-436,-4681,23,-354,-158,146
655,2161,-2,-427,-4678,23,-352,-150,126
656,2159,7,-422,-4678,23,-359,-156,150
657,2162,3,-426,-4686,23,-341,-145,124
658,2163,-2,-426,-4680,23,-334,-126,144
659,2156,1,-435,-4694,23,-345,-167,148
660,2157,-3,-415,-4681,23,-352,-150,137
661,2157,1,-420,-4679,23,-342,-146,135
662,2163,-8,-422,-4686,23,-357,-144,145
663,2156,-5,-416,-4687,23,-356,-152,139
664,2154,-3,-422,-4689,23,-351,-150,140
665,2169,-1,-429,-4689,23,-329,-150,140
666,2155,-3,-426,-4697,23,-352,-142,138
667,2150,3,-416,-4682,23,-349,-150,140
668,2159,3,-418,-4685,23,-342,-154,132
669,2152,-6,-421,-4672,23,-346,-155,156
670,2165,2,-429,-4681,23,-339,-152,141
671,2156,5,-435,-4676,23,-340,-163,149
672,2163,-1,-422,-4683,23,-340,-144,139
673,2158,-2,-419,-4688,23,-336,-147,134
674,2157,5,-424,-4680,23,-349,-156,149
675,2159,-4,-435,-4684,23,-342,-149,147
676,2148,1,-426,-4682,23,-348,-156,136
677,2164,-3,-421,-4686,23,-346,-139,147
678,2155,10,-431,-4681,23,-350,-148,120
679,2156,4,-422,-4684,23,-354,-164,147
680,2156,0,-429,-4675,23,-354,-144,132
681,2156,6,-431,-4678,23,-355,-150,132
682,2157,-1,-430,-4689,23,-345,-145,130
683,2154,-8,-430,-4692,23,-361,-151,136
684,2157,2,-424,-4689,23,-341,-146,142
685,2157,3,-424,-4679,23,-340,-144,139
686,2162,-2,-427,-4687,23,-358,-135,134
687,2160,1,-421,-4682,23,-350,-153,137
688,2155,6,-427,-4680,23,-353,-145,142
689,2159,-2,-425,-4684,23,-346,-136,141
690,2163,-1,-426,-4686,23,-348,-154,139
691,2153,-5,-417,-4679,23,-362,-156,127
692,2157,1,-430,-4685,23,-350,-157,132
693,2163,-1,-428,-4679,23,-361,-154,147
694,2152,-4,-428,-4688,23,-351,-144,132
695,2156,0,-417,-4686,23,-353,-160,140
696,2160,1,-420,-4682,23,-344,-146,142
697,2159,-1,-427,-4676,23,-341,-148,139
698,2155,2,-436,-4687,23,-351,-154,149
699,2153,8,-418,-4688,23,-369,-144,143
700,2168,-3,-431,-4684,23,-352,-147,134
701,2153,0,-431,-4683,23,-347,-150,160
702,2154,-2,-414,-4681,23,-349,-146,143
703,2159,3,-426,-4685,23,-350,-147,144
704,2164,1,-446,-4690,23,-347,-141,128
705,2163,3,-416,-4676,23,-333,-159,141
706,2159,5,-431,-4678,23,-341,-165,133
707,2159,3,-422,-4691,23,-343,-146,130
708,2157,5,-429,-4687,23,-353,-155,138
709,2164,0,-425,-4683,23,-343,-146,138
710,2160,2,-433,-4698,23,-350,-146,133
711,2162,5,-416,-4680,23,-342,-160,154
712,2158,-8,-429,-4686,23,-338,-150,138
713,2159,0,-422,-4686,23,-352,-160,126
714,2156,2,-409,-4678,23,-341,-141,139
715,2159,1,-425,-4687,23,-350,-166,151
716,2157,2,-423,-4685,23,-347,-143,143
717,2160,-3,-420,-4683,23,-327,-164,144
718,2162,2,-421,-4678,23,-346,-156,140
719,2155,-1,-421,-4683,23,-350,-147,133
720,2162,-2,-430,-4680,23,-340,-150,133
721,2158,-2,-415,-4680,23,-336,-167,129
722,2166,1,-428,-4679,23,-352,-150,148
723,2155,-3,-426,-4685,23,-338,-153,141
724,2149,0,-437,-4675,23,-360,-136,123
725,2166,5,-426,-4681,23,-351,-159,148
726,2162,12,-418,-4682,23,-352,-157,115
727,2162,-2,-415,-4679,23,-347,-140,136
728,2161,-1,-425,-4678,23,-335,-136,143
729,2154,-2,-428,-4688,23,-343,-147,140
730,2153,1,-421,-4685,23,-341,-148,147
731,2157,3,-429,-4674,23,-330,-149,136
732,2165,-4,-414,-4680,23,-344,-169,150
733,2157,0,-429,-4680,23,-345,-151,158
734,2162,6,-433,-4688,23,-346,-148,140
735,2154,13,-429,-4688,23,-342,-150,141
736,2157,-3,-421,-4681,23,-346,-150,141
737,2153,-2,-416,-4689,23,-337,-140,147
738,2153,5,-424,-4692,23,-336,-152,133
739,2166,5,-426,-4679,23,-338,-156,145
740,2160,1,-437,-4671,23,-363,-148,131
741,2158,5,-424,-4686,23,-344,-139,144
742,2156,-7,-429,-4676,23,-352,-132,150
743,2154,3,-417,-4685,23,-348,-154,141
744,2159,4,-414,-4674,23,-344,-139,148
745,2155,2,-410,-4679,23,-343,-157,140
746,2161,4,-431,-4673,23,-347,-154,144
747,2157,1,-432,-4679,23,-353,-156,143
748,2153,4,-422,-4685,23,-352,-155,147
749,2163,0,-420,-4682,23,-346,-154,140
750,2154,-3,-428,-4678,23,-352,-156,124
751,2160,-5,-417,-4689,23,-341,-159,141
752,2158,3,-422,-4672,23,-341,-150,137
753,2152,7,-418,-4675,23,-351,-138,141
754,2164,-5,-429,-4687,23,-349,-148,148
755,2165,0,-432,-4695,23,-348,-144,145
756,2157,-9,-431,-4669,23,-344,-154,139
757,2159,7,-413,-4687,23,-345,-166,147
758,2158,2,-420,-4683,23,-346,-158,130
759,2158,1,-426,-4681,23,-337,-140,131
760,2155,-2,-414,-4678,23,-356,-137,135
761,2156,3,-425,-4683,23,-342,-142,147
762,2162,3,-423,-4683,23,-343,-149,138
763,2164,7,-429,-4684,23,-341,-159,142
764,2158,1,-426,-4680,23,-347,-151,139
765,2155,-5,-421,-4676,23,-355,-148,136
766,2163,5,-410,-4670,23,-346,-145,128
767,2161,-1,-424,-4678,23,-355,-160,134
768,2156,6,-417,-4683,23,-349,-154,132
769,2158,6,-435,-4686,23,-339,-142,142
770,2155,5,-419,-4675,23,-350,-139,152
771,2157,5,-414,-4686,23,-339,-131,147
772,2150,0,-424,-4681,23,-351,-138,155
773,2163,-2,-429,-4674,23,-343,-169,135
774,2157,6,-423,-4673,23,-345,-153,145
775,2155,-2,-429,-4688,23,-358,-151,145
776,2157,9,-418,-4675,23,-347,-165,147
777,2159,-1,-431,-4677,23,-353,-156,143
778,2160,2,-424,-4677,23,-355,-139,147
779,2163,1,-413,-4691,23,-344,-140,144
780,2158,-6,-423,-4682,23,-353,-144,143
781,2162,4,-434,-4680,23,-344,-149,140
782,2152,2,-415,-4681,23,-330,-145,150
783,2162,-3,-419,-4685,23,-349,-146,143
784,2164,2,-432,-4684,23,-343,-145,133
785,2167,0,-441,-4678,23,-349,-148,145
786,2155,-4,-418,-4680,23,-345,-156,134
787,2161,1,-416,-4678,23,-346,-164,145
788,2164,-7,-436,-4679,23,-345,-144,142
789,2166,2,-418,-4686,23,-348,-155,136
790,2164,1,-431,-4683,23,-336,-153,134
791,2160,1,-431,-4679,23,-343,-158,141
792,2165,-5,-426,-4687,23,-343,-151,137
793,2161,2,-415,-4692,23,-353,-155,145
794,2158,-4,-419,-4683,23,-336,-144,142
795,2162,-6,-426,-4683,23,-361,-144,142
796,2157,2,-418,-4682,23,-347,-160,147
797,2159,-4,-421,-4682,23,-329,-157,125
798,2150,1,-429,-4687,23,-350,-155,149
799,2159,6,-415,-4674,23,-354,-143,135
800,2166,-2,-416,-4689,23,-357,-152,141
801,2163,6,-424,-4675,23,-353,-153,140
802,2160,11,-428,-4685,23,-334,-138,144
803,2158,-11,-424,-4681,23,-339,-149,147
804,2167,3,-419,-4679,23,-343,-149,140
805,2155,-2,-432,-4682,23,-360,-155,145
806,2162,-1,-423,-4679,23,-349,-156,125
807,2154,3,-429,-4678,23,-358,-145,137
808,2155,0,-437,-4677,23,-349,-149,138
809,2158,-2,-421,-4682,23,-353,-148,138
810,2157,1,-428,-4675,23,-330,-149,139
811,2155,3,-426,-4688,23,-327,-138,130
812,2160,3,-415,-4684,23,-340,-137,135
813,2156,-2,-425,-4700,23,-345,-140,137
814,2160,4,-432,-4679,23,-361,-161,138
815,2161,-2,-421,-4682,23,-356,-151,142
816,2155,6,-432,-4681,23,-359,-169,134
817,2163,9,-416,-4674,23,-343,-136,148
818,2153,3,-423,-4680,23,-329,-153,149
819,2156,-3,-422,-4690,23,-344,-136,134
820,2164,0,-431,-4686,23,-343,-156,149
821,2167,-1,-423,-4675,23,-351,-162,151
822,2157,3,-428,-4677,23,-346,-155,133
823,2153,1,-423,-4679,23,-349,-140,150
824,2159,7,-430,-4685,23,-356,-148,142
825,2167,5,-423,-4677,23,-336,-158,148
826,2157,1,-427,-4673,23,-344,-145,135
827,2154,5,-419,-4668,23,-353,-153,139
828,2160,1,-432,-4674,23,-344,-150,147
829,2150,8,-421,-4687,23,-352,-143,139
830,2155,6,-414,-4683,23,-344,-149,127
831,2163,3,-421,-4684,23,-344,-149,128
832,2161,-2,-420,-4683,23,-347,-154,149
833,2158,3,-421,-4692,23,-332,-153,142
834,2160,9,-418,-4690,23,-355,-158,142
835,2159,-2,-427,-4692,23,-345,-142,145
836,2155,11,-421,-4680,23,-349,-160,143
837,2154,-4,-425,-4683,23,-338,-149,140
838,2151,4,-417,-4690,23,-333,-146,146
839,2155,3,-424,-4675,23,-347,-145,132
840,2154,-3,-423,-4687,23,-350,-145,141
841,2151,8,-426,-4676,23,-346,-158,145
842,2162,-2,-423,-4683,23,-349,-163,143
843,2169,-2,-425,-4682,23,-353,-157,131
844,2148,5,-434,-4687,23,-348,-151,133
845,2159,8,-429,-4680,23,-356,-153,141
846,2160,2,-428,-4688,23,-342,-152,139
847,2158,9,-419,-4692,23,-346,-171,152
848,2165,2,-436,-4672,23,-339,-152,140
849,2166,1,-422,-4687,23,-348,-146,145
850,2162,-3,-427,-4681,23,-345,-149,146
851,2159,1,-426,-4688,23,-334,-142,138
852,2165,-1,-423,-4687,23,-348,-147,141
853,2165,1,-423,-4668,23,-337,-147,131
854,2163,6,-412,-4690,23,-340,-142,148
855,2154,1,-423,-4676,23,-343,-153,137
856,2159,1,-419,-4691,23,-352,-165,127
857,2150,12,-421,-4684,23,-343,-146,159
858,2157,9,-425,-4687,23,-342,-147,141
859,2156,5,-425,-4683,23,-351,-140,137
860,2161,-3,-418,-4678,23,-352,-152,139
861,2152,5,-417,-4671,23,-356,-140,146
862,2157,-4,-430,-4677,23,-334,-154,136
863,2159,-3,-414,-4672,23,-352,-141,135
864,2154,7,-422,-4679,23,-355,-151,132
865,2160,3,-422,-4678,23,-336,-165,158
866,2165,5,-423,-4669,23,-334,-150,135
867,2158,-4,-427,-4681,23,-345,-145,153
868,2160,-6,-433,-4680,23,-347,-157,145
869,2158,2,-415,-4680,23,-348,-132,135
870,2159,-5,-426,-4683,23,-340,-140,148
871,2154,1,-421,-4685,23,-338,-158,139
872,2155,2,-423,-4691,23,-342,-143,135
873,2165,-1,-425,-4678,23,-327,-148,140
874,2164,2,-424,-4687,23,-361,-156,126
875,2156,-4,-429,-4676,23,-346,-153,136
876,2159,3,-423,-4675,23,-345,-135,136
877,2154,0,-419,-4682,23,-350,-136,141
878,2153,3,-430,-4675,23,-339,-147,140
879,2159,3,-441,-4679,23,-346,-145,156
880,2164,2,-418,-4677,23,-354,-127,145
881,2154,-2,-424,-4674,23,-342,-142,139
882,2158,6,-425,-4675,23,-332,-143,142
883,2155,7,-428,-4680,23,-345,-156,136
884,2156,1,-435,-4679,23,-359,-147,140
885,2158,13,-430,-4676,23,-332,-153,131
886,2165,0,-428,-4681,23,-339,-142,134
887,2158,-8,-426,-4673,23,-348,-151,146
888,2168,-7,-417,-4670,23,-347,-153,140
889,2165,8,-429,-4671,23,-348,-142,140
890,2160,1,-427,-4675,23,-356,-165,131
891,2156,5,-420,-4690,23,-341,-156,138
892,2154,6,-431,-4664,23,-361,-146,138
893,2160,1,-421,-4678,23,-348,-137,138
894,2156,-7,-425,-4677,23,-339,-147,139
895,2162,-3,-424,-4687,23,-341,-178,140
896,2165,-1,-419,-4671,23,-354,-151,135
897,2160,4,-428,-4690,23,-343,-163,135
898,2157,5,-418,-4679,23,-347,-160,138
899,2161,-5,-422,-4670,23,-339,-154,133
900,2156,-5,-434,-4674,23,-353,-136,144
901,2159,1,-428,-4690,23,-335,-156,139
902,2153,5,-420,-4674,23,-339,-155,134
903,2155,6,-431,-4672,23,-361,-150,145
904,2154,3,-425,-4683,23,-356,-142,131
905,2153,5,-421,-4679,23,-350,-156,151
906,2161,6,-429,-4676,23,-360,-151,148
907,2162,6,-421,-4681,23,-332,-146,142
908,2159,4,-415,-4689,23,-330,-143,137
909,2158,1,-428,-4667,23,-338,-153,137
910,2158,-1,-427,-4667,23,-345,-153,139
911,2159,-7,-415,-4682,23,-346,-137,133
912,2154,4,-423,-4672,23,-350,-149,146
913,2155,1,-421,-4679,23,-354,-152,146
914,2154,-6,-423,-4684,23,-356,-161,143
915,2157,-2,-425,-4676,23,-349,-148,142
916,2160,4,-417,-4677,23,-346,-170,138
917,2159,-4,-427,-4687,23,-346,-159,128
918,2160,2,-422,-4681,23,-343,-157,146
919,2160,4,-418,-4679,23,-346,-130,131
920,2156,-5,-420,-4675,23,-347,-131,145
921,2165,1,-432,-4684,23,-345,-145,148
922,2161,-2,-427,-4687,23,-349,-152,138
923,2160,-1,-426,-4677,23,-350,-151,130
924,2159,3,-419,-4683,23,-345,-146,131
925,2160,-3,-429,-4679,23,-337,-138,155
926,2155,3,-432,-4688,23,-342,-173,138
927,2154,3,-427,-4680,23,-355,-146,140
928,2163,-3,-427,-4672,23,-341,-143,135
929,2160,2,-434,-4680,23,-348,-166,131
930,2163,12,-431,-4687,23,-351,-148,141
931,2160,-1,-430,-4684,23,-356,-157,149
932,2154,-5,-423,-4686,23,-348,-142,152
933,2159,-1,-427,-4667,23,-351,-160,147
934,2154,4,-431,-4678,23,-340,-144,140
935,2162,5,-426,-4685,23,-340,-158,146
936,2162,-3,-427,-4674,23,-348,-144,149
937,2166,-1,-426,-4677,23,-350,-147,140
938,2155,6,-423,-4676,23,-341,-150,127
939,2161,5,-425,-4674,23,-334,-165,144
940,2163,2,-422,-4679,23,-345,-140,142
941,2155,4,-414,-4679,23,-352,-159,147
942,2169,0,-419,-4678,23,-359,-161,142
943,2161,3,-417,-4680,23,-340,-146,128
944,2166,1,-426,-4677,23,-347,-145,145
945,2160,3,-419,-4669,23,-346,-148,149
946,2157,2,-422,-4686,23,-344,-149,130
947,2160,-6,-425,-4685,23,-356,-147,130
948,2164,-1,-417,-4687,23,-348,-147,136
949,2164,-2,-422,-4675,23,-337,-155,147
950,2155,0,-420,-4665,23,-345,-144,145
951,2164,1,-421,-4677,23,-346,-147,146
952,2157,3,-421,-4672,23,-345,-148,127
953,2156,4,-417,-4673,23,-346,-157,137
954,2158,2,-432,-4667,23,-343,-155,141
955,2150,2,-422,-4676,23,-348,-162,139
956,2153,-3,-410,-4670,23,-345,-142,135
957,2165,4,-424,-4688,23,-349,-163,136
958,2163,-2,-423,-4672,23,-350,-154,133
959,2158,4,-427,-4688,23,-333,-143,153
960,2164,6,-428,-4681,23,-337,-165,136
961,2160,7,-417,-4690,23,-335,-142,141
962,2160,-3,-420,-4678,23,-349,-156,145
963,2161,-2,-415,-4667,23,-346,-151,128
964,2161,-1,-423,-4676,23,-343,-149,148
965,2164,7,-417,-4682,23,-342,-154,145
966,2154,3,-417,-4673,23,-332,-137,126
967,2160,1,-421,-4675,23,-348,-155,147
968,2151,-3,-419,-4671,23,-334,-158,143
969,2155,0,-432,-4666,23,-349,-160,139
970,2160,2,-419,-4681,23,-352,-158,143
971,2152,1,-426,-4673,23,-353,-155,143
972,2163,-3,-425,-4681,23,-362,-133,137
973,2157,-3,-435,-4677,23,-335,-160,146
974,2159,4,-425,-4676,23,-352,-165,129
975,2156,3,-422,-4674,23,-349,-138,131
976,2159,-2,-428,-4686,23,-344,-152,136
977,2157,2,-415,-4677,23,-343,-141,131
978,2161,3,-423,-4683,23,-344,-138,144
979,2156,-2,-431,-4679,23,-340,-143,157
980,2160,2,-427,-4678,23,-349,-145,133
981,2156,4,-432,-4683,23,-353,-153,145
982,2162,-4,-424,-4677,23,-343,-147,129
983,2155,-1,-424,-4685,23,-343,-141,140
984,2158,-2,-425,-4675,23,-361,-152,141
985,2159,13,-428,-4677,23,-341,-161,140
986,2160,3,-426,-4669,23,-339,-158,145
987,2161,-1,-431,-4668,23,-341,-150,129
988,2167,9,-420,-4681,23,-349,-152,128
989,2161,2,-433,-4680,23,-346,-146,141
990,2157,4,-423,-4680,23,-352,-136,128
991,2165,-1,-423,-4671,23,-345,-149,138
992,2157,-1,-415,-4683,23,-336,-160,144
993,2154,2,-429,-4682,23,-348,-133,145
994,2162,4,-420,-4676,23,-345,-148,153
995,2150,10,-418,-4672,23,-346,-150,138
996,2162,2,-424,-4680,23,-345,-156,153
997,2157,4,-422,-4675,23,-340,-154,148
998,2155,-3,-439,-4667,23,-348,-148,136
