,acc_X,acc_Y,acc_Z,temp,tempC,gyr_X,gyr_Y,gyr_Z
0,8635,8,-1695,-4663,23,-348,-152,143
1,8638,6,-1695,-4662,23,-347,-150,143
2,8642,10,-1695,-4662,23,-346,-149,141
3,8638,7,-1694,-4663,23,-346,-150,140
4,8637,8,-1691,-4661,23,-346,-149,140
5,8640,6,-1687,-4664,23,-344,-147,139
6,8639,4,-1686,-4665,23,-345,-149,139
7,8637,4,-1690,-4665,23,-346,-149,139
8,8638,9,-1697,-4662,23,-348,-151,136
9,8638,5,-1696,-4663,23,-349,-150,138
10,8641,7,-1693,-4660,23,-348,-150,137
11,8644,1,-1694,-4661,23,-347,-151,138
12,8644,1,-1694,-4662,23,-349,-151,140
13,8642,2,-1694,-4662,23,-349,-151,141
14,8639,0,-1697,-4662,23,-349,-151,140
15,8636,3,-1697,-4662,23,-350,-150,140
16,8632,1,-1696,-4661,23,-345,-152,141
17,8631,0,-1701,-4661,23,-347,-152,141
18,8629,-2,-1696,-4661,23,-346,-153,141
19,8633,-2,-1691,-4661,23,-346,-152,140
20,8638,2,-1688,-4662,23,-347,-152,142
21,8638,4,-1695,-4660,23,-345,-151,141
22,8637,8,-1698,-4661,23,-346,-151,140
23,8636,12,-1697,-4662,23,-346,-150,140
24,8636,10,-1692,-4663,23,-346,-149,139
25,8636,5,-1689,-4663,23,-346,-150,142
26,8638,9,-1689,-4663,23,-344,-153,143
27,8634,5,-1691,-4663,23,-343,-150,141
28,8631,6,-1688,-4663,23,-345,-150,140
29,8633,5,-1692,-4664,23,-345,-151,140
30,8632,7,-1700,-4662,23,-342,-150,140
31,8634,6,-1700,-4662,23,-343,-152,141
32,8634,7,-1707,-4663,23,-346,-151,142
33,8637,9,-1694,-4661,23,-346,-150,141
34,8638,9,-1695,-4660,23,-348,-150,141
35,8637,9,-1700,-4658,23,-350,-149,140
36,8631,13,-1699,-4659,23,-349,-149,139
37,8633,10,-1695,-4662,23,-347,-150,138
38,8636,9,-1696,-4662,23,-347,-150,139
39,8637,5,-1698,-4661,23,-346,-151,139
40,8641,6,-1696,-4660,23,-344,-151,139
41,8644,3,-1700,-4660,23,-346,-151,138
42,8641,5,-1699,-4659,23,-344,-149,141
43,8636,4,-1700,-4660,23,-344,-147,140
44,8637,4,-1696,-4660,23,-346,-149,141
45,8632,7,-1693,-4659,23,-347,-150,142
46,8635,9,-1697,-4659,23,-347,-151,144
47,8634,11,-1696,-4661,23,-346,-150,142
48,8633,6,-1701,-4661,23,-347,-149,141
49,8632,8,-1701,-4660,23,-348,-150,143
50,8628,5,-1702,-4659,23,-349,-149,142
51,8628,8,-1698,-4658,23,-351,-148,141
52,8629,10,-1697,-4659,23,-349,-147,142
53,8637,11,-1699,-4661,23,-349,-149,141
54,8640,6,-1706,-4662,23,-351,-150,142
55,8641,6,-1702,-4661,23,-350,-147,141
56,8638,10,-1693,-4662,23,-348,-150,139
57,8637,4,-1685,-4663,23,-347,-151,140
58,8636,7,-1693,-4664,23,-348,-153,141
59,8637,4,-1694,-4663,23,-349,-155,141
60,8637,4,-1696,-4662,23,-348,-155,141
61,8640,4,-1694,-4662,23,-350,-154,140
62,8641,5,-1695,-4662,23,-349,-153,138
63,8637,7,-1689,-4661,23,-348,-152,138
64,8638,7,-1693,-4660,23,-346,-150,141
65,8643,11,-1695,-4660,23,-345,-150,140
66,8645,11,-1686,-4660,23,-344,-150,141
67,8642,10,-1697,-4662,23,-343,-150,142
68,8636,7,-1697,-4664,23,-343,-150,143
69,8640,5,-1698,-4663,23,-341,-150,141
70,8645,5,-1702,-4662,23,-343,-153,141
71,8646,5,-1707,-4663,23,-341,-153,140
72,8642,6,-1703,-4663,23,-344,-152,140
73,8644,4,-1704,-4664,23,-345,-150,139
74,8638,1,-1710,-4665,23,-346,-150,140
75,8637,2,-1701,-4665,23,-346,-149,139
76,8638,2,-1700,-4665,23,-348,-149,140
77,8641,2,-1703,-4665,23,-348,-151,140
78,8638,7,-1698,-4665,23,-344,-151,139
79,8641,7,-1701,-4665,23,-344,-149,139
80,8635,3,-1700,-4663,23,-346,-148,140
81,8638,5,-1701,-4662,23,-347,-150,139
82,8639,4,-1700,-4661,23,-345,-150,137
83,8645,0,-1702,-4661,23,-345,-152,137
84,8643,-1,-1710,-4662,23,-344,-152,138
85,8640,5,-1703,-4663,23,-345,-151,136
86,8642,7,-1704,-4663,23,-346,-150,136
87,8641,-1,-1706,-4664,23,-348,-150,138
88,8638,3,-1701,-4664,23,-348,-151,139
89,8639,6,-1704,-4664,23,-344,-152,137
90,8645,9,-1703,-4664,23,-343,-154,139
91,8649,9,-1700,-4663,23,-344,-155,140
92,8651,2,-1703,-4663,23,-343,-154,139
93,8648,1,-1704,-4663,23,-344,-154,139
94,8645,2,-1698,-4664,23,-345,-153,139
95,8642,0,-1689,-4663,23,-345,-153,139
96,8646,2,-1694,-4663,23,-344,-155,140
97,8640,6,-1696,-4662,23,-345,-153,140
98,8640,4,-1698,-4662,23,-345,-151,139
99,8640,2,-1695,-4662,23,-346,-150,139
100,8641,2,-1702,-4661,23,-346,-151,139
101,8642,1,-1708,-4659,23,-347,-152,141
102,8641,0,-1706,-4658,23,-347,-151,141
103,8636,4,-1704,-4658,23,-346,-152,139
104,8638,7,-1705,-4660,23,-347,-151,139
105,8640,7,-1693,-4659,23,-344,-154,140
106,8638,10,-1696,-4660,23,-346,-151,141
107,8641,1,-1692,-4661,23,-346,-153,140
108,8640,0,-1696,-4662,23,-348,-156,140
109,8638,2,-1698,-4662,23,-348,-157,141
110,8637,-1,-1693,-4660,23,-347,-158,139
111,8636,0,-1685,-4660,23,-347,-155,138
112,8633,5,-1690,-4660,23,-349,-155,135
113,8630,7,-1700,-4660,23,-346,-156,137
114,8635,6,-1698,-4661,23,-347,-155,138
115,8633,2,-1695,-4661,23,-346,-154,138
116,8633,3,-1694,-4662,23,-347,-155,138
117,8635,0,-1691,-4663,23,-346,-157,137
118,8635,3,-1697,-4663,23,-343,-155,138
119,8633,8,-1695,-4663,23,-343,-155,140
120,8635,10,-1698,-4662,23,-343,-153,137
121,8637,8,-1703,-4663,23,-344,-150,140
122,8631,5,-1699,-4663,23,-345,-150,141
123,8633,10,-1694,-4662,23,-346,-150,143
124,8641,6,-1699,-4663,23,-346,-149,142
125,8637,6,-1699,-4663,23,-346,-150,140
126,8638,8,-1702,-4662,23,-345,-148,140
127,8630,6,-1701,-4663,23,-347,-150,140
128,8632,6,-1698,-4662,23,-346,-151,139
129,8629,9,-1695,-4661,23,-346,-152,141
130,8634,7,-1705,-4660,23,-348,-152,141
131,8634,5,-1699,-4659,23,-349,-151,140
132,8634,7,-1701,-4658,23,-349,-150,140
133,8634,6,-1705,-4658,23,-351,-153,140
134,8640,3,-1703,-4658,23,-348,-151,138
135,8640,-1,-1701,-4660,23,-349,-150,139
136,8641,-6,-1706,-4658,23,-346,-150,139
137,8639,-4,-1696,-4658,23,-347,-151,140
138,8639,-8,-1692,-4659,23,-349,-152,140
139,8638,-4,-1697,-4661,23,-349,-151,142
140,8637,0,-1697,-4660,23,-350,-150,140
141,8637,-3,-1690,-4660,23,-351,-151,141
142,8634,-4,-1685,-4661,23,-352,-153,140
143,8634,-2,-1695,-4660,23,-351,-154,139
144,8632,6,-1696,-4660,23,-351,-156,140
145,8633,12,-1696,-4660,23,-350,-153,140
146,8627,14,-1702,-4658,23,-350,-154,142
147,8629,7,-1706,-4659,23,-349,-152,141
148,8630,2,-1708,-4661,23,-350,-149,141
149,8636,2,-1700,-4661,23,-349,-150,141
150,8639,3,-1700,-4662,23,-349,-150,142
151,8635,6,-1693,-4662,23,-350,-152,143
152,8633,8,-1688,-4663,23,-351,-153,143
153,8632,7,-1691,-4664,23,-352,-150,142
154,8634,6,-1690,-4663,23,-350,-150,141
155,8631,6,-1692,-4665,23,-347,-153,141
156,8635,7,-1685,-4664,23,-348,-154,139
157,8634,3,-1685,-4663,23,-350,-152,140
158,8636,1,-1694,-4665,23,-349,-152,138
159,8639,4,-1700,-4664,23,-348,-152,138
160,8642,4,-1700,-4664,23,-348,-152,140
161,8642,12,-1695,-4663,23,-349,-150,140
162,8645,7,-1695,-4663,23,-350,-153,141
163,8648,2,-1689,-4661,23,-351,-152,140
164,8649,4,-1694,-4660,23,-349,-151,139
165,8648,0,-1692,-4661,23,-348,-149,138
166,8644,4,-1687,-4662,23,-349,-149,137
167,8643,4,-1688,-4663,23,-348,-152,137
168,8645,4,-1687,-4663,23,-348,-153,137
169,8639,3,-1690,-4664,23,-348,-153,137
170,8641,-1,-1700,-4663,23,-347,-152,138
171,8638,4,-1700,-4662,23,-347,-150,139
172,8639,7,-1698,-4662,23,-346,-150,139
173,8639,5,-1693,-4662,23,-349,-150,139
174,8639,4,-1693,-4661,23,-349,-152,140
175,8635,5,-1695,-4662,23,-351,-153,139
176,8635,9,-1698,-4661,23,-346,-153,140
177,8644,9,-1698,-4660,23,-346,-152,142
178,8643,7,-1695,-4661,23,-347,-152,142
179,8643,4,-1697,-4661,23,-347,-150,141
180,8646,5,-1704,-4661,23,-347,-152,140
181,8647,2,-1700,-4660,23,-349,-151,141
182,8641,4,-1701,-4658,23,-351,-150,142
183,8642,8,-1703,-4658,23,-350,-151,142
184,8643,4,-1697,-4659,23,-348,-151,141
185,8638,3,-1702,-4661,23,-346,-151,141
186,8641,2,-1702,-4660,23,-347,-150,143
187,8640,5,-1699,-4658,23,-348,-150,143
188,8643,1,-1694,-4657,23,-347,-150,144
189,8642,2,-1696,-4657,23,-348,-150,141
190,8643,5,-1697,-4657,23,-349,-149,140
191,8636,8,-1706,-4656,23,-348,-151,141
192,8632,7,-1706,-4657,23,-346,-152,141
193,8636,9,-1702,-4657,23,-347,-152,140
194,8634,7,-1707,-4656,23,-347,-152,141
195,8634,9,-1703,-4658,23,-347,-150,141
196,8632,9,-1701,-4660,23,-349,-151,141
197,8630,9,-1696,-4660,23,-346,-151,140
198,8631,11,-1698,-4660,23,-345,-152,141
199,8630,12,-1695,-4661,23,-348,-151,143
200,8629,9,-1694,-4662,23,-348,-153,141
201,8629,10,-1700,-4662,23,-348,-154,140
202,8636,8,-1696,-4662,23,-347,-152,141
203,8640,5,-1696,-4660,23,-346,-152,140
204,8642,6,-1701,-4660,23,-346,-152,138
205,8642,7,-1695,-4659,23,-344,-153,138
206,8634,8,-1691,-4659,23,-343,-151,139
207,8627,8,-1692,-4656,23,-345,-152,140
208,8631,7,-1693,-4657,23,-345,-151,141
209,8637,3,-1694,-4659,23,-346,-151,140
210,8637,3,-1690,-4659,23,-347,-150,139
211,8640,2,-1692,-4660,23,-347,-152,138
212,8639,3,-1695,-4658,23,-346,-151,139
213,8641,7,-1697,-4658,23,-344,-152,143
214,8642,10,-1703,-4659,23,-344,-152,141
215,8639,9,-1698,-4658,23,-346,-153,142
216,8638,9,-1692,-4658,23,-345,-153,141
217,8639,11,-1690,-4658,23,-346,-152,140
218,8637,5,-1695,-4657,23,-345,-151,140
219,8638,6,-1704,-4656,23,-345,-150,141
220,8639,10,-1707,-4656,23,-347,-151,142
221,8641,10,-1707,-4657,23,-345,-149,141
222,8644,7,-1708,-4658,23,-344,-148,142
223,8643,4,-1703,-4658,23,-345,-147,143
224,8647,0,-1698,-4659,23,-346,-147,141
225,8643,-1,-1700,-4659,23,-347,-148,140
226,8640,-1,-1695,-4660,23,-346,-149,141
227,8638,0,-1699,-4661,23,-347,-149,144
228,8636,-2,-1695,-4660,23,-348,-149,143
229,8640,-3,-1695,-4659,23,-349,-150,143
230,8645,0,-1687,-4657,23,-348,-151,142
231,8645,-1,-1688,-4656,23,-349,-148,143
232,8645,0,-1684,-4656,23,-350,-149,141
233,8644,0,-1686,-4656,23,-347,-150,140
234,8643,5,-1685,-4657,23,-346,-152,139
235,8637,8,-1684,-4657,23,-348,-152,138
236,8640,5,-1688,-4658,23,-348,-151,138
237,8641,3,-1696,-4658,23,-347,-152,140
238,8642,1,-1700,-4659,23,-347,-151,141
239,8640,3,-1698,-4659,23,-346,-149,140
240,8638,5,-1700,-4658,23,-347,-149,140
241,8635,1,-1699,-4657,23,-346,-148,140
242,8637,-2,-1701,-4660,23,-347,-147,141
243,8640,-1,-1694,-4660,23,-348,-150,140
244,8644,0,-1686,-4661,23,-349,-150,140
245,8645,-1,-1687,-4660,23,-350,-151,140
246,8645,-2,-1686,-4660,23,-351,-152,141
247,8645,-1,-1686,-4660,23,-350,-154,141
248,8640,-1,-1685,-4659,23,-351,-153,142
249,8639,1,-1685,-4659,23,-351,-153,141
250,8636,-2,-1689,-4658,23,-351,-153,141
251,8637,-2,-1700,-4657,23,-350,-153,141
252,8635,2,-1698,-4657,23,-350,-154,139
253,8633,0,-1701,-4658,23,-350,-153,139
254,8633,4,-1705,-4658,23,-350,-153,136
255,8635,6,-1703,-4657,23,-350,-152,137
256,8641,7,-1703,-4657,23,-350,-148,138
257,8642,3,-1700,-4656,23,-348,-149,141
258,8644,3,-1710,-4655,23,-349,-150,142
259,8647,1,-1709,-4657,23,-346,-151,143
260,8644,-3,-1711,-4658,23,-346,-150,143
261,8643,0,-1705,-4660,23,-347,-150,142
262,8646,-2,-1701,-4660,23,-349,-150,141
263,8642,-3,-1695,-4660,23,-349,-149,141
264,8640,3,-1698,-4660,23,-349,-151,141
265,8640,7,-1697,-4660,23,-349,-150,138
266,8644,3,-1696,-4660,23,-351,-147,138
267,8645,3,-1697,-4658,23,-349,-150,137
268,8645,5,-1698,-4659,23,-349,-152,138
269,8640,5,-1694,-4658,23,-347,-150,139
270,8643,9,-1701,-4657,23,-346,-151,140
271,8645,11,-1710,-4658,23,-346,-151,140
272,8640,14,-1714,-4658,23,-345,-151,139
273,8637,9,-1708,-4657,23,-347,-152,140
274,8632,10,-1707,-4658,23,-349,-154,139
275,8631,9,-1708,-4658,23,-346,-154,137
276,8630,6,-1698,-4659,23,-346,-153,138
277,8631,6,-1696,-4658,23,-347,-151,139
278,8631,6,-1699,-4658,23,-345,-152,140
279,8635,9,-1697,-4660,23,-346,-153,140
280,8632,10,-1699,-4660,23,-345,-154,139
281,8631,10,-1701,-4661,23,-346,-156,141
282,8631,9,-1707,-4661,23,-344,-152,141
283,8628,14,-1705,-4660,23,-344,-152,142
284,8632,10,-1703,-4660,23,-346,-152,142
285,8635,7,-1694,-4662,23,-346,-153,141
286,8633,5,-1692,-4661,23,-346,-152,139
287,8631,5,-1697,-4660,23,-347,-150,140
288,8631,4,-1696,-4661,23,-345,-149,142
289,8631,4,-1690,-4660,23,-346,-149,142
290,8636,4,-1683,-4661,23,-347,-149,144
291,8636,5,-1688,-4661,23,-347,-150,141
292,8633,10,-1697,-4662,23,-346,-151,141
293,8639,9,-1697,-4661,23,-344,-155,142
294,8640,8,-1698,-4664,23,-346,-154,140
295,8636,6,-1706,-4665,23,-346,-155,138
296,8630,3,-1700,-4663,23,-346,-153,140
297,8634,5,-1698,-4663,23,-344,-153,142
298,8637,5,-1700,-4663,23,-345,-151,141
299,8638,2,-1704,-4662,23,-347,-152,140
300,8641,5,-1709,-4662,23,-347,-153,139
301,8639,12,-1703,-4662,23,-348,-151,142
302,8643,12,-1703,-4663,23,-347,-152,141
303,8643,12,-1700,-4663,23,-348,-152,142
304,8644,10,-1693,-4662,23,-349,-148,142
305,8641,5,-1690,-4661,23,-349,-148,139
306,8640,1,-1688,-4662,23,-351,-148,138
307,8643,5,-1692,-4661,23,-348,-149,136
308,8636,4,-1686,-4661,23,-349,-148,137
309,8638,5,-1690,-4661,23,-351,-148,139
310,8636,9,-1690,-4660,23,-349,-150,139
311,8638,12,-1684,-4662,23,-347,-151,139
312,8637,13,-1697,-4663,23,-346,-155,141
313,8637,11,-1700,-4662,23,-346,-153,141
314,8640,10,-1700,-4661,23,-346,-153,141
315,8638,8,-1691,-4661,23,-346,-153,139
316,8637,4,-1691,-4659,23,-347,-152,140
317,8641,7,-1691,-4658,23,-346,-152,139
318,8642,4,-1691,-4659,23,-345,-151,140
319,8642,4,-1694,-4659,23,-343,-155,138
320,8642,6,-1689,-4659,23,-346,-152,138
321,8644,8,-1685,-4658,23,-346,-153,141
322,8645,6,-1690,-4659,23,-346,-153,140
323,8649,7,-1692,-4660,23,-347,-153,140
324,8646,3,-1697,-4661,23,-346,-154,140
325,8642,1,-1696,-4661,23,-346,-151,141
326,8636,0,-1694,-4661,23,-347,-149,142
327,8636,2,-1693,-4660,23,-348,-151,144
328,8637,3,-1704,-4659,23,-348,-151,142
329,8639,9,-1702,-4659,23,-348,-152,143
330,8638,12,-1697,-4660,23,-348,-153,141
331,8637,11,-1697,-4660,23,-347,-153,140
332,8639,4,-1685,-4661,23,-348,-153,139
333,8636,5,-1694,-4661,23,-350,-153,139
334,8638,5,-1694,-4660,23,-347,-151,139
335,8635,8,-1692,-4660,23,-343,-153,139
336,8637,7,-1688,-4661,23,-343,-153,140
337,8640,6,-1690,-4662,23,-343,-154,141
338,8644,7,-1687,-4662,23,-343,-152,138
339,8642,7,-1687,-4661,23,-344,-149,138
340,8642,-1,-1689,-4663,23,-344,-150,138
341,8642,-5,-1693,-4663,23,-346,-149,138
342,8641,-5,-1696,-4662,23,-347,-150,139
343,8640,-6,-1694,-4661,23,-348,-148,139
344,8644,-4,-1694,-4662,23,-346,-148,140
345,8643,-1,-1688,-4659,23,-344,-148,140
346,8638,3,-1688,-4657,23,-345,-151,140
347,8637,10,-1686,-4657,23,-346,-149,141
348,8639,12,-1683,-4657,23,-348,-146,143
349,8639,10,-1686,-4657,23,-347,-148,145
350,8642,15,-1684,-4659,23,-347,-149,146
351,8644,4,-1681,-4661,23,-345,-151,146
352,8640,6,-1686,-4662,23,-347,-151,144
353,8639,3,-1683,-4662,23,-346,-149,142
354,8638,-1,-1685,-4661,23,-346,-150,141
355,8634,4,-1676,-4658,23,-349,-149,140
356,8639,7,-1684,-4657,23,-346,-150,140
357,8637,6,-1688,-4660,23,-349,-150,139
358,8638,3,-1691,-4661,23,-346,-150,141
359,8634,6,-1692,-4661,23,-349,-151,141
360,8636,8,-1700,-4662,23,-349,-150,141
361,8636,10,-1699,-4661,23,-348,-153,142
362,8635,6,-1696,-4660,23,-348,-155,141
363,8636,10,-1692,-4660,23,-348,-154,143
364,8639,8,-1686,-4660,23,-348,-153,144
365,8637,6,-1689,-4660,23,-347,-153,143
366,8635,5,-1688,-4659,23,-348,-154,143
367,8636,6,-1690,-4659,23,-348,-152,143
368,8637,6,-1687,-4658,23,-349,-155,143
369,8637,7,-1680,-4658,23,-349,-152,144
370,8635,2,-1683,-4657,23,-350,-152,142
371,8634,-2,-1680,-4659,23,-349,-154,142
372,8630,2,-1681,-4659,23,-350,-156,140
373,8629,-4,-1683,-4659,23,-352,-155,139
374,8634,1,-1688,-4657,23,-350,-154,140
375,8631,3,-1687,-4658,23,-348,-151,141
376,8634,6,-1692,-4657,23,-349,-150,140
377,8633,7,-1688,-4658,23,-349,-150,142
378,8638,3,-1687,-4659,23,-347,-150,144
379,8637,3,-1686,-4659,23,-348,-155,142
380,8636,4,-1685,-4660,23,-349,-156,142
381,8637,3,-1682,-4661,23,-348,-153,141
382,8639,0,-1681,-4663,23,-347,-155,140
383,8640,-1,-1688,-4662,23,-348,-153,139
384,8636,-1,-1694,-4662,23,-347,-152,139
385,8637,0,-1696,-4662,23,-344,-155,138
386,8635,5,-1700,-4663,23,-346,-156,137
387,8632,6,-1702,-4662,23,-344,-156,137
388,8635,8,-1694,-4660,23,-344,-154,139
389,8638,11,-1689,-4658,23,-345,-154,139
390,8635,11,-1688,-4659,23,-344,-154,140
391,8632,6,-1695,-4659,23,-346,-155,140
392,8635,4,-1695,-4661,23,-347,-153,141
393,8633,9,-1692,-4659,23,-346,-152,141
394,8636,8,-1690,-4660,23,-345,-150,141
395,8639,11,-1693,-4660,23,-344,-153,141
396,8640,8,-1694,-4660,23,-344,-151,139
397,8639,9,-1691,-4660,23,-342,-152,140
398,8638,7,-1693,-4660,23,-342,-153,138
399,8641,8,-1698,-4661,23,-346,-153,138
400,8638,6,-1701,-4662,23,-345,-151,141
401,8638,8,-1699,-4662,23,-347,-153,140
402,8634,6,-1702,-4661,23,-347,-153,139
403,8632,5,-1698,-4659,23,-347,-152,138
404,8633,9,-1698,-4659,23,-347,-152,138
405,8634,8,-1704,-4657,23,-346,-151,140
406,8635,8,-1701,-4656,23,-346,-151,140
407,8632,8,-1702,-4657,23,-345,-152,143
408,8631,4,-1701,-4655,23,-346,-151,143
409,8634,5,-1701,-4656,23,-346,-153,141
410,8636,6,-1699,-4658,23,-345,-153,141
411,8636,5,-1696,-4657,23,-346,-154,142
412,8636,4,-1693,-4658,23,-345,-153,142
413,8639,2,-1688,-4660,23,-348,-152,142
414,8641,2,-1694,-4660,23,-349,-152,142
415,8645,7,-1699,-4659,23,-347,-151,140
416,8643,7,-1699,-4657,23,-348,-149,139
417,8641,7,-1708,-4659,23,-347,-149,140
418,8636,7,-1712,-4659,23,-346,-150,142
419,8636,10,-1712,-4658,23,-348,-150,141
420,8633,14,-1707,-4658,23,-349,-149,141
421,8633,12,-1702,-4658,23,-346,-148,139
422,8633,16,-1702,-4655,23,-346,-150,139
423,8637,9,-1698,-4655,23,-345,-151,142
424,8635,9,-1703,-4656,23,-344,-151,141
425,8633,3,-1699,-4656,23,-346,-151,140
426,8637,1,-1699,-4655,23,-345,-151,139
427,8639,1,-1691,-4656,23,-343,-152,140
428,8636,2,-1692,-4659,23,-344,-151,136
429,8637,3,-1691,-4662,23,-347,-150,138
430,8637,3,-1690,-4663,23,-347,-153,138
431,8637,0,-1686,-4662,23,-347,-153,138
432,8638,2,-1690,-4660,23,-346,-155,138
433,8635,4,-1701,-4660,23,-348,-155,137
434,8640,5,-1708,-4660,23,-348,-153,139
435,8639,4,-1702,-4659,23,-347,-153,138
436,8642,6,-1702,-4660,23,-348,-153,137
437,8641,4,-1696,-4660,23,-348,-154,137
438,8638,2,-1696,-4662,23,-349,-154,138
439,8635,1,-1702,-4663,23,-350,-152,138
440,8638,4,-1698,-4662,23,-349,-152,139
441,8631,8,-1699,-4663,23,-351,-153,140
442,8635,11,-1699,-4663,23,-351,-153,142
443,8637,11,-1694,-4662,23,-348,-152,142
444,8637,10,-1698,-4661,23,-348,-154,142
445,8637,16,-1704,-4659,23,-348,-155,141
446,8642,11,-1706,-4659,23,-349,-154,144
447,8643,10,-1701,-4657,23,-348,-154,141
448,8642,6,-1707,-4656,23,-350,-154,141
449,8639,8,-1699,-4655,23,-349,-153,140
450,8640,5,-1699,-4654,23,-348,-153,140
451,8642,1,-1702,-4655,23,-348,-154,140
452,8639,4,-1706,-4656,23,-348,-153,140
453,8648,3,-1699,-4655,23,-347,-154,139
454,8648,4,-1702,-4655,23,-348,-153,141
455,8641,2,-1701,-4657,23,-348,-149,142
456,8641,3,-1698,-4658,23,-349,-149,141
457,8637,3,-1697,-4658,23,-350,-151,141
458,8631,4,-1696,-4656,23,-349,-152,140
459,8628,4,-1698,-4657,23,-347,-153,139
460,8629,0,-1698,-4656,23,-348,-153,141
461,8635,3,-1700,-4656,23,-349,-154,141
462,8636,2,-1696,-4656,23,-349,-151,141
463,8637,3,-1697,-4656,23,-349,-151,140
464,8637,0,-1701,-4655,23,-348,-149,140
465,8638,-1,-1693,-4655,23,-347,-148,141
466,8639,-5,-1693,-4656,23,-347,-148,142
467,8641,-5,-1696,-4657,23,-347,-152,140
468,8637,-2,-1699,-4656,23,-346,-150,141
469,8644,1,-1694,-4656,23,-348,-149,142
470,8644,3,-1685,-4656,23,-347,-149,142
471,8640,5,-1687,-4656,23,-348,-149,143
472,8643,6,-1691,-4657,23,-348,-149,143
473,8645,5,-1688,-4656,23,-349,-148,145
474,8637,6,-1687,-4657,23,-349,-148,143
475,8637,5,-1687,-4658,23,-349,-150,140
476,8639,6,-1688,-4659,23,-349,-149,142
477,8642,10,-1686,-4658,23,-349,-151,143
478,8646,10,-1688,-4656,23,-349,-150,143
479,8647,11,-1692,-4655,23,-349,-150,141
480,8643,11,-1698,-4656,23,-345,-152,141
481,8640,10,-1694,-4656,23,-347,-152,140
482,8642,8,-1696,-4657,23,-345,-152,141
483,8638,9,-1693,-4657,23,-345,-151,141
484,8632,16,-1695,-4656,23,-347,-151,142
485,8632,13,-1686,-4658,23,-345,-149,141
486,8634,9,-1688,-4657,23,-345,-150,144
487,8632,7,-1692,-4658,23,-347,-149,144
488,8639,9,-1699,-4656,23,-348,-149,142
489,8639,11,-1693,-4656,23,-349,-150,141
490,8638,14,-1692,-4657,23,-349,-150,139
491,8637,15,-1701,-4658,23,-350,-152,139
492,8638,16,-1698,-4658,23,-350,-151,139
493,8641,11,-1695,-4658,23,-347,-149,141
494,8637,12,-1699,-4658,23,-346,-151,140
495,8639,10,-1702,-4657,23,-346,-149,139
496,8642,12,-1703,-4657,23,-346,-151,140
497,8640,9,-1704,-4657,23,-349,-150,138
498,8636,7,-1701,-4657,23,-349,-151,139
499,8634,9,-1702,-4656,23,-349,-152,141
500,8634,5,-1701,-4657,23,-349,-151,141
501,8636,8,-1700,-4659,23,-347,-151,142
502,8631,7,-1692,-4657,23,-348,-151,139
503,8635,5,-1700,-4656,23,-345,-150,137
504,8635,9,-1700,-4657,23,-347,-152,138
505,8639,9,-1703,-4657,23,-346,-151,139
506,8642,9,-1703,-4656,23,-347,-151,138
507,8636,3,-1698,-4657,23,-346,-153,138
508,8641,6,-1692,-4657,23,-346,-153,138
509,8639,2,-1698,-4656,23,-345,-153,138
510,8641,-6,-1698,-4658,23,-348,-153,138
511,8639,-5,-1694,-4656,23,-344,-151,137
512,8640,-4,-1698,-4657,23,-346,-156,137
513,8639,2,-1699,-4657,23,-346,-156,135
514,8640,4,-1704,-4659,23,-347,-153,134
515,8641,3,-1704,-4659,23,-346,-153,136
516,8640,9,-1698,-4660,23,-346,-155,137
517,8638,10,-1697,-4659,23,-348,-152,137
518,8632,12,-1694,-4658,23,-345,-152,136
519,8631,7,-1697,-4657,23,-346,-152,137
520,8629,11,-1695,-4656,23,-346,-152,138
521,8629,12,-1693,-4656,23,-344,-151,137
522,8629,5,-1694,-4656,23,-344,-149,139
523,8631,7,-1698,-4658,23,-345,-150,139
524,8634,9,-1708,-4657,23,-347,-149,138
525,8639,10,-1706,-4656,23,-347,-148,138
526,8642,13,-1697,-4655,23,-348,-149,141
527,8643,14,-1697,-4658,23,-348,-150,142
528,8641,16,-1698,-4658,23,-347,-151,142
529,8640,14,-1697,-4656,23,-345,-153,142
530,8642,15,-1700,-4656,23,-343,-152,143
531,8639,12,-1694,-4655,23,-344,-151,142
532,8643,8,-1692,-4655,23,-346,-152,141
533,8641,1,-1695,-4654,23,-346,-155,142
534,8640,4,-1692,-4654,23,-346,-154,142
535,8637,5,-1689,-4655,23,-347,-150,138
536,8635,7,-1689,-4655,23,-350,-150,138
537,8638,7,-1694,-4656,23,-350,-150,138
538,8641,5,-1703,-4656,23,-348,-151,137
539,8640,5,-1705,-4656,23,-350,-151,140
540,8638,1,-1705,-4656,23,-347,-151,139
541,8639,-1,-1712,-4656,23,-348,-152,141
542,8637,1,-1709,-4655,23,-349,-152,142
543,8630,3,-1702,-4655,23,-350,-151,142
544,8630,6,-1705,-4656,23,-351,-151,139
545,8632,9,-1705,-4656,23,-351,-154,139
546,8632,7,-1697,-4656,23,-349,-153,138
547,8630,3,-1698,-4656,23,-350,-152,140
548,8633,1,-1703,-4655,23,-349,-149,140
549,8635,1,-1704,-4654,23,-350,-150,141
550,8633,-3,-1700,-4656,23,-351,-149,142
551,8634,1,-1690,-4656,23,-350,-149,142
552,8640,3,-1686,-4654,23,-349,-149,141
553,8644,3,-1690,-4654,23,-349,-149,140
554,8641,0,-1689,-4655,23,-349,-148,139
555,8643,3,-1696,-4654,23,-349,-146,139
556,8642,1,-1693,-4654,23,-348,-147,141
557,8651,3,-1695,-4655,23,-348,-148,140
558,8649,2,-1696,-4655,23,-347,-148,140
559,8647,4,-1696,-4655,23,-347,-148,141
560,8645,6,-1698,-4655,23,-347,-151,141
561,8645,7,-1698,-4656,23,-347,-151,140
562,8641,4,-1693,-4655,23,-346,-149,140
563,8641,4,-1690,-4653,23,-347,-152,140
564,8637,4,-1688,-4652,23,-346,-152,140
565,8636,7,-1690,-4652,23,-345,-151,139
566,8633,6,-1690,-4652,23,-345,-150,141
567,8635,2,-1689,-4654,23,-344,-151,140
568,8636,3,-1692,-4655,23,-346,-151,140
569,8636,4,-1706,-4655,23,-344,-149,141
570,8638,4,-1702,-4656,23,-345,-148,140
571,8636,9,-1692,-4657,23,-345,-148,140
572,8636,4,-1697,-4655,23,-346,-149,142
573,8636,-1,-1695,-4655,23,-348,-151,142
574,8637,-4,-1699,-4656,23,-346,-152,142
575,8638,0,-1701,-4657,23,-346,-154,139
576,8636,0,-1702,-4656,23,-346,-152,140
577,8638,0,-1698,-4657,23,-349,-152,141
578,8637,-4,-1697,-4658,23,-349,-152,141
579,8635,3,-1696,-4657,23,-349,-149,143
580,8641,5,-1704,-4654,23,-351,-147,143
581,8640,3,-1702,-4655,23,-350,-147,146
582,8636,3,-1698,-4655,23,-346,-149,146
583,8631,1,-1699,-4653,23,-345,-152,145
584,8631,5,-1700,-4652,23,-344,-151,144
585,8631,9,-1702,-4654,23,-344,-153,143
586,8629,7,-1699,-4655,23,-344,-152,142
587,8635,6,-1699,-4656,23,-347,-150,142
588,8638,4,-1699,-4654,23,-349,-150,143
589,8639,2,-1697,-4654,23,-349,-151,142
590,8639,7,-1699,-4652,23,-350,-151,142
591,8640,12,-1697,-4653,23,-347,-152,141
592,8641,10,-1696,-4654,23,-344,-151,141
593,8638,5,-1700,-4655,23,-344,-149,142
594,8635,1,-1697,-4654,23,-342,-151,143
595,8641,2,-1698,-4653,23,-344,-150,141
596,8644,4,-1695,-4653,23,-344,-148,140
597,8647,2,-1702,-4652,23,-345,-145,138
598,8645,6,-1699,-4652,23,-344,-147,137
599,8642,6,-1696,-4653,23,-345,-146,137
600,8642,6,-1694,-4654,23,-345,-147,139
601,8641,7,-1703,-4652,23,-345,-148,140
602,8639,6,-1701,-4654,23,-346,-149,139
603,8642,6,-1708,-4653,23,-347,-149,139
604,8642,5,-1703,-4652,23,-347,-149,138
605,8638,4,-1702,-4652,23,-349,-150,140
606,8636,1,-1693,-4652,23,-350,-151,144
607,8635,0,-1694,-4651,23,-351,-150,144
608,8634,-2,-1691,-4651,23,-351,-152,142
609,8639,0,-1694,-4650,23,-350,-151,143
610,8642,3,-1696,-4651,23,-352,-151,143
611,8643,-5,-1695,-4650,23,-350,-151,145
612,8643,-2,-1693,-4650,23,-350,-150,141
613,8641,-1,-1696,-4650,23,-350,-149,141
614,8640,-1,-1696,-4650,23,-351,-151,141
615,8635,0,-1691,-4650,23,-350,-151,144
616,8632,6,-1695,-4651,23,-348,-150,144
617,8634,6,-1696,-4651,23,-348,-152,143
618,8640,10,-1689,-4651,23,-349,-151,145
619,8636,12,-1690,-4652,23,-347,-150,142
620,8636,9,-1694,-4652,23,-347,-148,141
621,8637,4,-1688,-4652,23,-344,-151,140
622,8639,0,-1687,-4650,23,-344,-152,139
623,8639,1,-1693,-4650,23,-345,-154,138
624,8646,4,-1694,-4650,23,-347,-153,138
625,8649,4,-1695,-4650,23,-346,-153,139
626,8652,3,-1696,-4650,23,-346,-152,138
627,8649,2,-1701,-4650,23,-344,-152,140
628,8644,-1,-1700,-4650,23,-346,-151,142
629,8645,0,-1688,-4651,23,-347,-149,140
630,8638,3,-1688,-4651,23,-350,-150,142
631,8631,1,-1702,-4651,23,-349,-152,143
632,8634,3,-1702,-4651,23,-349,-153,143
633,8636,0,-1698,-4650,23,-350,-152,142
634,8645,1,-1702,-4653,23,-352,-152,142
635,8648,1,-1693,-4652,23,-351,-152,141
636,8648,-1,-1688,-4651,23,-349,-152,139
637,8647,-5,-1693,-4650,23,-348,-150,141
638,8647,0,-1693,-4650,23,-346,-148,139
639,8644,1,-1692,-4651,23,-348,-147,138
640,8644,2,-1701,-4651,23,-348,-150,136
641,8645,4,-1702,-4650,23,-345,-149,136
642,8639,3,-1695,-4651,23,-345,-150,136
643,8636,8,-1699,-4651,23,-345,-150,135
644,8636,3,-1700,-4651,23,-343,-151,138
645,8632,1,-1696,-4651,23,-346,-148,138
646,8634,3,-1699,-4652,23,-345,-148,139
647,8632,4,-1699,-4653,23,-347,-150,140
648,8639,7,-1695,-4654,23,-349,-150,139
649,8638,9,-1694,-4654,23,-348,-149,140
650,8640,3,-1690,-4653,23,-349,-147,141
651,8641,3,-1687,-4652,23,-349,-148,141
652,8641,0,-1691,-4651,23,-348,-148,141
653,8637,-1,-1694,-4651,23,-348,-147,142
654,8639,-4,-1697,-4651,23,-346,-146,141
655,8635,-1,-1696,-4652,23,-345,-147,141
656,8637,5,-1696,-4651,23,-345,-146,141
657,8639,6,-1692,-4650,23,-345,-147,142
658,8643,7,-1693,-4652,23,-346,-147,141
659,8640,7,-1693,-4650,23,-347,-147,141
660,8636,3,-1694,-4651,23,-347,-149,143
661,8633,-1,-1695,-4652,23,-344,-150,142
662,8637,-4,-1693,-4651,23,-346,-152,144
663,8636,-6,-1697,-4650,23,-347,-150,141
664,8634,-5,-1694,-4651,23,-346,-150,142
665,8632,-3,-1695,-4651,23,-347,-151,142
666,8635,0,-1694,-4652,23,-347,-147,142
667,8636,0,-1691,-4650,23,-348,-148,141
668,8636,2,-1684,-4650,23,-349,-146,141
669,8634,6,-1685,-4649,23,-351,-146,141
670,8634,4,-1693,-4649,23,-350,-150,142
671,8633,-1,-1694,-4649,23,-346,-151,142
672,8631,1,-1695,-4649,23,-346,-152,140
673,8633,2,-1702,-4649,23,-345,-152,140
674,8636,4,-1697,-4651,23,-344,-149,138
675,8630,8,-1695,-4651,23,-346,-151,138
676,8629,-1,-1690,-4650,23,-346,-151,139
677,8626,3,-1694,-4649,23,-347,-149,140
678,8631,1,-1693,-4650,23,-346,-150,138
679,8637,4,-1696,-4648,23,-348,-151,139
680,8636,3,-1698,-4649,23,-348,-152,138
681,8638,5,-1697,-4651,23,-347,-152,137
682,8641,3,-1695,-4651,23,-345,-154,139
683,8639,10,-1695,-4651,23,-347,-155,138
684,8639,9,-1693,-4650,23,-347,-154,140
685,8639,8,-1699,-4649,23,-347,-153,140
686,8639,10,-1700,-4649,23,-349,-153,141
687,8635,8,-1701,-4649,23,-348,-153,141
688,8639,4,-1707,-4649,23,-349,-151,142
689,8639,14,-1704,-4650,23,-352,-153,143
690,8640,10,-1704,-4650,23,-350,-150,140
691,8636,5,-1701,-4650,23,-349,-154,140
692,8632,4,-1690,-4650,23,-347,-154,141
693,8630,6,-1688,-4650,23,-348,-154,141
694,8633,3,-1688,-4650,23,-346,-153,141
695,8637,4,-1683,-4648,23,-347,-153,140
696,8638,-3,-1691,-4648,23,-349,-154,139
697,8643,1,-1694,-4648,23,-348,-150,141
698,8645,0,-1695,-4649,23,-348,-151,141
699,8642,4,-1691,-4649,23,-349,-148,141
700,8638,1,-1697,-4652,23,-350,-150,142
701,8640,0,-1704,-4652,23,-349,-148,143
702,8635,-2,-1697,-4650,23,-350,-151,143
703,8634,-5,-1697,-4650,23,-351,-151,142
704,8634,-2,-1699,-4649,23,-349,-150,143
705,8637,-1,-1698,-4649,23,-352,-151,142
706,8633,4,-1708,-4650,23,-351,-152,143
707,8632,2,-1710,-4652,23,-349,-152,144
708,8634,6,-1705,-4651,23,-346,-151,143
709,8639,3,-1700,-4652,23,-347,-151,141
710,8641,4,-1697,-4653,23,-346,-151,143
711,8648,5,-1707,-4652,23,-347,-151,141
712,8649,6,-1698,-4651,23,-348,-149,142
713,8642,7,-1692,-4651,23,-347,-150,142
714,8644,9,-1687,-4650,23,-346,-152,142
715,8639,8,-1687,-4651,23,-346,-152,142
716,8641,1,-1691,-4650,23,-347,-151,140
717,8643,-1,-1687,-4650,23,-348,-152,142
718,8643,-4,-1691,-4651,23,-347,-151,140
719,8644,-3,-1690,-4652,23,-348,-149,139
720,8643,-5,-1689,-4652,23,-348,-150,142
721,8645,-5,-1694,-4651,23,-348,-148,142
722,8647,2,-1695,-4650,23,-347,-147,142
723,8645,5,-1696,-4649,23,-347,-148,142
724,8640,8,-1691,-4648,23,-345,-150,143
725,8636,8,-1690,-4649,23,-344,-151,142
726,8636,7,-1694,-4650,23,-344,-150,142
727,8637,4,-1699,-4651,23,-345,-152,143
728,8644,2,-1700,-4652,23,-347,-150,143
729,8641,0,-1702,-4653,23,-348,-149,140
730,8647,5,-1699,-4651,23,-348,-147,141
731,8647,-1,-1692,-4652,23,-348,-150,142
732,8651,2,-1685,-4651,23,-346,-151,142
733,8649,-1,-1688,-4650,23,-346,-152,142
734,8647,-1,-1690,-4651,23,-346,-153,140
735,8640,2,-1693,-4650,23,-348,-154,140
736,8643,8,-1696,-4649,23,-348,-153,141
737,8642,7,-1694,-4649,23,-349,-155,142
738,8642,4,-1690,-4649,23,-349,-154,143
739,8641,3,-1696,-4650,23,-350,-155,143
740,8641,4,-1691,-4651,23,-349,-155,142
741,8639,5,-1694,-4651,23,-349,-153,142
742,8640,4,-1695,-4652,23,-350,-154,142
743,8636,4,-1698,-4651,23,-350,-152,141
744,8634,1,-1695,-4651,23,-348,-152,140
745,8634,3,-1690,-4650,23,-349,-151,142
746,8639,8,-1693,-4652,23,-349,-149,142
747,8639,2,-1696,-4652,23,-349,-148,141
748,8634,2,-1700,-4652,23,-348,-149,141
749,8637,5,-1704,-4650,23,-349,-151,140
750,8638,9,-1698,-4650,23,-350,-150,141
751,8642,8,-1704,-4650,23,-348,-150,141
752,8644,11,-1697,-4651,23,-348,-149,139
753,8641,10,-1693,-4652,23,-347,-151,141
754,8639,6,-1689,-4652,23,-348,-152,143
755,8639,2,-1682,-4650,23,-349,-150,142
756,8639,2,-1681,-4649,23,-350,-151,142
757,8640,3,-1683,-4650,23,-351,-149,140
758,8639,4,-1689,-4650,23,-351,-149,141
759,8631,8,-1696,-4650,23,-348,-150,141
760,8633,10,-1697,-4651,23,-348,-152,140
761,8635,3,-1689,-4651,23,-345,-153,142
762,8643,5,-1691,-4652,23,-346,-152,141
763,8643,6,-1700,-4652,23,-348,-153,141
764,8641,8,-1699,-4652,23,-349,-154,141
765,8638,8,-1698,-4652,23,-349,-153,141
766,8640,10,-1703,-4652,23,-351,-154,143
767,8643,13,-1697,-4651,23,-348,-153,143
768,8644,15,-1701,-4650,23,-351,-153,144
769,8643,17,-1703,-4649,23,-351,-152,144
770,8641,18,-1707,-4648,23,-351,-155,143
771,8640,15,-1697,-4649,23,-351,-157,141
772,8637,9,-1698,-4650,23,-348,-155,143
773,8635,2,-1699,-4650,23,-350,-154,141
774,8635,1,-1702,-4650,23,-350,-151,142
775,8637,6,-1696,-4651,23,-350,-151,142
776,8640,7,-1699,-4651,23,-350,-152,142
777,8637,7,-1695,-4650,23,-349,-150,140
778,8634,11,-1701,-4651,23,-349,-149,140
779,8633,10,-1700,-4651,23,-348,-151,140
780,8633,7,-1698,-4651,23,-347,-152,141
781,8636,5,-1702,-4651,23,-346,-153,141
782,8630,2,-1705,-4651,23,-347,-154,138
783,8632,3,-1699,-4650,23,-347,-154,139
784,8627,4,-1696,-4650,23,-346,-155,139
785,8630,2,-1696,-4649,23,-345,-156,139
786,8631,3,-1699,-4650,23,-346,-156,139
787,8633,3,-1696,-4649,23,-346,-157,139
788,8635,3,-1694,-4649,23,-347,-155,139
789,8636,5,-1691,-4651,23,-349,-154,140
790,8633,4,-1696,-4651,23,-349,-154,141
791,8631,1,-1692,-4650,23,-350,-154,142
792,8629,5,-1690,-4652,23,-348,-155,141
793,8631,7,-1689,-4652,23,-349,-155,139
794,8633,5,-1686,-4653,23,-349,-153,141
795,8638,5,-1683,-4651,23,-350,-152,142
796,8638,4,-1692,-4652,23,-348,-153,142
797,8636,4,-1697,-4652,23,-350,-150,141
798,8638,3,-1696,-4651,23,-348,-150,139
799,8637,8,-1696,-4651,23,-351,-152,138
800,8640,4,-1696,-4651,23,-350,-153,138
801,8637,4,-1699,-4651,23,-349,-150,139
802,8633,5,-1702,-4652,23,-348,-150,138
803,8632,2,-1703,-4651,23,-347,-153,141
804,8633,6,-1706,-4651,23,-346,-153,140
805,8636,2,-1705,-4650,23,-346,-155,141
806,8641,1,-1702,-4650,23,-345,-152,140
807,8636,-2,-1704,-4649,23,-347,-153,141
808,8640,3,-1705,-4649,23,-348,-153,144
809,8640,7,-1697,-4650,23,-347,-152,144
810,8638,0,-1691,-4651,23,-347,-153,144
811,8635,5,-1703,-4651,23,-348,-154,142
812,8635,5,-1703,-4652,23,-348,-153,143
813,8635,8,-1695,-4653,23,-347,-155,143
814,8634,5,-1696,-4652,23,-347,-155,142
815,8632,5,-1700,-4651,23,-347,-154,142
816,8636,5,-1698,-4651,23,-345,-154,141
817,8633,2,-1700,-4651,23,-344,-153,142
818,8636,4,-1695,-4651,23,-346,-154,141
819,8637,4,-1694,-4653,23,-346,-154,142
820,8636,5,-1700,-4654,23,-346,-153,144
821,8634,11,-1699,-4653,23,-346,-152,145
822,8632,13,-1695,-4650,23,-346,-152,143
823,8632,8,-1691,-4649,23,-345,-149,142
824,8636,10,-1686,-4651,23,-344,-149,141
825,8638,11,-1687,-4651,23,-344,-150,141
826,8641,12,-1692,-4651,23,-345,-150,139
827,8640,10,-1692,-4651,23,-346,-153,138
828,8640,8,-1699,-4651,23,-347,-152,138
829,8645,5,-1701,-4652,23,-347,-151,136
830,8644,4,-1700,-4652,23,-349,-154,136
831,8639,8,-1699,-4651,23,-346,-153,138
832,8632,7,-1704,-4651,23,-346,-152,139
833,8631,8,-1701,-4651,23,-345,-152,141
834,8634,6,-1703,-4651,23,-346,-151,142
835,8635,6,-1703,-4652,23,-346,-150,144
836,8636,7,-1702,-4653,23,-347,-150,141
837,8640,9,-1702,-4651,23,-345,-152,139
838,8639,8,-1704,-4652,23,-347,-153,141
839,8642,10,-1702,-4651,23,-345,-152,140
840,8641,10,-1699,-4649,23,-344,-153,141
841,8638,9,-1697,-4650,23,-346,-153,142
842,8638,9,-1703,-4649,23,-346,-155,139
843,8642,9,-1697,-4650,23,-347,-153,138
844,8648,6,-1696,-4650,23,-344,-152,139
845,8644,10,-1695,-4651,23,-344,-151,139
846,8642,3,-1695,-4652,23,-345,-151,140
847,8640,5,-1696,-4652,23,-343,-148,140
848,8639,6,-1694,-4651,23,-344,-149,139
849,8634,4,-1698,-4651,23,-343,-148,139
850,8636,3,-1702,-4652,23,-343,-148,139
851,8639,-1,-1702,-4649,23,-345,-151,140
852,8639,0,-1703,-4648,23,-347,-154,139
853,8644,1,-1696,-4650,23,-346,-155,139
854,8642,1,-1703,-4651,23,-347,-153,138
855,8644,1,-1702,-4650,23,-349,-152,140
856,8646,-2,-1703,-4650,23,-348,-150,140
857,8640,-1,-1702,-4650,23,-349,-150,139
858,8638,7,-1702,-4649,23,-350,-150,139
859,8640,9,-1703,-4652,23,-349,-151,142
860,8638,5,-1704,-4651,23,-348,-153,143
861,8643,4,-1704,-4652,23,-347,-155,142
862,8644,1,-1708,-4652,23,-348,-154,140
863,8641,1,-1707,-4653,23,-348,-154,140
864,8637,7,-1702,-4653,23,-349,-155,138
865,8637,3,-1700,-4652,23,-348,-152,138
866,8637,6,-1702,-4653,23,-346,-152,137
867,8636,3,-1706,-4654,23,-347,-151,138
868,8641,7,-1707,-4653,23,-346,-152,138
869,8643,2,-1699,-4654,23,-346,-151,138
870,8642,3,-1696,-4655,23,-346,-153,139
871,8641,5,-1694,-4654,23,-346,-151,142
872,8640,4,-1692,-4653,23,-345,-151,140
873,8642,4,-1688,-4653,23,-345,-151,141
874,8638,7,-1690,-4651,23,-344,-150,140
875,8640,11,-1697,-4653,23,-344,-150,140
876,8637,9,-1702,-4652,23,-346,-150,142
877,8637,6,-1694,-4653,23,-345,-152,142
878,8641,8,-1695,-4652,23,-344,-153,143
879,8643,5,-1696,-4651,23,-344,-152,141
880,8641,3,-1701,-4651,23,-347,-151,142
881,8641,4,-1698,-4652,23,-348,-150,142
882,8639,7,-1706,-4653,23,-347,-153,142
883,8639,4,-1706,-4654,23,-348,-154,142
884,8643,4,-1707,-4654,23,-349,-153,142
885,8644,7,-1701,-4655,23,-349,-152,138
886,8645,10,-1695,-4653,23,-348,-152,140
887,8646,10,-1703,-4652,23,-346,-150,140
888,8646,12,-1696,-4653,23,-347,-151,139
889,8645,14,-1699,-4653,23,-348,-150,140
890,8642,15,-1690,-4652,23,-349,-151,141
891,8639,13,-1685,-4653,23,-349,-151,142
892,8635,12,-1688,-4653,23,-350,-153,141
893,8635,12,-1686,-4654,23,-350,-151,144
894,8639,16,-1685,-4652,23,-350,-151,145
895,8637,15,-1680,-4652,23,-349,-152,143
896,8642,12,-1683,-4650,23,-348,-150,142
897,8639,9,-1687,-4651,23,-346,-152,141
898,8638,5,-1689,-4650,23,-348,-152,141
899,8636,2,-1696,-4649,23,-348,-152,141
900,8640,0,-1698,-4650,23,-348,-153,138
901,8647,-3,-1692,-4650,23,-346,-152,140
902,8642,-1,-1696,-4649,23,-347,-151,141
903,8638,2,-1689,-4651,23,-346,-151,140
904,8642,2,-1692,-4651,23,-347,-151,140
905,8637,4,-1695,-4652,23,-344,-151,140
906,8640,5,-1707,-4651,23,-344,-151,139
907,8642,4,-1702,-4651,23,-344,-150,137
908,8637,4,-1695,-4650,23,-344,-150,138
909,8636,4,-1703,-4652,23,-345,-150,140
910,8637,7,-1703,-4652,23,-344,-151,139
911,8638,5,-1700,-4653,23,-343,-151,139
912,8643,6,-1695,-4653,23,-341,-150,140
913,8637,5,-1700,-4652,23,-342,-149,143
914,8638,4,-1699,-4653,23,-342,-151,142
915,8641,4,-1690,-4653,23,-344,-152,142
916,8641,5,-1694,-4654,23,-345,-150,141
917,8641,7,-1692,-4653,23,-345,-150,141
918,8643,8,-1692,-4653,23,-345,-147,141
919,8645,7,-1698,-4654,23,-344,-149,139
920,8641,6,-1706,-4653,23,-345,-148,137
921,8640,9,-1709,-4652,23,-347,-148,136
922,8642,8,-1706,-4650,23,-348,-151,138
923,8640,6,-1700,-4651,23,-347,-150,137
924,8638,2,-1696,-4651,23,-346,-149,137
925,8640,0,-1697,-4653,23,-346,-151,137
926,8640,2,-1701,-4655,23,-348,-154,137
927,8645,7,-1698,-4657,23,-348,-154,137
928,8647,4,-1694,-4657,23,-350,-151,136
929,8647,1,-1694,-4656,23,-347,-153,137
930,8646,2,-1695,-4657,23,-348,-152,139
931,8645,-1,-1701,-4657,23,-349,-151,141
932,8643,3,-1694,-4656,23,-348,-149,141
933,8642,5,-1688,-4654,23,-346,-150,142
934,8642,9,-1694,-4653,23,-345,-149,141
935,8641,13,-1700,-4655,23,-346,-150,140
936,8645,11,-1704,-4655,23,-348,-150,141
937,8640,7,-1702,-4654,23,-349,-149,142
938,8640,11,-1701,-4651,23,-350,-150,140
939,8636,13,-1699,-4651,23,-351,-150,143
940,8635,18,-1702,-4650,23,-350,-148,144
941,8637,16,-1701,-4648,23,-351,-150,143
942,8641,15,-1698,-4650,23,-349,-150,139
943,8639,9,-1698,-4651,23,-349,-149,139
944,8645,6,-1695,-4651,23,-351,-149,141
945,8647,5,-1692,-4651,23,-349,-149,141
946,8644,4,-1694,-4652,23,-347,-149,139
947,8640,4,-1697,-4653,23,-348,-148,139
948,8636,3,-1701,-4654,23,-348,-149,139
949,8642,5,-1702,-4653,23,-347,-148,140
950,8640,7,-1705,-4652,23,-348,-147,138
951,8639,11,-1702,-4654,23,-348,-148,141
952,8639,5,-1707,-4653,23,-346,-145,143
953,8640,5,-1704,-4653,23,-347,-146,141
954,8637,5,-1705,-4653,23,-346,-149,139
955,8642,7,-1703,-4652,23,-347,-151,139
956,8642,7,-1700,-4652,23,-351,-151,138
957,8639,6,-1705,-4653,23,-348,-150,136
958,8637,3,-1701,-4653,23,-349,-150,137
959,8640,3,-1703,-4651,23,-348,-151,139
960,8641,7,-1704,-4651,23,-348,-150,139
961,8643,8,-1706,-4651,23,-347,-153,139
962,8639,5,-1708,-4650,23,-349,-153,137
963,8643,8,-1699,-4650,23,-349,-152,139
964,8640,8,-1698,-4650,23,-347,-154,137
965,8635,1,-1703,-4651,23,-347,-156,136
966,8635,-3,-1705,-4655,23,-348,-153,138
967,8638,0,-1706,-4654,23,-348,-152,140
968,8633,7,-1699,-4653,23,-348,-152,141
969,8638,5,-1702,-4652,23,-345,-151,141
970,8641,4,-1703,-4651,23,-345,-152,142
971,8646,10,-1702,-4651,23,-346,-152,141
972,8638,15,-1705,-4651,23,-347,-150,142
973,8635,13,-1706,-4651,23,-348,-148,140
974,8636,12,-1707,-4652,23,-347,-148,140
975,8644,6,-1701,-4651,23,-345,-150,138
976,8642,2,-1702,-4649,23,-345,-152,137
977,8643,-2,-1699,-4652,23,-343,-150,137
978,8643,1,-1694,-4652,23,-346,-151,137
979,8639,1,-1694,-4652,23,-347,-151,140
980,8637,3,-1697,-4653,23,-347,-150,137
981,8636,6,-1698,-4652,23,-348,-150,138
982,8638,5,-1704,-4653,23,-347,-151,140
983,8641,9,-1706,-4654,23,-347,-152,138
984,8641,7,-1703,-4654,23,-346,-151,140
985,8634,0,-1697,-4655,23,-345,-152,140
986,8639,3,-1701,-4655,23,-345,-154,136
987,8642,4,-1706,-4654,23,-344,-156,136
988,8640,6,-1701,-4654,23,-346,-155,136
989,8639,9,-1701,-4654,23,-346,-153,136
990,8640,7,-1702,-4655,23,-346,-153,135
991,8644,8,-1693,-4654,23,-347,-154,135
992,8644,5,-1688,-4654,23,-349,-151,136
993,8645,0,-1686,-4653,23,-348,-153,138
994,8638,-1,-1690,-4653,23,-348,-155,139
995,8637,1,-1697,-4654,23,-348,-154,140
996,8639,4,-1703,-4653,23,-348,-153,138
997,8639,1,-1701,-4654,23,-346,-154,138
998,8642,1,-1694,-4655,23,-348,-152,135
