,acc_X,acc_Y,acc_Z,temp,tempC,gyr_X,gyr_Y,gyr_Z
0,8638,6,-1725,-4726,23,-86,-38,35
1,8632,7,-1719,-4724,23,-86,-38,35
2,8632,7,-1722,-4724,23,-86,-37,35
3,8632,10,-1716,-4724,23,-86,-37,35
4,8631,9,-1721,-4724,23,-86,-37,35
5,8630,7,-1715,-4726,23,-86,-37,35
6,8631,8,-1719,-4725,23,-87,-37,35
7,8633,6,-1724,-4724,23,-87,-37,35
8,8628,10,-1718,-4725,23,-87,-37,35
9,8631,8,-1716,-4726,23,-87,-37,35
10,8631,6,-1721,-4726,23,-87,-37,35
11,8634,8,-1716,-4725,23,-86,-38,35
12,8632,2,-1721,-4726,23,-87,-39,34
13,8634,4,-1714,-4728,23,-86,-38,35
14,8632,6,-1711,-4728,23,-87,-38,34
15,8639,8,-1714,-4728,23,-86,-38,34
16,8642,8,-1717,-4727,23,-87,-37,34
17,8643,11,-1716,-4727,23,-86,-37,34
18,8643,11,-1717,-4726,23,-86,-38,35
19,8638,13,-1710,-4727,23,-86,-38,35
20,8631,11,-1716,-4726,23,-86,-38,35
21,8633,13,-1715,-4726,23,-86,-38,35
22,8631,13,-1713,-4727,23,-86,-38,35
23,8635,19,-1708,-4727,23,-86,-38,35
24,8638,10,-1707,-4727,23,-87,-38,35
25,8636,8,-1701,-4729,23,-86,-38,35
26,8641,8,-1708,-4728,23,-86,-38,34
27,8636,8,-1717,-4727,23,-86,-38,34
28,8634,9,-1714,-4726,23,-86,-38,35
29,8634,6,-1710,-4725,23,-86,-38,35
30,8640,5,-1715,-4725,23,-86,-38,35
31,8633,5,-1709,-4724,23,-86,-38,34
32,8636,8,-1713,-4724,23,-86,-38,34
33,8637,7,-1707,-4725,23,-86,-38,33
34,8637,4,-1707,-4725,23,-86,-38,33
35,8634,5,-1709,-4725,23,-86,-37,33
36,8633,4,-1705,-4726,23,-86,-37,34
37,8637,7,-1709,-4726,23,-87,-38,33
38,8633,6,-1711,-4727,23,-87,-38,34
39,8633,4,-1710,-4726,23,-87,-38,34
40,8629,1,-1709,-4725,23,-86,-38,34
41,8628,2,-1720,-4726,23,-86,-39,34
42,8630,5,-1717,-4728,23,-86,-39,34
43,8628,3,-1714,-4726,23,-86,-39,34
44,8623,4,-1714,-4727,23,-86,-39,35
45,8625,3,-1703,-4726,23,-86,-39,34
46,8631,2,-1703,-4727,23,-86,-39,34
47,8633,1,-1715,-4725,23,-86,-39,35
48,8633,5,-1702,-4727,23,-86,-39,35
49,8636,7,-1703,-4726,23,-86,-38,35
50,8638,7,-1704,-4726,23,-86,-38,35
51,8639,10,-1701,-4726,23,-87,-38,35
52,8641,14,-1703,-4725,23,-87,-38,34
53,8635,16,-1700,-4725,23,-86,-38,35
54,8638,14,-1710,-4724,23,-85,-38,35
55,8636,15,-1713,-4724,23,-86,-39,34
56,8635,14,-1704,-4723,23,-86,-39,34
57,8639,9,-1705,-4723,23,-86,-39,34
58,8636,6,-1704,-4724,23,-86,-39,35
59,8637,8,-1705,-4723,23,-86,-39,35
60,8633,7,-1710,-4721,23,-86,-40,35
61,8630,6,-1716,-4723,23,-85,-40,35
62,8633,2,-1712,-4724,23,-86,-40,35
63,8629,4,-1709,-4724,23,-86,-39,35
64,8631,1,-1709,-4725,23,-86,-39,35
65,8636,5,-1711,-4724,23,-86,-40,35
66,8637,7,-1703,-4724,23,-86,-40,35
67,8640,7,-1704,-4723,23,-86,-39,35
68,8634,7,-1711,-4724,23,-86,-39,35
69,8631,7,-1704,-4725,23,-87,-39,34
70,8630,4,-1710,-4724,23,-86,-39,34
71,8632,8,-1715,-4724,23,-87,-39,34
72,8632,11,-1725,-4724,23,-87,-38,35
73,8635,8,-1718,-4724,23,-87,-38,34
74,8634,13,-1706,-4724,23,-86,-38,34
75,8632,10,-1705,-4727,23,-87,-38,34
76,8633,13,-1704,-4727,23,-87,-38,34
77,8632,12,-1697,-4726,23,-87,-38,35
78,8634,8,-1702,-4725,23,-87,-38,35
79,8634,10,-1711,-4724,23,-86,-38,35
80,8635,9,-1709,-4725,23,-86,-38,35
81,8635,7,-1709,-4723,23,-86,-38,34
82,8633,11,-1714,-4724,23,-86,-38,34
83,8636,6,-1715,-4722,23,-86,-39,34
84,8634,7,-1721,-4723,23,-86,-38,34
85,8636,9,-1724,-4724,23,-87,-38,34
86,8639,6,-1728,-4723,23,-87,-37,33
87,8641,6,-1722,-4724,23,-87,-38,34
88,8641,4,-1718,-4724,23,-87,-38,34
89,8640,2,-1715,-4725,23,-86,-38,34
90,8638,4,-1715,-4725,23,-86,-38,35
91,8640,5,-1715,-4725,23,-86,-39,35
92,8640,7,-1713,-4725,23,-86,-39,35
93,8638,10,-1716,-4725,23,-86,-39,34
94,8638,7,-1709,-4724,23,-86,-39,34
95,8635,6,-1707,-4724,23,-86,-39,34
96,8632,7,-1705,-4725,23,-86,-38,34
97,8629,10,-1706,-4724,23,-86,-38,34
98,8633,7,-1706,-4724,23,-87,-38,34
99,8633,6,-1703,-4723,23,-86,-38,34
100,8636,11,-1711,-4722,23,-86,-38,34
101,8635,12,-1710,-4724,23,-86,-37,34
102,8636,10,-1707,-4723,23,-86,-38,34
103,8635,8,-1711,-4723,23,-86,-38,34
104,8634,9,-1711,-4721,23,-86,-39,34
105,8633,11,-1714,-4722,23,-86,-38,34
106,8640,10,-1712,-4722,23,-86,-39,34
107,8644,11,-1716,-4725,23,-87,-39,35
108,8644,6,-1713,-4724,23,-87,-38,34
109,8641,5,-1715,-4725,23,-87,-38,35
110,8636,6,-1717,-4726,23,-88,-39,35
111,8636,5,-1717,-4727,23,-88,-38,35
112,8638,7,-1714,-4727,23,-87,-38,34
113,8640,9,-1718,-4725,23,-87,-38,34
114,8643,13,-1716,-4725,23,-87,-38,34
115,8641,12,-1720,-4724,23,-87,-38,34
116,8638,7,-1713,-4724,23,-87,-38,35
117,8636,5,-1705,-4723,23,-87,-38,35
118,8642,8,-1709,-4723,23,-87,-38,35
119,8644,13,-1708,-4723,23,-86,-38,35
120,8644,12,-1711,-4724,23,-86,-38,35
121,8642,11,-1718,-4726,23,-86,-39,35
122,8641,7,-1718,-4726,23,-86,-39,34
123,8642,10,-1721,-4726,23,-86,-39,34
124,8640,9,-1720,-4727,23,-86,-38,34
125,8632,5,-1717,-4726,23,-87,-38,34
126,8631,0,-1715,-4726,23,-87,-39,35
127,8632,-3,-1714,-4725,23,-87,-38,35
128,8634,-6,-1709,-4726,23,-87,-38,35
129,8633,-4,-1707,-4725,23,-87,-38,34
130,8638,-3,-1724,-4725,23,-86,-38,35
131,8640,0,-1728,-4726,23,-86,-38,34
132,8638,5,-1727,-4726,23,-86,-38,35
133,8642,7,-1718,-4725,23,-86,-38,35
134,8640,3,-1718,-4725,23,-87,-38,35
135,8634,4,-1715,-4726,23,-86,-38,35
136,8635,9,-1706,-4725,23,-86,-37,34
137,8631,10,-1703,-4726,23,-86,-37,34
138,8629,11,-1704,-4726,23,-86,-38,33
139,8632,11,-1704,-4724,23,-86,-37,34
140,8630,8,-1699,-4725,23,-86,-38,33
141,8627,8,-1700,-4724,23,-86,-37,34
142,8624,1,-1707,-4724,23,-86,-38,34
143,8626,1,-1712,-4725,23,-86,-38,34
144,8626,5,-1711,-4726,23,-86,-38,34
145,8629,8,-1710,-4724,23,-86,-38,34
146,8627,5,-1705,-4725,23,-87,-39,34
147,8628,5,-1708,-4724,23,-86,-39,34
148,8632,11,-1717,-4725,23,-86,-38,34
149,8637,14,-1720,-4725,23,-87,-38,35
150,8633,9,-1719,-4722,23,-87,-39,35
151,8632,11,-1717,-4723,23,-87,-38,35
152,8635,11,-1712,-4723,23,-87,-38,34
153,8631,11,-1709,-4722,23,-88,-38,35
154,8629,10,-1712,-4723,23,-87,-38,34
155,8634,7,-1711,-4723,23,-87,-39,35
156,8634,10,-1712,-4723,23,-87,-38,35
157,8633,11,-1713,-4724,23,-87,-39,34
158,8633,10,-1707,-4724,23,-87,-38,34
159,8632,8,-1706,-4725,23,-87,-38,34
160,8635,9,-1710,-4724,23,-86,-38,35
161,8634,4,-1717,-4723,23,-86,-38,35
162,8634,4,-1724,-4723,23,-86,-38,35
163,8636,4,-1728,-4724,23,-86,-38,35
164,8633,4,-1717,-4723,23,-86,-38,35
165,8631,1,-1720,-4725,23,-86,-38,35
166,8635,4,-1709,-4724,23,-87,-37,34
167,8635,10,-1712,-4723,23,-87,-38,34
168,8635,9,-1710,-4724,23,-87,-38,34
169,8632,10,-1708,-4726,23,-87,-39,35
170,8632,5,-1709,-4726,23,-87,-38,34
171,8636,3,-1705,-4726,23,-87,-38,34
172,8634,6,-1702,-4727,23,-86,-38,34
173,8641,6,-1697,-4727,23,-86,-39,35
174,8640,11,-1700,-4726,23,-86,-39,34
175,8641,10,-1701,-4726,23,-86,-38,34
176,8637,8,-1708,-4727,23,-86,-38,34
177,8635,11,-1700,-4725,23,-86,-38,35
178,8636,8,-1703,-4724,23,-86,-39,35
179,8638,9,-1709,-4723,23,-87,-38,35
180,8634,8,-1712,-4725,23,-87,-38,35
181,8633,10,-1711,-4724,23,-87,-38,35
182,8636,10,-1706,-4723,23,-87,-38,35
183,8633,13,-1712,-4723,23,-86,-39,35
184,8627,10,-1707,-4724,23,-87,-39,35
185,8629,6,-1706,-4725,23,-87,-39,34
186,8628,5,-1703,-4725,23,-87,-39,35
187,8637,5,-1708,-4723,23,-87,-38,34
188,8635,12,-1718,-4723,23,-87,-38,35
189,8630,13,-1720,-4724,23,-87,-38,35
190,8632,17,-1721,-4723,23,-87,-38,36
191,8631,16,-1717,-4724,23,-88,-38,35
192,8632,15,-1710,-4724,23,-88,-38,35
193,8638,9,-1713,-4724,23,-88,-38,35
194,8637,8,-1709,-4724,23,-88,-38,34
195,8641,6,-1709,-4725,23,-87,-38,35
196,8636,5,-1708,-4725,23,-87,-39,34
197,8635,6,-1710,-4724,23,-87,-39,34
198,8634,7,-1709,-4724,23,-87,-39,34
199,8635,3,-1713,-4724,23,-87,-40,34
200,8629,4,-1716,-4724,23,-87,-39,34
201,8631,6,-1714,-4722,23,-88,-39,34
202,8634,3,-1707,-4723,23,-88,-39,34
203,8638,0,-1704,-4722,23,-88,-39,35
204,8640,0,-1702,-4723,23,-88,-39,35
205,8643,1,-1700,-4723,23,-88,-38,34
206,8639,1,-1701,-4724,23,-87,-38,35
207,8638,0,-1708,-4725,23,-87,-38,35
208,8635,-1,-1703,-4723,23,-87,-38,35
209,8641,4,-1699,-4722,23,-87,-38,35
210,8639,7,-1703,-4721,23,-87,-38,35
211,8638,7,-1703,-4720,23,-86,-39,35
212,8640,3,-1706,-4720,23,-87,-38,34
213,8636,8,-1706,-4721,23,-86,-38,34
214,8638,9,-1713,-4722,23,-86,-38,34
215,8634,9,-1713,-4721,23,-86,-38,34
216,8634,9,-1713,-4722,23,-86,-38,35
217,8636,6,-1711,-4722,23,-86,-38,35
218,8634,2,-1710,-4723,23,-86,-38,35
219,8634,1,-1710,-4721,23,-86,-38,35
220,8634,11,-1713,-4722,23,-87,-39,35
221,8634,4,-1715,-4720,23,-87,-38,35
222,8634,3,-1715,-4724,23,-86,-38,34
223,8633,7,-1721,-4726,23,-87,-39,34
224,8632,6,-1713,-4723,23,-86,-38,35
225,8630,9,-1710,-4722,23,-86,-38,35
226,8632,7,-1715,-4723,23,-86,-38,34
227,8636,12,-1710,-4722,23,-86,-38,34
228,8637,11,-1709,-4724,23,-86,-38,35
229,8635,11,-1710,-4722,23,-86,-38,35
230,8637,9,-1710,-4723,23,-87,-38,35
231,8636,7,-1709,-4724,23,-86,-38,35
232,8638,8,-1709,-4724,23,-86,-38,35
233,8643,5,-1709,-4726,23,-87,-38,35
234,8645,6,-1714,-4725,23,-87,-38,34
235,8644,6,-1717,-4725,23,-86,-38,34
236,8642,4,-1714,-4724,23,-87,-38,35
237,8638,4,-1712,-4723,23,-86,-38,35
238,8643,7,-1720,-4724,23,-86,-38,35
239,8640,13,-1727,-4722,23,-86,-38,35
240,8637,10,-1721,-4721,23,-86,-38,34
241,8639,13,-1713,-4722,23,-86,-38,34
242,8639,14,-1717,-4724,23,-86,-37,34
243,8637,11,-1713,-4724,23,-86,-37,34
244,8635,13,-1718,-4725,23,-87,-38,34
245,8631,11,-1714,-4724,23,-87,-38,34
246,8633,6,-1720,-4724,23,-87,-38,35
247,8638,9,-1718,-4724,23,-87,-38,35
248,8639,12,-1717,-4726,23,-87,-38,34
249,8639,10,-1718,-4727,23,-86,-38,35
250,8638,13,-1714,-4729,23,-86,-38,35
251,8632,18,-1715,-4729,23,-86,-38,35
252,8629,16,-1713,-4727,23,-86,-38,35
253,8632,13,-1713,-4726,23,-87,-38,35
254,8634,13,-1712,-4726,23,-87,-38,35
255,8634,10,-1711,-4725,23,-87,-39,35
256,8638,12,-1710,-4724,23,-86,-38,35
257,8637,12,-1713,-4722,23,-87,-38,35
258,8635,11,-1712,-4722,23,-86,-37,34
259,8639,14,-1712,-4723,23,-86,-38,35
260,8639,14,-1711,-4721,23,-86,-38,35
261,8637,18,-1718,-4723,23,-87,-39,35
262,8636,14,-1718,-4721,23,-87,-38,35
263,8638,16,-1722,-4722,23,-87,-38,35
264,8634,12,-1719,-4723,23,-87,-38,34
265,8636,12,-1716,-4721,23,-86,-38,34
266,8633,10,-1714,-4723,23,-87,-37,34
267,8636,10,-1716,-4724,23,-87,-38,34
268,8634,8,-1713,-4725,23,-87,-38,34
269,8634,6,-1714,-4724,23,-87,-38,35
270,8634,7,-1719,-4723,23,-86,-38,34
271,8634,10,-1720,-4723,23,-86,-38,35
272,8631,6,-1718,-4723,23,-87,-38,35
273,8633,8,-1715,-4724,23,-86,-38,34
274,8634,6,-1713,-4724,23,-87,-38,34
275,8635,7,-1712,-4724,23,-86,-38,34
276,8635,10,-1707,-4725,23,-87,-37,34
277,8636,8,-1706,-4725,23,-87,-38,34
278,8635,9,-1704,-4724,23,-87,-38,34
279,8635,8,-1706,-4722,23,-87,-37,34
280,8634,9,-1715,-4724,23,-87,-37,34
281,8639,11,-1709,-4723,23,-86,-38,34
282,8636,7,-1718,-4724,23,-87,-38,34
283,8632,1,-1721,-4724,23,-86,-38,34
284,8635,4,-1727,-4724,23,-86,-38,35
285,8635,4,-1731,-4723,23,-86,-39,34
286,8636,8,-1722,-4723,23,-87,-38,34
287,8636,9,-1721,-4722,23,-87,-39,35
288,8630,14,-1720,-4723,23,-86,-39,35
289,8633,9,-1714,-4722,23,-86,-39,35
290,8632,9,-1706,-4722,23,-86,-39,35
291,8631,6,-1710,-4723,23,-86,-39,35
292,8636,7,-1707,-4723,23,-86,-39,35
293,8636,7,-1713,-4726,23,-86,-39,35
294,8636,7,-1717,-4725,23,-86,-39,35
295,8639,9,-1714,-4724,23,-87,-39,34
296,8636,10,-1707,-4724,23,-87,-39,33
297,8632,6,-1713,-4724,23,-87,-39,33
298,8631,12,-1707,-4722,23,-86,-38,34
299,8628,13,-1711,-4721,23,-86,-38,34
300,8632,12,-1706,-4722,23,-86,-38,33
301,8631,11,-1707,-4721,23,-86,-38,34
302,8635,5,-1709,-4721,23,-86,-38,34
303,8635,6,-1713,-4722,23,-87,-38,34
304,8632,6,-1714,-4723,23,-87,-38,34
305,8637,1,-1718,-4724,23,-87,-38,34
306,8644,7,-1722,-4725,23,-87,-38,35
307,8641,6,-1726,-4723,23,-87,-38,35
308,8639,4,-1726,-4722,23,-87,-38,35
309,8641,4,-1718,-4722,23,-87,-39,35
310,8642,2,-1713,-4721,23,-86,-39,35
311,8637,4,-1709,-4719,23,-86,-39,35
312,8632,6,-1712,-4722,23,-87,-39,35
313,8635,5,-1706,-4723,23,-87,-39,35
314,8637,5,-1707,-4723,23,-87,-39,36
315,8637,6,-1719,-4724,23,-87,-39,35
316,8637,8,-1718,-4723,23,-87,-39,35
317,8635,10,-1717,-4723,23,-86,-39,35
318,8639,11,-1716,-4722,23,-86,-39,35
319,8643,6,-1709,-4723,23,-87,-39,35
320,8639,7,-1714,-4723,23,-86,-38,35
321,8642,6,-1719,-4723,23,-86,-38,34
322,8644,3,-1714,-4724,23,-87,-38,35
323,8642,3,-1712,-4724,23,-87,-38,35
324,8643,8,-1713,-4723,23,-86,-38,34
325,8642,5,-1718,-4721,23,-86,-38,34
326,8643,8,-1714,-4720,23,-87,-38,34
327,8637,4,-1709,-4720,23,-87,-38,34
328,8638,3,-1700,-4720,23,-87,-38,34
329,8636,1,-1699,-4722,23,-87,-38,34
330,8631,5,-1702,-4722,23,-87,-38,34
331,8634,3,-1699,-4722,23,-87,-38,34
332,8633,3,-1706,-4722,23,-87,-38,35
333,8637,3,-1703,-4721,23,-87,-38,35
334,8633,5,-1707,-4723,23,-87,-38,35
335,8639,6,-1706,-4721,23,-86,-39,35
336,8638,8,-1713,-4721,23,-86,-38,36
337,8640,11,-1705,-4721,23,-86,-38,35
338,8635,10,-1713,-4722,23,-86,-37,35
339,8633,12,-1712,-4722,23,-85,-38,36
340,8634,6,-1713,-4722,23,-85,-38,35
341,8638,2,-1714,-4721,23,-86,-38,35
342,8641,-3,-1712,-4722,23,-86,-38,35
343,8644,1,-1712,-4720,23,-87,-38,35
344,8641,-1,-1710,-4720,23,-87,-38,34
345,8638,-1,-1700,-4720,23,-87,-38,34
346,8637,3,-1704,-4720,23,-87,-38,35
347,8635,9,-1705,-4719,23,-87,-38,34
348,8642,13,-1701,-4718,23,-87,-38,34
349,8641,11,-1701,-4718,23,-87,-37,35
350,8638,9,-1707,-4718,23,-86,-37,35
351,8638,9,-1713,-4718,23,-86,-37,35
352,8640,9,-1713,-4719,23,-86,-38,35
353,8639,12,-1716,-4719,23,-86,-37,35
354,8634,15,-1714,-4720,23,-86,-37,35
355,8638,11,-1708,-4721,23,-86,-37,35
356,8635,7,-1708,-4721,23,-86,-37,35
357,8635,6,-1710,-4721,23,-86,-39,35
358,8637,3,-1707,-4720,23,-87,-39,35
359,8639,0,-1712,-4721,23,-87,-38,35
360,8639,0,-1711,-4720,23,-86,-38,35
361,8634,5,-1711,-4718,23,-86,-38,35
362,8634,3,-1707,-4719,23,-87,-37,35
363,8640,-2,-1710,-4719,23,-87,-37,35
364,8638,-1,-1715,-4719,23,-87,-38,35
365,8633,2,-1719,-4719,23,-87,-38,35
366,8637,6,-1720,-4720,23,-87,-38,35
367,8643,5,-1726,-4721,23,-88,-38,35
368,8645,8,-1731,-4721,23,-87,-38,35
369,8645,9,-1732,-4720,23,-87,-38,34
370,8640,7,-1724,-4720,23,-87,-38,34
371,8638,8,-1723,-4720,23,-86,-38,34
372,8640,14,-1721,-4722,23,-86,-38,35
373,8639,11,-1726,-4721,23,-86,-38,35
374,8637,14,-1720,-4722,23,-86,-38,35
375,8636,11,-1717,-4721,23,-86,-39,35
376,8633,11,-1717,-4721,23,-86,-39,35
377,8636,13,-1713,-4721,23,-87,-39,35
378,8636,14,-1718,-4721,23,-87,-39,35
379,8633,12,-1720,-4721,23,-86,-38,34
380,8624,11,-1716,-4720,23,-87,-39,35
381,8627,9,-1712,-4722,23,-87,-38,35
382,8628,11,-1715,-4719,23,-87,-38,35
383,8629,9,-1716,-4720,23,-86,-39,35
384,8630,11,-1719,-4721,23,-86,-38,34
385,8635,7,-1711,-4720,23,-86,-38,35
386,8636,6,-1714,-4721,23,-86,-38,35
387,8640,4,-1713,-4721,23,-87,-38,34
388,8643,5,-1717,-4721,23,-87,-39,35
389,8642,11,-1716,-4722,23,-87,-38,35
390,8644,10,-1714,-4722,23,-87,-38,36
391,8643,12,-1709,-4721,23,-87,-38,36
392,8641,11,-1708,-4722,23,-87,-38,35
393,8634,8,-1697,-4720,23,-86,-38,35
394,8626,1,-1703,-4721,23,-86,-38,35
395,8629,3,-1708,-4722,23,-86,-38,35
396,8627,3,-1707,-4723,23,-86,-39,34
397,8630,0,-1709,-4722,23,-86,-38,35
398,8629,2,-1711,-4721,23,-86,-38,34
399,8633,6,-1712,-4722,23,-86,-39,34
400,8637,6,-1714,-4722,23,-86,-39,34
401,8635,8,-1716,-4722,23,-87,-38,34
402,8641,5,-1720,-4723,23,-87,-38,34
403,8638,9,-1726,-4723,23,-87,-38,34
404,8636,11,-1724,-4723,23,-87,-38,35
405,8638,9,-1728,-4723,23,-86,-38,35
406,8640,10,-1724,-4723,23,-87,-38,35
407,8641,13,-1727,-4725,23,-86,-38,35
408,8647,11,-1731,-4724,23,-87,-38,35
409,8650,9,-1740,-4724,23,-86,-37,35
410,8646,7,-1732,-4725,23,-86,-38,35
411,8637,4,-1721,-4724,23,-86,-38,35
412,8637,6,-1714,-4724,23,-86,-38,35
413,8638,9,-1706,-4723,23,-86,-39,35
414,8642,5,-1705,-4723,23,-86,-39,35
415,8638,1,-1712,-4723,23,-86,-39,35
416,8638,4,-1710,-4725,23,-86,-39,34
417,8634,1,-1714,-4725,23,-86,-38,35
418,8639,0,-1713,-4725,23,-86,-38,35
419,8639,3,-1710,-4725,23,-86,-38,34
420,8637,5,-1710,-4725,23,-85,-38,35
421,8637,4,-1712,-4722,23,-86,-38,35
422,8634,4,-1708,-4724,23,-86,-38,35
423,8633,6,-1713,-4725,23,-86,-38,35
424,8639,8,-1713,-4725,23,-86,-38,35
425,8636,10,-1715,-4724,23,-86,-37,36
426,8636,11,-1710,-4723,23,-86,-38,35
427,8631,11,-1711,-4724,23,-86,-38,35
428,8633,7,-1708,-4724,23,-86,-38,35
429,8635,5,-1706,-4726,23,-86,-38,35
430,8630,5,-1703,-4725,23,-86,-38,35
431,8632,0,-1708,-4725,23,-86,-38,35
432,8632,4,-1707,-4724,23,-87,-38,35
433,8626,10,-1708,-4723,23,-87,-38,35
434,8631,10,-1705,-4724,23,-86,-38,35
435,8633,10,-1701,-4723,23,-86,-38,35
436,8636,13,-1699,-4725,23,-86,-38,35
437,8638,13,-1704,-4725,23,-85,-38,35
438,8637,11,-1707,-4723,23,-85,-38,35
439,8638,10,-1704,-4723,23,-85,-39,35
440,8636,9,-1708,-4722,23,-86,-39,35
441,8634,11,-1709,-4722,23,-86,-39,35
442,8629,7,-1706,-4722,23,-86,-39,35
443,8627,8,-1705,-4723,23,-86,-38,35
444,8632,12,-1703,-4722,23,-86,-39,35
445,8634,8,-1702,-4723,23,-86,-38,35
446,8636,7,-1703,-4724,23,-86,-38,35
447,8637,7,-1714,-4725,23,-87,-38,34
448,8636,2,-1713,-4725,23,-86,-38,35
449,8634,7,-1710,-4725,23,-86,-39,35
450,8636,6,-1704,-4726,23,-86,-38,35
451,8631,4,-1701,-4724,23,-86,-38,34
452,8633,4,-1705,-4725,23,-86,-39,35
453,8638,6,-1706,-4723,23,-87,-39,35
454,8638,7,-1705,-4723,23,-87,-39,35
455,8640,6,-1708,-4723,23,-87,-39,36
456,8637,5,-1710,-4723,23,-87,-39,35
457,8640,5,-1713,-4724,23,-86,-39,35
458,8642,1,-1712,-4722,23,-86,-39,35
459,8641,3,-1715,-4723,23,-86,-39,34
460,8636,6,-1715,-4723,23,-86,-39,34
461,8633,7,-1711,-4724,23,-86,-38,34
462,8635,6,-1713,-4725,23,-87,-38,35
463,8636,9,-1712,-4725,23,-87,-38,34
464,8638,12,-1714,-4724,23,-86,-38,34
465,8637,10,-1708,-4726,23,-87,-38,34
466,8637,12,-1709,-4725,23,-87,-38,34
467,8635,5,-1706,-4725,23,-87,-38,35
468,8632,3,-1708,-4726,23,-87,-38,35
469,8631,2,-1715,-4726,23,-87,-38,35
470,8638,1,-1714,-4726,23,-87,-38,34
471,8642,3,-1715,-4726,23,-87,-38,34
472,8639,6,-1713,-4723,23,-87,-37,34
473,8639,8,-1717,-4724,23,-87,-38,34
474,8640,8,-1718,-4722,23,-88,-38,34
475,8641,8,-1716,-4722,23,-88,-38,34
476,8640,13,-1714,-4724,23,-87,-38,34
477,8638,12,-1716,-4724,23,-87,-38,34
478,8635,11,-1716,-4724,23,-87,-38,34
479,8635,9,-1715,-4725,23,-86,-38,34
480,8636,13,-1712,-4726,23,-86,-38,34
481,8634,10,-1720,-4724,23,-86,-38,34
482,8634,13,-1716,-4724,23,-87,-38,34
483,8638,9,-1708,-4725,23,-86,-37,34
484,8635,8,-1710,-4726,23,-86,-37,35
485,8632,8,-1711,-4725,23,-85,-38,35
486,8635,9,-1705,-4724,23,-85,-38,35
487,8640,10,-1709,-4724,23,-85,-38,35
488,8637,13,-1701,-4724,23,-86,-39,35
489,8636,9,-1708,-4724,23,-86,-39,35
490,8636,8,-1704,-4725,23,-86,-38,35
491,8636,12,-1701,-4724,23,-85,-38,35
492,8637,8,-1698,-4724,23,-85,-38,35
493,8637,11,-1706,-4723,23,-86,-38,35
494,8639,10,-1709,-4724,23,-87,-38,35
495,8642,9,-1706,-4724,23,-87,-38,35
496,8643,11,-1709,-4724,23,-88,-38,35
497,8636,9,-1712,-4724,23,-87,-38,34
498,8638,11,-1714,-4722,23,-88,-37,34
499,8638,9,-1711,-4722,23,-87,-38,35
500,8638,13,-1708,-4722,23,-87,-38,35
501,8636,15,-1707,-4722,23,-87,-37,35
502,8637,11,-1703,-4721,23,-86,-37,35
503,8630,8,-1708,-4721,23,-86,-37,35
504,8625,7,-1702,-4722,23,-86,-37,35
505,8626,12,-1709,-4723,23,-86,-38,35
506,8625,13,-1706,-4724,23,-86,-38,35
507,8629,12,-1712,-4723,23,-86,-39,34
508,8634,7,-1712,-4724,23,-86,-39,34
509,8632,8,-1707,-4722,23,-86,-39,34
510,8633,8,-1710,-4722,23,-86,-38,34
511,8632,9,-1712,-4723,23,-87,-38,34
512,8631,9,-1708,-4723,23,-87,-38,34
513,8632,9,-1710,-4720,23,-86,-38,34
514,8634,12,-1718,-4721,23,-86,-38,34
515,8636,11,-1712,-4720,23,-86,-39,35
516,8637,7,-1714,-4721,23,-87,-39,35
517,8638,6,-1719,-4721,23,-87,-39,34
518,8639,4,-1713,-4723,23,-87,-39,34
519,8641,8,-1712,-4722,23,-87,-39,34
520,8634,10,-1712,-4721,23,-86,-39,34
521,8635,13,-1721,-4723,23,-86,-39,35
522,8633,10,-1716,-4723,23,-86,-38,35
523,8630,8,-1716,-4721,23,-86,-38,34
524,8631,8,-1718,-4721,23,-86,-39,34
525,8633,6,-1720,-4721,23,-86,-39,34
526,8636,13,-1719,-4720,23,-86,-39,34
527,8638,17,-1723,-4721,23,-86,-39,34
528,8637,15,-1720,-4720,23,-86,-39,35
529,8633,11,-1719,-4719,23,-86,-39,35
530,8636,13,-1715,-4721,23,-86,-39,35
531,8637,13,-1712,-4720,23,-86,-39,35
532,8636,11,-1717,-4719,23,-86,-39,34
533,8629,5,-1712,-4720,23,-87,-39,34
534,8635,7,-1710,-4719,23,-87,-39,34
535,8633,7,-1708,-4720,23,-86,-39,35
536,8635,6,-1711,-4721,23,-86,-39,34
537,8638,12,-1712,-4722,23,-87,-39,34
538,8641,10,-1720,-4720,23,-87,-39,34
539,8640,7,-1719,-4722,23,-86,-39,34
540,8634,4,-1727,-4723,23,-87,-39,34
541,8634,5,-1722,-4723,23,-87,-38,35
542,8626,7,-1717,-4722,23,-86,-38,34
543,8629,5,-1718,-4724,23,-86,-38,35
544,8629,6,-1715,-4723,23,-86,-38,34
545,8630,7,-1719,-4723,23,-86,-39,34
546,8627,7,-1717,-4723,23,-86,-38,34
547,8629,3,-1720,-4722,23,-86,-38,34
548,8633,5,-1720,-4721,23,-86,-38,34
549,8635,4,-1712,-4721,23,-87,-39,34
550,8635,-1,-1711,-4721,23,-87,-38,34
551,8633,1,-1708,-4720,23,-86,-38,34
552,8634,7,-1711,-4720,23,-86,-38,34
553,8634,2,-1714,-4719,23,-86,-39,34
554,8633,3,-1714,-4720,23,-87,-39,34
555,8634,7,-1717,-4721,23,-86,-39,35
556,8634,8,-1721,-4720,23,-87,-38,35
557,8631,9,-1715,-4721,23,-87,-38,35
558,8634,5,-1713,-4719,23,-87,-38,35
559,8633,7,-1714,-4719,23,-87,-38,35
560,8633,7,-1712,-4720,23,-87,-38,35
561,8637,8,-1714,-4721,23,-87,-38,34
562,8640,8,-1712,-4721,23,-87,-38,34
563,8640,12,-1713,-4722,23,-87,-38,34
564,8637,7,-1715,-4723,23,-87,-38,34
565,8634,6,-1714,-4724,23,-87,-38,35
566,8631,8,-1713,-4723,23,-86,-38,35
567,8635,9,-1715,-4723,23,-86,-39,35
568,8637,11,-1714,-4723,23,-86,-39,34
569,8632,14,-1715,-4724,23,-86,-39,34
570,8634,9,-1711,-4725,23,-86,-39,34
571,8637,8,-1713,-4724,23,-86,-39,34
572,8635,8,-1707,-4724,23,-86,-39,34
573,8633,7,-1716,-4723,23,-86,-39,34
574,8632,15,-1718,-4723,23,-86,-38,34
575,8629,19,-1723,-4723,23,-86,-38,34
576,8631,17,-1722,-4721,23,-86,-37,34
577,8629,18,-1723,-4720,23,-86,-38,35
578,8630,20,-1714,-4720,23,-86,-38,35
579,8632,15,-1714,-4722,23,-86,-38,35
580,8639,14,-1723,-4721,23,-86,-38,35
581,8635,12,-1712,-4722,23,-87,-38,35
582,8634,9,-1711,-4721,23,-87,-38,35
583,8635,8,-1717,-4720,23,-87,-38,35
584,8643,8,-1714,-4721,23,-87,-38,35
585,8641,8,-1712,-4722,23,-87,-37,35
586,8642,6,-1719,-4723,23,-86,-38,35
587,8639,9,-1720,-4724,23,-87,-38,35
588,8645,9,-1712,-4722,23,-87,-38,35
589,8649,8,-1715,-4720,23,-87,-38,35
590,8647,5,-1720,-4721,23,-87,-39,35
591,8643,7,-1727,-4721,23,-86,-39,35
592,8642,6,-1721,-4721,23,-86,-39,34
593,8644,7,-1723,-4722,23,-86,-39,35
594,8643,2,-1718,-4721,23,-86,-38,35
595,8641,3,-1726,-4722,23,-87,-39,34
596,8642,4,-1722,-4722,23,-87,-39,34
597,8640,8,-1716,-4723,23,-86,-38,34
598,8642,12,-1716,-4722,23,-86,-39,33
599,8640,10,-1708,-4722,23,-86,-38,34
600,8637,5,-1713,-4722,23,-86,-38,35
601,8638,6,-1707,-4722,23,-87,-38,35
602,8636,9,-1709,-4721,23,-87,-37,35
603,8634,8,-1711,-4721,23,-86,-38,34
604,8634,3,-1706,-4722,23,-86,-38,35
605,8635,6,-1705,-4722,23,-86,-38,35
606,8633,7,-1707,-4722,23,-86,-38,35
607,8634,8,-1712,-4723,23,-87,-38,35
608,8639,5,-1711,-4722,23,-86,-39,35
609,8638,7,-1707,-4721,23,-86,-38,35
610,8634,6,-1709,-4721,23,-86,-38,35
611,8630,4,-1708,-4720,23,-86,-38,35
612,8630,6,-1711,-4721,23,-86,-38,35
613,8631,-4,-1713,-4722,23,-86,-38,35
614,8634,3,-1715,-4722,23,-86,-39,34
615,8633,5,-1714,-4722,23,-86,-39,34
616,8637,5,-1708,-4721,23,-86,-38,34
617,8637,7,-1706,-4721,23,-87,-38,34
618,8640,9,-1710,-4719,23,-87,-38,34
619,8638,8,-1712,-4721,23,-86,-38,34
620,8634,6,-1715,-4720,23,-87,-38,35
621,8637,6,-1717,-4720,23,-87,-38,35
622,8638,3,-1714,-4719,23,-87,-38,35
623,8642,8,-1717,-4720,23,-87,-38,34
624,8640,7,-1712,-4720,23,-86,-39,34
625,8635,7,-1712,-4720,23,-86,-38,34
626,8636,6,-1718,-4721,23,-86,-39,35
627,8638,5,-1719,-4720,23,-86,-39,34
628,8634,6,-1712,-4721,23,-86,-38,34
629,8634,4,-1715,-4721,23,-86,-38,34
630,8640,6,-1716,-4723,23,-86,-39,34
631,8636,6,-1717,-4723,23,-85,-38,34
632,8635,7,-1718,-4722,23,-86,-38,34
633,8634,3,-1713,-4722,23,-86,-38,34
634,8631,8,-1707,-4720,23,-85,-38,34
635,8626,7,-1706,-4721,23,-85,-38,34
636,8629,4,-1705,-4719,23,-86,-38,34
637,8639,7,-1706,-4719,23,-86,-38,35
638,8636,10,-1703,-4721,23,-85,-38,35
639,8631,4,-1697,-4722,23,-86,-38,35
640,8633,5,-1698,-4721,23,-86,-37,35
641,8632,5,-1694,-4722,23,-85,-38,35
642,8636,5,-1689,-4722,23,-85,-38,35
643,8638,-1,-1699,-4723,23,-86,-38,35
644,8637,2,-1700,-4723,23,-86,-38,35
645,8642,1,-1708,-4723,23,-86,-38,35
646,8638,4,-1705,-4722,23,-86,-38,35
647,8633,3,-1705,-4721,23,-86,-37,35
648,8637,6,-1701,-4721,23,-87,-38,35
649,8636,4,-1703,-4721,23,-87,-37,35
650,8635,0,-1702,-4722,23,-87,-37,35
651,8634,-2,-1701,-4720,23,-87,-38,36
652,8630,2,-1700,-4720,23,-87,-38,35
653,8632,0,-1702,-4720,23,-87,-39,35
654,8632,4,-1703,-4720,23,-86,-39,34
655,8634,5,-1707,-4721,23,-86,-38,35
656,8636,6,-1708,-4723,23,-86,-38,34
657,8635,6,-1712,-4722,23,-86,-39,34
658,8641,7,-1711,-4721,23,-86,-39,34
659,8644,7,-1712,-4720,23,-87,-39,34
660,8635,7,-1718,-4721,23,-87,-39,34
661,8638,3,-1722,-4722,23,-87,-39,35
662,8635,2,-1717,-4721,23,-86,-39,35
663,8641,4,-1716,-4722,23,-86,-39,35
664,8641,6,-1716,-4722,23,-86,-39,35
665,8639,9,-1716,-4723,23,-86,-39,35
666,8640,10,-1716,-4722,23,-86,-39,34
667,8636,5,-1715,-4721,23,-86,-39,34
668,8638,5,-1718,-4721,23,-86,-40,35
669,8642,5,-1714,-4723,23,-87,-40,35
670,8640,11,-1717,-4723,23,-87,-40,34
671,8643,9,-1719,-4724,23,-87,-39,34
672,8640,8,-1718,-4724,23,-87,-38,34
673,8641,6,-1717,-4722,23,-87,-38,34
674,8642,7,-1715,-4722,23,-87,-38,34
675,8641,3,-1712,-4722,23,-86,-38,34
676,8638,0,-1707,-4722,23,-86,-38,34
677,8636,4,-1703,-4723,23,-86,-38,34
678,8629,4,-1696,-4723,23,-86,-38,34
679,8630,4,-1697,-4724,23,-87,-38,35
680,8631,6,-1698,-4724,23,-87,-38,35
681,8634,5,-1705,-4725,23,-86,-39,34
682,8631,5,-1710,-4725,23,-86,-39,34
683,8632,1,-1708,-4722,23,-86,-38,34
684,8639,1,-1709,-4723,23,-86,-39,33
685,8635,0,-1712,-4725,23,-87,-39,34
686,8640,2,-1719,-4724,23,-87,-39,34
687,8642,-1,-1720,-4725,23,-87,-39,34
688,8642,1,-1725,-4725,23,-87,-39,33
689,8638,0,-1714,-4723,23,-87,-39,33
690,8632,1,-1706,-4723,23,-87,-38,33
691,8632,7,-1709,-4723,23,-86,-38,33
692,8631,9,-1713,-4723,23,-86,-38,34
693,8629,8,-1714,-4721,23,-86,-37,34
694,8632,12,-1716,-4722,23,-86,-37,34
695,8637,6,-1706,-4722,23,-86,-38,34
696,8637,5,-1706,-4722,23,-86,-38,34
697,8636,3,-1706,-4723,23,-86,-38,34
698,8634,-5,-1709,-4724,23,-86,-38,34
699,8633,-2,-1712,-4725,23,-86,-38,34
700,8636,0,-1714,-4725,23,-86,-38,34
701,8637,5,-1705,-4724,23,-86,-38,34
702,8632,6,-1705,-4722,23,-86,-38,34
703,8634,8,-1703,-4721,23,-86,-38,34
704,8636,6,-1704,-4722,23,-86,-38,34
705,8638,4,-1708,-4722,23,-86,-38,34
706,8638,3,-1706,-4722,23,-86,-37,34
707,8638,2,-1708,-4723,23,-86,-38,35
708,8638,2,-1705,-4722,23,-86,-38,35
709,8635,3,-1697,-4722,23,-86,-38,35
710,8640,2,-1701,-4723,23,-86,-38,35
711,8643,7,-1698,-4721,23,-86,-38,34
712,8637,5,-1708,-4722,23,-87,-38,35
713,8640,5,-1700,-4722,23,-86,-38,34
714,8640,10,-1706,-4723,23,-86,-38,34
715,8642,12,-1708,-4724,23,-86,-38,34
716,8641,18,-1707,-4724,23,-86,-38,34
717,8641,14,-1708,-4723,23,-86,-38,34
718,8641,11,-1711,-4724,23,-86,-39,35
719,8643,8,-1706,-4722,23,-86,-38,35
720,8648,8,-1712,-4722,23,-86,-38,35
721,8641,8,-1716,-4721,23,-86,-39,35
722,8640,8,-1714,-4720,23,-86,-39,35
723,8642,8,-1716,-4719,23,-86,-39,34
724,8641,9,-1722,-4718,23,-86,-39,34
725,8646,6,-1719,-4718,23,-86,-39,34
726,8643,10,-1723,-4719,23,-86,-39,34
727,8641,5,-1715,-4720,23,-86,-39,34
728,8638,10,-1719,-4718,23,-86,-38,34
729,8639,11,-1718,-4719,23,-85,-38,34
730,8633,14,-1714,-4720,23,-85,-38,34
731,8632,9,-1723,-4720,23,-86,-38,34
732,8631,10,-1721,-4720,23,-86,-38,35
733,8630,10,-1716,-4720,23,-86,-38,35
734,8631,11,-1712,-4720,23,-86,-38,35
735,8633,14,-1718,-4720,23,-85,-39,34
736,8631,5,-1713,-4719,23,-86,-39,34
737,8628,6,-1717,-4720,23,-86,-39,34
738,8630,5,-1719,-4720,23,-87,-39,34
739,8628,2,-1718,-4719,23,-87,-38,34
740,8631,-2,-1716,-4720,23,-86,-38,34
741,8632,0,-1712,-4720,23,-86,-38,35
742,8633,2,-1707,-4719,23,-86,-38,35
743,8638,4,-1711,-4718,23,-86,-38,35
744,8640,8,-1714,-4718,23,-85,-38,35
745,8644,5,-1714,-4719,23,-85,-39,35
746,8641,6,-1712,-4720,23,-86,-39,35
747,8646,6,-1714,-4721,23,-86,-39,35
748,8640,7,-1713,-4719,23,-86,-38,34
749,8642,8,-1711,-4718,23,-86,-38,34
750,8641,5,-1708,-4715,23,-86,-38,34
751,8639,10,-1712,-4717,23,-87,-38,35
752,8640,13,-1716,-4716,23,-86,-38,34
753,8638,16,-1709,-4718,23,-86,-38,35
754,8640,20,-1712,-4718,23,-87,-38,34
755,8641,20,-1714,-4720,23,-87,-39,34
756,8640,17,-1712,-4719,23,-87,-39,34
757,8639,11,-1712,-4720,23,-86,-38,35
758,8638,7,-1710,-4721,23,-86,-39,35
759,8637,11,-1704,-4721,23,-86,-38,34
760,8640,6,-1712,-4720,23,-86,-39,34
761,8643,7,-1711,-4718,23,-86,-39,34
762,8637,5,-1709,-4719,23,-86,-39,34
763,8634,5,-1712,-4721,23,-86,-39,34
764,8633,3,-1712,-4719,23,-86,-39,34
765,8630,4,-1717,-4721,23,-85,-39,34
766,8628,7,-1713,-4720,23,-86,-40,35
767,8630,7,-1712,-4718,23,-86,-39,35
768,8634,7,-1708,-4720,23,-86,-38,34
769,8634,1,-1715,-4718,23,-87,-39,34
770,8635,2,-1715,-4720,23,-87,-39,34
771,8634,6,-1712,-4720,23,-86,-39,35
772,8633,1,-1713,-4719,23,-86,-39,35
773,8637,2,-1714,-4720,23,-86,-39,35
774,8630,4,-1718,-4721,23,-86,-39,35
775,8628,6,-1718,-4720,23,-86,-39,34
776,8631,4,-1712,-4722,23,-86,-39,34
777,8632,8,-1715,-4718,23,-85,-39,34
778,8632,8,-1705,-4719,23,-86,-38,34
779,8633,8,-1706,-4718,23,-86,-38,34
780,8632,9,-1707,-4720,23,-86,-38,34
781,8638,9,-1714,-4719,23,-86,-39,35
782,8635,6,-1709,-4719,23,-86,-38,34
783,8633,9,-1716,-4720,23,-87,-38,35
784,8632,7,-1719,-4719,23,-86,-38,35
785,8629,9,-1724,-4719,23,-86,-38,35
786,8631,12,-1722,-4718,23,-87,-39,35
787,8634,9,-1723,-4719,23,-86,-38,35
788,8634,10,-1719,-4720,23,-86,-38,35
789,8635,8,-1718,-4722,23,-85,-39,35
790,8639,8,-1715,-4722,23,-86,-39,35
791,8645,10,-1722,-4722,23,-86,-39,35
792,8645,11,-1720,-4721,23,-86,-39,35
793,8643,7,-1720,-4723,23,-87,-39,35
794,8640,7,-1719,-4723,23,-87,-39,35
795,8637,3,-1719,-4721,23,-86,-39,35
796,8635,2,-1711,-4720,23,-87,-38,34
797,8636,6,-1711,-4719,23,-86,-38,35
798,8640,6,-1711,-4720,23,-87,-38,35
799,8640,5,-1710,-4720,23,-87,-38,35
800,8638,6,-1717,-4722,23,-86,-38,35
801,8638,7,-1720,-4722,23,-86,-38,35
802,8640,2,-1719,-4723,23,-86,-38,35
803,8639,-3,-1720,-4723,23,-86,-38,35
804,8637,-4,-1718,-4721,23,-86,-38,35
805,8637,-1,-1716,-4721,23,-87,-38,35
806,8636,4,-1725,-4720,23,-87,-39,35
807,8640,6,-1721,-4720,23,-88,-39,34
808,8638,8,-1721,-4720,23,-88,-38,34
809,8639,5,-1719,-4721,23,-87,-38,35
810,8640,2,-1719,-4721,23,-86,-39,34
811,8636,7,-1716,-4722,23,-87,-39,34
812,8632,5,-1715,-4721,23,-87,-38,34
813,8638,9,-1718,-4721,23,-87,-38,34
814,8639,8,-1719,-4720,23,-87,-39,34
815,8637,6,-1722,-4721,23,-87,-38,35
816,8636,10,-1722,-4720,23,-87,-38,35
817,8636,9,-1727,-4721,23,-87,-38,35
818,8637,3,-1733,-4721,23,-87,-38,35
819,8639,9,-1728,-4722,23,-87,-39,35
820,8640,6,-1720,-4721,23,-86,-38,35
821,8640,9,-1711,-4720,23,-86,-38,35
822,8640,9,-1713,-4721,23,-86,-38,35
823,8638,9,-1715,-4722,23,-86,-38,35
824,8637,3,-1714,-4720,23,-86,-38,35
825,8642,4,-1711,-4720,23,-86,-38,34
826,8640,4,-1711,-4722,23,-86,-38,34
827,8639,4,-1719,-4722,23,-86,-38,34
828,8641,8,-1718,-4723,23,-86,-38,35
829,8643,10,-1714,-4722,23,-86,-38,34
830,8641,5,-1717,-4722,23,-86,-38,35
831,8638,1,-1722,-4722,23,-87,-38,35
832,8635,2,-1712,-4722,23,-87,-38,35
833,8634,-2,-1714,-4722,23,-86,-38,35
834,8635,-1,-1715,-4722,23,-86,-39,35
835,8640,-2,-1721,-4720,23,-86,-38,35
836,8643,-4,-1722,-4721,23,-87,-38,36
837,8644,-5,-1723,-4723,23,-86,-39,35
838,8647,1,-1718,-4726,23,-86,-38,35
839,8649,1,-1720,-4725,23,-86,-39,35
840,8648,3,-1723,-4722,23,-86,-39,35
841,8645,3,-1728,-4722,23,-86,-38,35
842,8644,7,-1723,-4721,23,-86,-39,35
843,8642,7,-1719,-4721,23,-86,-38,35
844,8635,7,-1718,-4722,23,-86,-38,35
845,8632,8,-1719,-4721,23,-86,-38,35
846,8636,12,-1718,-4720,23,-87,-38,34
847,8639,12,-1717,-4720,23,-87,-38,34
848,8637,10,-1715,-4721,23,-86,-38,35
849,8641,13,-1716,-4720,23,-87,-38,35
850,8639,16,-1710,-4720,23,-87,-38,35
851,8637,20,-1720,-4719,23,-87,-38,35
852,8630,14,-1714,-4720,23,-86,-37,35
853,8632,17,-1713,-4719,23,-86,-36,34
854,8636,17,-1714,-4718,23,-86,-37,34
855,8634,10,-1716,-4719,23,-86,-37,34
856,8637,10,-1717,-4720,23,-86,-36,34
857,8635,9,-1712,-4720,23,-86,-36,34
858,8639,3,-1711,-4720,23,-86,-37,34
859,8636,3,-1709,-4719,23,-86,-37,34
860,8637,8,-1703,-4719,23,-86,-37,35
861,8636,8,-1705,-4720,23,-86,-37,34
862,8636,10,-1698,-4720,23,-86,-37,34
863,8635,10,-1706,-4720,23,-86,-37,34
864,8639,5,-1709,-4721,23,-86,-38,34
865,8643,8,-1703,-4721,23,-87,-38,34
866,8645,8,-1710,-4720,23,-87,-38,34
867,8645,8,-1718,-4718,23,-87,-38,34
868,8645,8,-1716,-4717,23,-87,-38,34
869,8640,7,-1714,-4718,23,-87,-38,34
870,8636,6,-1714,-4719,23,-87,-38,34
871,8633,7,-1713,-4718,23,-88,-38,35
872,8629,7,-1708,-4717,23,-87,-38,35
873,8634,10,-1707,-4716,23,-87,-38,34
874,8629,9,-1708,-4716,23,-87,-38,35
875,8625,9,-1704,-4717,23,-86,-38,35
876,8629,6,-1704,-4717,23,-86,-39,34
877,8634,7,-1708,-4718,23,-86,-39,35
878,8629,10,-1705,-4720,23,-86,-38,34
879,8626,10,-1711,-4722,23,-85,-38,35
880,8628,7,-1709,-4723,23,-86,-38,35
881,8631,10,-1712,-4721,23,-87,-38,35
882,8635,5,-1715,-4720,23,-87,-38,35
883,8634,8,-1724,-4720,23,-86,-38,34
884,8640,5,-1724,-4720,23,-86,-39,34
885,8636,7,-1727,-4720,23,-86,-38,34
886,8634,12,-1722,-4719,23,-87,-38,34
887,8637,6,-1725,-4720,23,-87,-38,34
888,8639,2,-1716,-4720,23,-86,-39,34
889,8639,5,-1717,-4720,23,-86,-38,34
890,8641,5,-1713,-4721,23,-86,-38,34
891,8641,7,-1711,-4721,23,-86,-39,34
892,8642,9,-1708,-4721,23,-86,-38,34
893,8640,4,-1709,-4721,23,-87,-38,34
894,8637,1,-1714,-4720,23,-86,-38,34
895,8636,2,-1714,-4723,23,-86,-38,34
896,8638,7,-1715,-4722,23,-87,-38,34
897,8636,3,-1723,-4722,23,-87,-37,34
898,8639,3,-1718,-4723,23,-87,-38,35
899,8639,9,-1717,-4722,23,-87,-37,35
900,8642,8,-1712,-4721,23,-87,-37,35
901,8643,11,-1712,-4721,23,-86,-38,35
902,8641,10,-1710,-4721,23,-86,-38,34
903,8636,14,-1717,-4719,23,-86,-38,35
904,8638,12,-1716,-4718,23,-86,-37,35
905,8643,8,-1712,-4719,23,-87,-38,35
906,8648,9,-1708,-4719,23,-87,-37,35
907,8645,9,-1702,-4719,23,-87,-37,34
908,8640,6,-1694,-4720,23,-86,-37,34
909,8640,10,-1702,-4720,23,-87,-37,34
910,8640,11,-1703,-4722,23,-87,-37,34
911,8641,14,-1701,-4721,23,-87,-38,34
912,8639,15,-1708,-4719,23,-88,-38,34
913,8635,14,-1709,-4720,23,-87,-38,34
914,8637,17,-1710,-4720,23,-87,-39,34
915,8637,14,-1714,-4720,23,-87,-39,34
916,8634,11,-1716,-4719,23,-87,-38,35
917,8637,11,-1722,-4718,23,-87,-39,34
918,8631,12,-1727,-4718,23,-87,-38,34
919,8631,11,-1723,-4718,23,-87,-38,34
920,8635,2,-1721,-4718,23,-87,-37,34
921,8635,1,-1723,-4720,23,-87,-38,34
922,8635,6,-1722,-4720,23,-87,-38,35
923,8635,14,-1721,-4721,23,-87,-38,34
924,8635,13,-1717,-4720,23,-87,-38,34
925,8635,8,-1716,-4718,23,-87,-38,34
926,8636,9,-1708,-4718,23,-87,-38,34
927,8638,13,-1715,-4717,23,-87,-37,34
928,8640,16,-1716,-4718,23,-87,-38,34
929,8639,14,-1716,-4717,23,-87,-38,34
930,8638,15,-1719,-4716,23,-86,-38,34
931,8637,9,-1714,-4717,23,-87,-38,34
932,8641,7,-1714,-4716,23,-87,-38,34
933,8639,5,-1714,-4717,23,-87,-38,34
934,8634,6,-1709,-4718,23,-87,-38,34
935,8635,7,-1708,-4719,23,-87,-38,34
936,8632,9,-1707,-4718,23,-87,-38,35
937,8631,15,-1707,-4720,23,-87,-38,35
938,8636,13,-1711,-4720,23,-87,-38,35
939,8641,11,-1714,-4719,23,-87,-37,34
940,8638,10,-1712,-4719,23,-86,-38,34
941,8636,10,-1710,-4719,23,-86,-38,34
942,8636,5,-1709,-4719,23,-86,-38,34
943,8635,8,-1719,-4719,23,-86,-38,34
944,8634,14,-1715,-4720,23,-86,-38,34
945,8635,19,-1711,-4720,23,-86,-38,34
946,8633,15,-1714,-4719,23,-86,-38,34
947,8632,12,-1713,-4719,23,-86,-38,34
948,8635,17,-1712,-4720,23,-86,-38,35
949,8637,13,-1706,-4719,23,-86,-38,35
950,8635,13,-1708,-4721,23,-85,-38,34
951,8633,7,-1714,-4720,23,-85,-38,34
952,8636,0,-1713,-4720,23,-86,-38,34
953,8633,-4,-1722,-4719,23,-86,-38,34
954,8629,0,-1720,-4720,23,-86,-38,34
955,8631,5,-1711,-4719,23,-86,-38,34
956,8628,6,-1715,-4717,23,-86,-38,34
957,8625,9,-1720,-4718,23,-86,-37,34
958,8629,12,-1720,-4718,23,-86,-38,34
959,8629,5,-1715,-4719,23,-87,-38,35
960,8629,8,-1708,-4718,23,-86,-38,34
961,8630,8,-1702,-4718,23,-86,-39,34
962,8635,12,-1701,-4721,23,-86,-39,34
963,8640,14,-1703,-4721,23,-87,-39,34
964,8635,9,-1710,-4721,23,-86,-38,34
965,8635,9,-1709,-4720,23,-86,-38,34
966,8634,6,-1712,-4721,23,-86,-37,34
967,8633,10,-1713,-4722,23,-86,-37,34
968,8632,11,-1714,-4722,23,-86,-38,34
969,8638,10,-1717,-4721,23,-86,-37,34
970,8646,16,-1718,-4719,23,-86,-38,34
971,8646,13,-1721,-4720,23,-87,-38,35
972,8641,16,-1714,-4721,23,-86,-38,34
973,8640,12,-1717,-4720,23,-86,-39,34
974,8642,13,-1708,-4719,23,-85,-39,34
975,8637,13,-1715,-4718,23,-86,-39,34
976,8640,10,-1718,-4719,23,-86,-39,34
977,8637,8,-1716,-4719,23,-86,-39,34
978,8635,7,-1713,-4719,23,-86,-39,34
979,8632,6,-1709,-4721,23,-86,-39,34
980,8640,-1,-1717,-4723,23,-86,-38,35
981,8639,0,-1716,-4724,23,-86,-38,34
982,8638,1,-1713,-4724,23,-86,-38,35
983,8638,0,-1719,-4723,23,-86,-38,35
984,8640,1,-1718,-4723,23,-86,-38,35
985,8636,4,-1711,-4723,23,-86,-38,35
986,8637,3,-1716,-4723,23,-87,-39,35
987,8630,-1,-1724,-4720,23,-87,-39,35
988,8632,-2,-1726,-4719,23,-87,-39,34
989,8637,4,-1723,-4720,23,-86,-38,34
990,8637,3,-1721,-4721,23,-86,-38,34
991,8642,-1,-1719,-4721,23,-86,-38,34
992,8640,3,-1719,-4721,23,-86,-38,34
993,8636,6,-1722,-4722,23,-86,-38,35
994,8639,10,-1719,-4723,23,-85,-38,35
995,8630,8,-1713,-4725,23,-86,-38,35
996,8631,13,-1718,-4724,23,-85,-38,35
997,8632,11,-1723,-4725,23,-85,-38,34
998,8633,12,-1725,-4723,23,-86,-38,34
