,acc_X,acc_Y,acc_Z,temp,tempC,gyr_X,gyr_Y,gyr_Z
0,17314,-20,-3300,-4694,23,-347,-144,125
1,17178,18,-3318,-4686,23,-351,-149,141
2,17320,16,-3362,-4680,23,-342,-137,154
3,17244,52,-3364,-4680,23,-341,-149,146
4,17304,50,-3448,-4678,23,-333,-165,135
5,17360,-28,-3408,-4680,23,-351,-182,137
6,17308,42,-3370,-4680,23,-354,-150,139
7,17274,-52,-3422,-4682,23,-338,-133,162
8,17346,-50,-3360,-4700,23,-341,-156,138
9,17282,6,-3344,-4688,23,-361,-144,141
10,17294,128,-3374,-4687,23,-343,-148,139
11,17278,-26,-3348,-4681,23,-351,-166,163
12,17270,14,-3382,-4674,23,-339,-160,133
13,17234,90,-3366,-4702,23,-357,-148,132
14,17308,-80,-3436,-4701,23,-348,-164,124
15,17336,64,-3452,-4679,23,-363,-140,130
16,17250,36,-3468,-4689,23,-353,-157,145
17,17262,10,-3506,-4678,23,-344,-151,135
18,17326,32,-3338,-4683,23,-345,-159,148
19,17344,38,-3346,-4674,23,-364,-144,141
20,17344,-58,-3380,-4690,23,-355,-149,122
21,17272,52,-3506,-4687,23,-323,-159,137
22,17214,46,-3378,-4684,23,-334,-151,130
23,17348,22,-3452,-4684,23,-355,-154,139
24,17298,-42,-3286,-4680,23,-352,-138,162
25,17244,60,-3396,-4680,23,-337,-140,147
26,17248,14,-3378,-4682,23,-349,-144,132
27,17292,14,-3338,-4685,23,-356,-137,145
28,17254,-20,-3458,-4685,23,-349,-158,118
29,17252,16,-3374,-4685,23,-360,-149,144
30,17302,52,-3332,-4696,23,-328,-181,154
31,17324,-36,-3522,-4683,23,-342,-158,134
32,17296,28,-3384,-4682,23,-351,-145,143
33,17272,28,-3328,-4685,23,-343,-149,143
34,17322,70,-3444,-4687,23,-329,-155,126
35,17240,20,-3364,-4680,23,-364,-145,139
36,17322,54,-3296,-4683,23,-323,-159,138
37,17240,-74,-3406,-4680,23,-332,-136,138
38,17320,32,-3446,-4694,23,-336,-149,149
39,17232,2,-3334,-4701,23,-341,-144,151
40,17288,16,-3306,-4697,23,-348,-160,142
41,17288,-64,-3456,-4686,23,-355,-157,145
42,17284,42,-3440,-4670,23,-351,-139,138
43,17202,22,-3374,-4674,23,-348,-132,144
44,17298,-42,-3326,-4693,23,-345,-150,136
45,17240,30,-3358,-4693,23,-361,-147,131
46,17292,32,-3388,-4682,23,-364,-156,135
47,17274,66,-3468,-4687,23,-364,-147,143
48,17296,40,-3510,-4689,23,-349,-144,140
49,17178,46,-3496,-4679,23,-344,-173,140
50,17276,-40,-3410,-4704,23,-348,-159,128
51,17344,-38,-3388,-4691,23,-359,-155,144
52,17310,50,-3350,-4687,23,-354,-140,144
53,17310,20,-3418,-4682,23,-343,-155,136
54,17254,-34,-3374,-4684,23,-342,-141,133
55,17274,-70,-3530,-4678,23,-364,-135,138
56,17200,48,-3396,-4690,23,-339,-159,154
57,17318,-62,-3402,-4677,23,-344,-163,137
58,17324,-44,-3432,-4688,23,-352,-128,141
59,17318,10,-3388,-4685,23,-343,-144,135
60,17170,34,-3412,-4693,23,-355,-167,132
61,17264,-10,-3416,-4687,23,-361,-132,131
62,17282,6,-3260,-4682,23,-345,-147,145
63,17290,64,-3324,-4690,23,-341,-154,144
64,17310,4,-3338,-4683,23,-341,-141,135
65,17252,-18,-3402,-4684,23,-335,-153,125
66,17284,-6,-3332,-4677,23,-355,-149,133
67,17232,-62,-3500,-4696,23,-350,-152,140
68,17242,-18,-3404,-4687,23,-351,-148,137
69,17406,52,-3308,-4688,23,-327,-153,138
70,17360,-6,-3368,-4682,23,-352,-156,137
71,17294,30,-3352,-4672,23,-349,-178,152
72,17306,-70,-3596,-4704,23,-344,-125,125
73,17218,-24,-3360,-4669,23,-338,-129,135
74,17350,-88,-3326,-4689,23,-338,-175,129
75,17316,22,-3344,-4691,23,-354,-148,149
76,17242,-18,-3342,-4681,23,-337,-145,133
77,17232,-30,-3492,-4684,23,-335,-145,140
78,17326,-20,-3284,-4672,23,-356,-146,123
79,17278,20,-3414,-4671,23,-344,-169,125
80,17278,-18,-3526,-4694,23,-340,-154,152
81,17266,-58,-3224,-4676,23,-359,-164,139
82,17318,58,-3534,-4677,23,-356,-154,138
83,17270,22,-3276,-4673,23,-351,-141,132
84,17264,16,-3382,-4688,23,-351,-144,140
85,17276,82,-3410,-4685,23,-339,-148,149
86,17356,6,-3444,-4706,23,-351,-170,134
87,17232,68,-3292,-4687,23,-334,-160,123
88,17258,20,-3386,-4682,23,-373,-153,120
89,17274,48,-3432,-4686,23,-353,-143,140
90,17300,20,-3338,-4686,23,-356,-142,143
91,17278,2,-3410,-4678,23,-348,-152,143
92,17210,12,-3308,-4689,23,-336,-148,147
93,17256,-50,-3406,-4684,23,-341,-165,131
94,17256,90,-3416,-4702,23,-337,-165,135
95,17300,30,-3322,-4686,23,-347,-161,158
96,17266,32,-3480,-4682,23,-337,-165,146
97,17266,58,-3386,-4673,23,-345,-160,132
98,17316,-10,-3358,-4681,23,-347,-149,152
99,17248,2,-3382,-4681,23,-353,-154,137
100,17294,16,-3450,-4701,23,-353,-174,137
101,17264,-20,-3406,-4688,23,-356,-147,138
102,17306,-10,-3426,-4698,23,-342,-152,139
103,17306,-42,-3488,-4696,23,-365,-144,143
104,17296,-54,-3336,-4691,23,-350,-147,144
105,17290,40,-3350,-4680,23,-338,-160,132
106,17284,6,-3340,-4697,23,-355,-163,136
107,17218,28,-3456,-4668,23,-346,-136,135
108,17356,2,-3414,-4694,23,-360,-145,147
109,17302,-108,-3362,-4689,23,-344,-149,136
110,17268,-14,-3408,-4687,23,-344,-159,141
111,17296,20,-3434,-4698,23,-343,-123,112
112,17206,-24,-3372,-4683,23,-349,-155,129
113,17316,-28,-3284,-4675,23,-355,-155,140
114,17232,0,-3334,-4690,23,-355,-157,136
115,17384,2,-3482,-4681,23,-340,-150,135
116,17322,48,-3402,-4683,23,-342,-148,146
117,17306,-30,-3306,-4687,23,-364,-152,131
118,17198,40,-3324,-4675,23,-346,-147,136
119,17318,-68,-3398,-4690,23,-343,-146,128
120,17244,-6,-3456,-4682,23,-360,-148,146
121,17298,-4,-3434,-4691,23,-357,-151,155
122,17286,-90,-3348,-4690,23,-345,-158,147
123,17266,-56,-3330,-4670,23,-353,-165,134
124,17290,6,-3336,-4687,23,-350,-162,136
125,17306,-36,-3352,-4689,23,-347,-151,129
126,17236,16,-3214,-4683,23,-347,-167,149
127,17298,-64,-3508,-4669,23,-344,-157,128
128,17258,40,-3394,-4687,23,-359,-153,130
129,17232,28,-3416,-4693,23,-342,-151,175
130,17272,16,-3424,-4688,23,-349,-150,151
131,17302,-32,-3452,-4690,23,-346,-164,145
132,17232,58,-3366,-4680,23,-358,-139,138
133,17292,-2,-3384,-4692,23,-350,-150,147
134,17278,-28,-3480,-4694,23,-348,-158,150
135,17288,6,-3292,-4676,23,-338,-156,140
136,17248,8,-3392,-4675,23,-341,-137,135
137,17242,-48,-3416,-4675,23,-357,-165,130
138,17308,30,-3316,-4692,23,-360,-164,137
139,17242,66,-3396,-4681,23,-343,-134,154
140,17268,-22,-3366,-4681,23,-334,-154,152
141,17262,-16,-3398,-4700,23,-357,-173,147
142,17264,28,-3342,-4675,23,-354,-132,139
143,17308,46,-3324,-4684,23,-351,-144,131
144,17304,-24,-3306,-4694,23,-349,-142,154
145,17400,46,-3410,-4683,23,-356,-166,148
146,17224,14,-3438,-4676,23,-350,-135,143
147,17386,34,-3368,-4679,23,-346,-167,139
148,17236,20,-3486,-4685,23,-344,-157,143
149,17300,20,-3496,-4694,23,-354,-148,136
150,17284,32,-3402,-4690,23,-346,-169,149
151,17220,-62,-3482,-4673,23,-346,-142,137
152,17286,-52,-3326,-4679,23,-358,-142,144
153,17272,34,-3416,-4693,23,-354,-152,128
154,17224,26,-3484,-4683,23,-335,-152,155
155,17324,-24,-3382,-4668,23,-349,-154,151
156,17250,2,-3304,-4688,23,-339,-139,147
157,17244,68,-3388,-4693,23,-356,-150,125
158,17288,94,-3356,-4687,23,-359,-155,125
159,17278,-42,-3490,-4689,23,-348,-148,130
160,17240,6,-3306,-4687,23,-329,-138,138
161,17320,-2,-3432,-4682,23,-326,-132,138
162,17210,-6,-3322,-4678,23,-348,-169,143
163,17324,-18,-3388,-4687,23,-356,-151,132
164,17250,14,-3382,-4679,23,-352,-159,151
165,17280,-22,-3352,-4680,23,-352,-135,143
166,17256,-28,-3406,-4690,23,-339,-138,125
167,17300,-58,-3500,-4679,23,-373,-140,139
168,17214,4,-3454,-4693,23,-345,-151,146
169,17282,30,-3408,-4689,23,-339,-148,133
170,17234,6,-3316,-4681,23,-358,-161,149
171,17272,18,-3370,-4673,23,-345,-170,136
172,17252,42,-3440,-4680,23,-347,-145,138
173,17204,0,-3506,-4699,23,-342,-162,132
174,17296,-2,-3276,-4674,23,-348,-156,131
175,17240,30,-3326,-4682,23,-337,-157,133
176,17350,16,-3362,-4681,23,-342,-147,132
177,17304,82,-3434,-4676,23,-346,-144,142
178,17256,68,-3450,-4690,23,-364,-148,129
179,17214,62,-3384,-4680,23,-344,-161,144
180,17220,2,-3414,-4692,23,-360,-141,128
181,17276,-16,-3380,-4686,23,-333,-155,150
182,17246,-32,-3358,-4676,23,-364,-173,136
183,17254,34,-3446,-4693,23,-347,-121,154
184,17290,54,-3376,-4682,23,-353,-142,140
185,17258,22,-3352,-4684,23,-359,-140,147
186,17194,-56,-3464,-4667,23,-353,-169,138
187,17274,66,-3328,-4679,23,-350,-144,144
188,17306,8,-3366,-4686,23,-342,-153,142
189,17304,4,-3378,-4687,23,-338,-161,126
190,17236,40,-3410,-4692,23,-342,-151,121
191,17280,-10,-3348,-4681,23,-355,-139,134
192,17254,-14,-3340,-4697,23,-345,-140,127
193,17358,26,-3336,-4686,23,-343,-141,146
194,17262,58,-3332,-4689,23,-337,-149,139
195,17288,-30,-3448,-4676,23,-344,-146,136
196,17292,-42,-3418,-4674,23,-342,-144,144
197,17270,-46,-3354,-4682,23,-338,-158,137
198,17290,56,-3274,-4685,23,-343,-136,121
199,17294,4,-3408,-4678,23,-325,-152,147
200,17296,34,-3484,-4680,23,-348,-153,146
201,17298,-40,-3368,-4695,23,-338,-141,138
202,17296,-38,-3364,-4691,23,-354,-149,143
203,17326,-38,-3290,-4676,23,-380,-150,145
204,17294,-80,-3416,-4690,23,-340,-154,131
205,17212,84,-3400,-4688,23,-351,-143,128
206,17314,46,-3228,-4685,23,-354,-150,146
207,17258,-26,-3444,-4675,23,-358,-133,138
208,17194,42,-3308,-4694,23,-371,-163,144
209,17270,22,-3366,-4694,23,-356,-142,144
210,17164,-40,-3452,-4683,23,-353,-142,142
211,17264,-42,-3430,-4686,23,-333,-148,143
212,17292,-46,-3430,-4685,23,-335,-155,133
213,17298,88,-3472,-4678,23,-331,-160,135
214,17206,12,-3386,-4672,23,-346,-151,126
215,17218,-14,-3340,-4678,23,-371,-164,135
216,17204,84,-3462,-4687,23,-346,-157,110
217,17212,-22,-3378,-4691,23,-354,-150,137
218,17316,26,-3310,-4673,23,-353,-131,149
219,17324,-26,-3344,-4681,23,-348,-145,130
220,17302,-34,-3336,-4683,23,-362,-156,119
221,17254,14,-3328,-4682,23,-340,-161,139
222,17344,-54,-3348,-4679,23,-339,-141,148
223,17268,34,-3356,-4666,23,-351,-146,143
224,17288,18,-3452,-4679,23,-352,-159,135
225,17284,-34,-3480,-4670,23,-351,-149,152
226,17270,-18,-3294,-4682,23,-361,-154,132
227,17244,44,-3376,-4676,23,-340,-165,161
228,17188,6,-3348,-4671,23,-353,-152,135
229,17298,-32,-3370,-4677,23,-359,-169,135
230,17274,-44,-3418,-4677,23,-339,-146,147
231,17248,14,-3436,-4690,23,-341,-165,155
232,17308,-34,-3332,-4679,23,-352,-166,142
233,17328,44,-3382,-4676,23,-351,-152,140
234,17320,0,-3436,-4679,23,-350,-147,135
235,17238,20,-3340,-4683,23,-343,-154,131
236,17212,14,-3328,-4674,23,-355,-165,122
237,17268,-12,-3274,-4692,23,-350,-171,165
238,17184,34,-3372,-4668,23,-335,-159,136
239,17308,20,-3316,-4673,23,-334,-158,153
240,17320,-54,-3422,-4696,23,-364,-141,135
241,17318,18,-3398,-4682,23,-348,-133,137
242,17216,-40,-3296,-4679,23,-343,-156,135
243,17334,44,-3272,-4665,23,-365,-142,144
244,17316,74,-3394,-4689,23,-355,-159,148
245,17300,28,-3392,-4674,23,-368,-149,144
246,17276,22,-3320,-4684,23,-343,-128,131
247,17234,-32,-3408,-4688,23,-355,-166,112
248,17302,30,-3462,-4692,23,-335,-160,136
249,17244,58,-3286,-4678,23,-346,-155,143
250,17250,-24,-3402,-4681,23,-340,-177,137
251,17288,82,-3298,-4681,23,-346,-163,127
252,17240,8,-3484,-4676,23,-340,-145,143
253,17244,72,-3388,-4689,23,-340,-163,134
254,17322,66,-3466,-4690,23,-348,-132,124
255,17248,-40,-3580,-4689,23,-340,-153,144
256,17262,56,-3456,-4674,23,-343,-166,142
257,17304,-6,-3362,-4683,23,-358,-151,127
258,17344,-30,-3338,-4677,23,-348,-142,139
259,17270,56,-3328,-4681,23,-349,-151,132
260,17284,92,-3446,-4674,23,-333,-175,147
261,17350,-12,-3446,-4673,23,-351,-145,159
262,17218,40,-3384,-4672,23,-351,-147,145
263,17280,22,-3276,-4678,23,-334,-163,141
264,17320,-24,-3438,-4674,23,-358,-164,155
265,17238,-52,-3352,-4693,23,-353,-144,131
266,17264,0,-3422,-4689,23,-355,-139,150
267,17296,-48,-3310,-4678,23,-373,-155,151
268,17252,16,-3406,-4686,23,-346,-148,143
269,17340,54,-3336,-4680,23,-343,-145,143
270,17296,20,-3446,-4692,23,-342,-139,134
271,17260,60,-3450,-4687,23,-346,-143,133
272,17346,4,-3300,-4676,23,-338,-173,137
273,17282,-16,-3434,-4682,23,-360,-171,142
274,17276,-58,-3320,-4674,23,-345,-145,131
275,17266,-34,-3320,-4676,23,-323,-170,134
276,17210,58,-3370,-4674,23,-361,-162,139
277,17228,-88,-3372,-4695,23,-350,-140,127
278,17328,-68,-3306,-4684,23,-336,-142,140
279,17296,36,-3262,-4675,23,-358,-157,136
280,17312,-34,-3310,-4675,23,-361,-159,133
281,17378,-14,-3422,-4672,23,-358,-146,148
282,17252,8,-3352,-4678,23,-336,-164,148
283,17326,42,-3346,-4668,23,-337,-141,150
284,17264,-28,-3468,-4683,23,-341,-166,152
285,17290,-4,-3360,-4689,23,-340,-151,151
286,17242,50,-3446,-4685,23,-333,-139,144
287,17202,0,-3338,-4671,23,-351,-152,140
288,17362,44,-3478,-4683,23,-350,-166,138
289,17272,36,-3316,-4682,23,-339,-162,162
290,17266,-26,-3270,-4678,23,-352,-153,141
291,17264,60,-3380,-4689,23,-354,-138,149
292,17264,-8,-3414,-4690,23,-366,-150,139
293,17282,62,-3414,-4678,23,-357,-164,142
294,17308,-36,-3432,-4675,23,-352,-136,126
295,17284,26,-3292,-4678,23,-339,-151,146
296,17308,-6,-3374,-4671,23,-363,-128,146
297,17310,10,-3374,-4672,23,-354,-145,142
298,17234,-36,-3280,-4676,23,-350,-152,151
299,17260,40,-3438,-4676,23,-326,-152,134
300,17262,2,-3372,-4680,23,-340,-171,137
301,17276,-28,-3348,-4674,23,-357,-155,139
302,17304,-18,-3522,-4687,23,-355,-151,139
303,17254,-58,-3442,-4681,23,-352,-164,145
304,17218,-34,-3356,-4670,23,-349,-143,150
305,17364,8,-3412,-4677,23,-355,-157,137
306,17266,36,-3348,-4676,23,-351,-142,134
307,17282,96,-3414,-4693,23,-334,-144,143
308,17334,22,-3436,-4680,23,-339,-139,138
309,17210,86,-3346,-4669,23,-348,-155,139
310,17312,-32,-3410,-4678,23,-367,-154,136
311,17394,16,-3318,-4677,23,-343,-153,130
312,17322,4,-3400,-4682,23,-334,-156,149
313,17238,12,-3202,-4687,23,-336,-138,148
314,17224,94,-3390,-4675,23,-356,-131,143
315,17252,-66,-3474,-4688,23,-347,-140,122
316,17280,34,-3446,-4678,23,-349,-134,155
317,17286,36,-3430,-4687,23,-355,-159,128
318,17368,-14,-3284,-4676,23,-347,-149,138
319,17352,20,-3410,-4688,23,-344,-155,136
320,17144,-6,-3446,-4667,23,-351,-160,137
321,17300,6,-3444,-4689,23,-344,-163,132
322,17236,52,-3380,-4682,23,-364,-155,128
323,17272,-52,-3404,-4688,23,-342,-146,140
324,17214,8,-3356,-4682,23,-328,-160,130
325,17300,24,-3484,-4685,23,-324,-157,133
326,17260,68,-3390,-4679,23,-356,-179,146
327,17280,0,-3380,-4693,23,-342,-142,147
328,17288,14,-3392,-4683,23,-365,-159,129
329,17226,32,-3448,-4674,23,-344,-160,133
330,17304,-16,-3428,-4682,23,-339,-144,138
331,17316,42,-3468,-4688,23,-350,-163,154
332,17190,-6,-3448,-4681,23,-346,-161,127
333,17304,-30,-3272,-4675,23,-362,-151,152
334,17242,92,-3426,-4683,23,-355,-140,153
335,17236,20,-3342,-4682,23,-352,-167,146
336,17240,-22,-3250,-4687,23,-354,-165,137
337,17290,28,-3488,-4678,23,-355,-145,128
338,17322,14,-3410,-4675,23,-332,-169,144
339,17298,-2,-3266,-4685,23,-343,-157,133
340,17288,92,-3368,-4692,23,-339,-164,137
341,17210,70,-3404,-4678,23,-352,-164,123
342,17238,34,-3394,-4679,23,-352,-155,134
343,17348,30,-3338,-4682,23,-354,-143,132
344,17278,16,-3392,-4673,23,-341,-177,140
345,17346,54,-3320,-4681,23,-348,-154,129
346,17300,-54,-3426,-4675,23,-347,-146,147
347,17232,16,-3430,-4691,23,-351,-146,150
348,17284,42,-3362,-4677,23,-337,-139,128
349,17262,-8,-3394,-4680,23,-342,-150,157
350,17244,84,-3356,-4683,23,-341,-156,128
351,17242,-12,-3474,-4690,23,-366,-148,119
352,17358,74,-3350,-4667,23,-352,-179,136
353,17386,-32,-3388,-4686,23,-347,-151,126
354,17274,32,-3470,-4677,23,-357,-146,161
355,17246,44,-3466,-4679,23,-361,-158,136
356,17314,40,-3358,-4681,23,-333,-161,140
357,17242,-10,-3462,-4684,23,-338,-135,145
358,17264,56,-3454,-4682,23,-345,-151,145
359,17240,-28,-3490,-4679,23,-342,-145,141
360,17246,-10,-3382,-4676,23,-360,-154,134
361,17216,4,-3438,-4680,23,-343,-140,137
362,17270,-16,-3272,-4668,23,-358,-163,130
363,17298,-10,-3330,-4678,23,-338,-158,134
364,17254,14,-3370,-4674,23,-358,-165,140
365,17226,-10,-3400,-4675,23,-326,-152,133
366,17250,68,-3380,-4678,23,-348,-157,152
367,17254,72,-3434,-4680,23,-340,-154,128
368,17222,30,-3378,-4684,23,-341,-155,137
369,17354,28,-3510,-4691,23,-351,-164,133
370,17212,104,-3350,-4690,23,-356,-156,135
371,17246,54,-3424,-4679,23,-344,-157,140
372,17262,-12,-3388,-4683,23,-341,-147,136
373,17258,10,-3442,-4670,23,-348,-160,142
374,17318,-30,-3510,-4679,23,-354,-153,151
375,17324,2,-3430,-4673,23,-351,-151,138
376,17288,52,-3436,-4688,23,-335,-159,144
377,17296,-2,-3328,-4682,23,-350,-138,143
378,17274,-96,-3392,-4663,23,-347,-163,147
379,17310,36,-3368,-4675,23,-340,-142,156
380,17292,42,-3434,-4692,23,-348,-153,144
381,17260,34,-3422,-4679,23,-356,-152,143
382,17204,-6,-3388,-4681,23,-346,-135,151
383,17254,-62,-3572,-4680,23,-358,-152,147
384,17278,40,-3340,-4674,23,-341,-133,142
385,17320,-10,-3354,-4689,23,-352,-159,144
386,17286,60,-3352,-4678,23,-327,-146,137
387,17292,-2,-3332,-4672,23,-348,-159,143
388,17284,12,-3390,-4669,23,-351,-151,127
389,17350,-10,-3318,-4675,23,-340,-145,143
390,17282,-74,-3432,-4676,23,-359,-145,145
391,17296,8,-3396,-4686,23,-368,-156,139
392,17250,10,-3378,-4682,23,-360,-143,134
393,17256,-62,-3360,-4678,23,-333,-142,131
394,17278,36,-3336,-4678,23,-350,-149,134
395,17354,-4,-3366,-4683,23,-358,-134,132
396,17238,0,-3350,-4680,23,-351,-140,147
397,17298,4,-3452,-4680,23,-348,-155,151
398,17242,-6,-3330,-4694,23,-352,-169,137
399,17222,-44,-3416,-4675,23,-359,-153,131
400,17160,76,-3454,-4682,23,-341,-148,141
401,17268,26,-3414,-4687,23,-336,-132,133
402,17314,44,-3384,-4673,23,-338,-159,124
403,17290,-10,-3410,-4671,23,-338,-144,135
404,17254,32,-3442,-4680,23,-356,-162,138
405,17226,-26,-3398,-4678,23,-349,-152,134
406,17224,-44,-3402,-4682,23,-327,-145,145
407,17256,90,-3326,-4678,23,-338,-151,134
408,17192,-20,-3430,-4688,23,-349,-133,146
409,17336,-14,-3478,-4690,23,-344,-151,153
410,17288,48,-3210,-4686,23,-341,-157,144
411,17206,-56,-3506,-4669,23,-355,-157,143
412,17324,44,-3398,-4689,23,-350,-140,127
413,17282,-8,-3296,-4675,23,-352,-162,132
414,17262,2,-3338,-4691,23,-357,-147,124
415,17316,-46,-3396,-4692,23,-352,-140,150
416,17254,-50,-3500,-4682,23,-346,-155,143
417,17232,18,-3458,-4672,23,-360,-160,148
418,17206,-8,-3346,-4682,23,-347,-142,134
419,17216,44,-3510,-4668,23,-349,-166,138
420,17266,58,-3276,-4677,23,-326,-137,127
421,17332,-20,-3356,-4671,23,-344,-160,129
422,17332,-28,-3446,-4701,23,-350,-150,159
423,17258,50,-3476,-4685,23,-365,-139,146
424,17356,14,-3330,-4686,23,-350,-156,135
425,17292,-64,-3264,-4670,23,-321,-153,125
426,17340,-44,-3256,-4678,23,-338,-141,144
427,17174,28,-3396,-4670,23,-367,-161,133
428,17286,26,-3380,-4676,23,-343,-141,130
429,17306,-14,-3374,-4685,23,-349,-150,147
430,17240,36,-3478,-4672,23,-335,-150,151
431,17246,64,-3376,-4680,23,-368,-153,127
432,17278,-28,-3232,-4680,23,-353,-138,128
433,17238,28,-3322,-4674,23,-350,-158,140
434,17278,42,-3426,-4685,23,-354,-151,154
435,17184,-16,-3470,-4661,23,-342,-154,157
436,17252,8,-3424,-4685,23,-343,-171,149
437,17234,-2,-3332,-4666,23,-348,-139,147
438,17232,68,-3438,-4685,23,-359,-172,152
439,17306,10,-3484,-4682,23,-367,-155,125
440,17274,42,-3340,-4680,23,-352,-159,129
441,17328,8,-3348,-4676,23,-355,-150,143
442,17266,8,-3496,-4678,23,-352,-156,136
443,17170,-34,-3466,-4672,23,-353,-156,135
444,17314,52,-3328,-4674,23,-326,-148,143
445,17256,-4,-3380,-4676,23,-343,-153,139
446,17296,76,-3334,-4677,23,-332,-152,134
447,17230,-26,-3414,-4678,23,-330,-133,127
448,17266,-8,-3316,-4675,23,-349,-141,149
449,17298,-4,-3348,-4675,23,-355,-157,134
450,17328,-10,-3460,-4665,23,-350,-132,140
451,17346,2,-3364,-4681,23,-358,-129,143
452,17308,-2,-3418,-4682,23,-353,-159,142
453,17216,12,-3370,-4673,23,-344,-145,132
454,17240,0,-3436,-4678,23,-354,-148,151
455,17292,14,-3470,-4681,23,-354,-155,140
456,17258,-8,-3560,-4669,23,-363,-144,137
457,17272,-34,-3408,-4689,23,-346,-154,139
458,17300,-64,-3306,-4675,23,-359,-144,136
459,17360,-34,-3278,-4673,23,-342,-162,140
460,17290,-2,-3416,-4677,23,-342,-149,159
461,17220,-38,-3396,-4671,23,-343,-163,142
462,17244,-20,-3528,-4676,23,-332,-150,149
463,17238,-30,-3454,-4679,23,-351,-136,137
464,17340,44,-3450,-4675,23,-346,-141,149
465,17320,-18,-3454,-4672,23,-344,-152,142
466,17200,-6,-3354,-4690,23,-347,-153,126
467,17268,30,-3444,-4684,23,-364,-149,147
468,17326,-50,-3202,-4673,23,-341,-152,128
469,17216,-20,-3428,-4689,23,-346,-147,138
470,17302,16,-3492,-4682,23,-340,-143,139
471,17302,12,-3400,-4675,23,-370,-162,140
472,17286,-28,-3398,-4680,23,-351,-177,141
473,17310,-40,-3454,-4675,23,-345,-146,148
474,17304,10,-3400,-4674,23,-348,-147,147
475,17250,52,-3342,-4682,23,-342,-162,155
476,17300,28,-3372,-4697,23,-353,-150,126
477,17228,10,-3270,-4686,23,-357,-163,142
478,17232,14,-3536,-4671,23,-347,-153,148
479,17196,56,-3372,-4681,23,-359,-157,140
480,17288,32,-3346,-4682,23,-365,-152,144
481,17264,2,-3428,-4670,23,-352,-152,150
482,17302,20,-3392,-4665,23,-352,-144,125
483,17254,20,-3376,-4676,23,-357,-155,157
484,17236,-22,-3500,-4675,23,-341,-164,125
485,17316,46,-3396,-4686,23,-357,-150,149
486,17290,38,-3316,-4676,23,-333,-144,134
487,17258,-68,-3416,-4681,23,-365,-161,135
488,17360,-46,-3440,-4670,23,-340,-151,140
489,17268,-2,-3510,-4672,23,-338,-143,140
490,17348,-64,-3344,-4681,23,-355,-154,148
491,17226,-28,-3404,-4680,23,-332,-137,141
492,17304,-38,-3402,-4669,23,-337,-153,140
493,17226,-18,-3464,-4675,23,-340,-162,130
494,17324,108,-3280,-4680,23,-358,-166,131
495,17300,52,-3442,-4683,23,-332,-150,155
496,17296,2,-3462,-4690,23,-352,-144,133
497,17172,4,-3396,-4672,23,-354,-138,134
498,17340,48,-3404,-4664,23,-349,-158,138
499,17202,-20,-3380,-4677,23,-344,-154,135
500,17358,12,-3312,-4680,23,-351,-140,145
501,17246,32,-3340,-4684,23,-348,-142,153
502,17260,54,-3316,-4672,23,-348,-152,144
503,17242,16,-3474,-4668,23,-373,-139,145
504,17264,34,-3486,-4679,23,-334,-156,139
505,17324,-94,-3434,-4667,23,-357,-164,143
506,17318,36,-3486,-4674,23,-336,-147,136
507,17274,-2,-3400,-4671,23,-354,-169,154
508,17360,16,-3432,-4684,23,-354,-159,140
509,17300,36,-3444,-4681,23,-331,-152,129
510,17270,16,-3384,-4677,23,-354,-133,130
511,17220,-36,-3288,-4676,23,-348,-156,143
512,17262,28,-3370,-4686,23,-338,-173,134
513,17288,-2,-3468,-4680,23,-356,-152,142
514,17284,98,-3432,-4694,23,-344,-139,153
515,17140,30,-3372,-4684,23,-359,-146,132
516,17292,-16,-3380,-4696,23,-348,-134,138
517,17324,30,-3412,-4676,23,-341,-161,127
518,17280,56,-3240,-4680,23,-350,-144,139
519,17304,-32,-3378,-4674,23,-350,-129,140
520,17294,-28,-3364,-4671,23,-347,-153,137
521,17306,16,-3336,-4682,23,-354,-149,138
522,17234,34,-3412,-4697,23,-340,-154,145
523,17228,-50,-3422,-4682,23,-340,-150,146
524,17262,-18,-3484,-4681,23,-349,-153,133
525,17234,22,-3422,-4677,23,-343,-166,153
526,17304,116,-3472,-4672,23,-323,-138,153
527,17282,-30,-3370,-4669,23,-345,-150,136
528,17286,-4,-3386,-4683,23,-340,-153,151
529,17314,42,-3264,-4682,23,-365,-143,138
530,17376,2,-3406,-4678,23,-337,-156,135
531,17236,66,-3224,-4682,23,-337,-155,138
532,17348,10,-3372,-4666,23,-345,-134,144
533,17262,58,-3430,-4672,23,-350,-169,153
534,17228,34,-3334,-4677,23,-355,-160,129
535,17316,62,-3358,-4680,23,-351,-160,134
536,17254,84,-3466,-4673,23,-340,-151,125
537,17300,56,-3390,-4690,23,-345,-143,146
538,17304,74,-3316,-4668,23,-352,-162,144
539,17254,36,-3402,-4675,23,-356,-154,134
540,17262,16,-3366,-4676,23,-371,-151,135
541,17196,-38,-3444,-4669,23,-348,-160,146
542,17180,52,-3398,-4672,23,-337,-157,132
543,17266,-14,-3388,-4670,23,-340,-153,124
544,17258,12,-3438,-4662,23,-350,-144,135
545,17220,-52,-3372,-4676,23,-355,-155,134
546,17282,-26,-3402,-4695,23,-344,-158,150
547,17282,10,-3336,-4675,23,-332,-124,126
548,17312,2,-3302,-4678,23,-362,-152,133
549,17262,12,-3282,-4672,23,-340,-135,138
550,17318,6,-3444,-4678,23,-347,-150,137
551,17234,-34,-3452,-4667,23,-335,-148,143
552,17328,20,-3396,-4673,23,-342,-156,142
553,17388,30,-3238,-4673,23,-353,-156,150
554,17280,8,-3360,-4667,23,-343,-146,141
555,17246,68,-3434,-4675,23,-348,-147,136
556,17264,-88,-3412,-4681,23,-336,-144,144
557,17230,-4,-3480,-4677,23,-339,-166,138
558,17220,36,-3380,-4689,23,-353,-157,139
559,17238,44,-3468,-4677,23,-339,-175,146
560,17246,94,-3300,-4667,23,-333,-143,129
561,17320,-24,-3440,-4669,23,-331,-144,130
562,17242,68,-3398,-4688,23,-344,-148,151
563,17290,-70,-3416,-4677,23,-342,-138,150
564,17354,32,-3326,-4682,23,-346,-163,142
565,17254,-30,-3474,-4680,23,-366,-147,156
566,17344,100,-3296,-4682,23,-366,-144,132
567,17212,-66,-3380,-4678,23,-350,-166,136
568,17274,68,-3436,-4676,23,-337,-166,153
569,17278,-18,-3510,-4669,23,-343,-171,141
570,17280,132,-3298,-4674,23,-350,-148,147
571,17238,46,-3402,-4673,23,-344,-139,140
572,17252,-76,-3380,-4681,23,-337,-144,144
573,17404,0,-3386,-4682,23,-333,-150,140
574,17268,60,-3326,-4668,23,-362,-156,139
575,17236,-2,-3492,-4674,23,-335,-140,142
576,17248,10,-3336,-4675,23,-352,-161,139
577,17216,12,-3396,-4673,23,-358,-158,125
578,17316,34,-3318,-4679,23,-351,-136,138
579,17336,-18,-3404,-4672,23,-348,-147,140
580,17302,-16,-3340,-4675,23,-352,-147,143
581,17258,24,-3300,-4679,23,-343,-147,148
582,17360,-26,-3390,-4681,23,-345,-172,120
583,17342,-36,-3472,-4662,23,-347,-142,142
584,17262,-18,-3348,-4680,23,-323,-146,132
585,17300,-26,-3434,-4672,23,-358,-146,122
586,17278,-6,-3480,-4687,23,-333,-148,147
587,17334,2,-3386,-4674,23,-328,-151,138
588,17252,12,-3406,-4668,23,-348,-151,144
589,17338,6,-3464,-4675,23,-326,-163,141
590,17286,40,-3338,-4686,23,-352,-132,154
591,17300,-2,-3406,-4664,23,-345,-133,125
592,17248,-38,-3474,-4661,23,-353,-158,144
593,17248,38,-3380,-4688,23,-348,-149,140
594,17224,-42,-3364,-4682,23,-363,-148,127
595,17266,-62,-3370,-4684,23,-336,-151,136
596,17308,80,-3344,-4674,23,-344,-155,135
597,17176,-62,-3358,-4681,23,-329,-150,140
598,17312,-14,-3408,-4675,23,-333,-149,135
599,17232,22,-3524,-4678,23,-327,-150,146
600,17356,2,-3328,-4663,23,-334,-150,144
601,17268,-14,-3414,-4675,23,-344,-137,129
602,17270,2,-3316,-4670,23,-353,-154,140
603,17286,104,-3364,-4668,23,-353,-151,151
604,17300,-12,-3530,-4685,23,-354,-148,144
605,17268,42,-3356,-4675,23,-350,-152,141
606,17292,-24,-3404,-4680,23,-351,-168,144
607,17288,16,-3394,-4682,23,-347,-154,151
608,17200,32,-3408,-4671,23,-357,-149,141
609,17244,-44,-3524,-4680,23,-332,-154,129
610,17234,58,-3460,-4682,23,-341,-153,141
611,17316,18,-3256,-4678,23,-361,-150,130
612,17252,46,-3346,-4675,23,-343,-169,144
613,17264,32,-3444,-4674,23,-352,-142,134
614,17296,-48,-3436,-4676,23,-351,-169,132
615,17324,0,-3296,-4677,23,-330,-152,146
616,17258,-6,-3442,-4682,23,-343,-146,137
617,17136,26,-3426,-4676,23,-352,-141,145
618,17294,48,-3270,-4678,23,-355,-159,114
619,17264,-40,-3312,-4669,23,-351,-171,129
620,17306,4,-3404,-4660,23,-348,-149,131
621,17206,-28,-3388,-4678,23,-354,-137,137
622,17310,98,-3416,-4681,23,-335,-148,139
623,17216,-30,-3466,-4673,23,-348,-166,137
624,17266,-14,-3320,-4675,23,-341,-133,141
625,17260,102,-3426,-4675,23,-329,-146,135
626,17234,24,-3526,-4680,23,-357,-142,149
627,17344,-28,-3356,-4676,23,-345,-164,131
628,17298,-2,-3350,-4684,23,-338,-143,143
629,17294,34,-3376,-4665,23,-351,-128,139
630,17306,0,-3516,-4687,23,-353,-155,136
631,17288,26,-3360,-4684,23,-338,-123,124
632,17226,-6,-3354,-4676,23,-340,-154,131
633,17294,-32,-3548,-4672,23,-350,-154,135
634,17238,-2,-3430,-4680,23,-347,-167,149
635,17260,-50,-3472,-4678,23,-342,-145,124
636,17272,72,-3340,-4693,23,-360,-153,141
637,17266,26,-3346,-4675,23,-347,-161,126
638,17236,-18,-3428,-4667,23,-347,-157,143
639,17268,-6,-3394,-4682,23,-344,-146,158
640,17256,12,-3418,-4673,23,-348,-150,136
641,17170,100,-3362,-4670,23,-336,-164,136
642,17224,34,-3526,-4682,23,-351,-151,133
643,17278,-30,-3390,-4663,23,-355,-149,128
644,17306,10,-3324,-4675,23,-360,-143,149
645,17250,12,-3330,-4673,23,-349,-148,145
646,17266,72,-3464,-4684,23,-364,-156,146
647,17310,80,-3238,-4677,23,-349,-163,121
648,17306,84,-3286,-4679,23,-348,-152,125
649,17318,54,-3390,-4668,23,-355,-147,147
650,17258,-54,-3372,-4680,23,-359,-152,139
651,17318,64,-3294,-4669,23,-333,-149,143
652,17268,-12,-3448,-4666,23,-357,-147,149
653,17246,12,-3424,-4669,23,-346,-146,128
654,17296,-82,-3388,-4696,23,-357,-139,138
655,17316,-52,-3362,-4667,23,-349,-151,155
656,17298,0,-3436,-4668,23,-339,-151,141
657,17296,72,-3274,-4682,23,-357,-164,137
658,17170,-20,-3372,-4676,23,-375,-145,129
659,17294,38,-3346,-4677,23,-340,-142,133
660,17246,24,-3366,-4682,23,-345,-134,135
661,17332,-62,-3358,-4669,23,-346,-144,131
662,17234,-54,-3422,-4668,23,-352,-163,159
663,17392,40,-3466,-4674,23,-358,-144,135
664,17354,-34,-3462,-4674,23,-351,-135,147
665,17264,-22,-3276,-4681,23,-352,-138,136
666,17306,-38,-3326,-4666,23,-345,-151,142
667,17268,40,-3394,-4675,23,-356,-145,133
668,17278,-6,-3412,-4679,23,-361,-137,137
669,17250,20,-3400,-4677,23,-344,-161,139
670,17286,38,-3292,-4680,23,-338,-152,146
671,17368,18,-3370,-4684,23,-364,-157,159
672,17380,26,-3480,-4668,23,-352,-162,146
673,17222,18,-3398,-4661,23,-347,-145,142
674,17366,-24,-3460,-4684,23,-342,-132,141
675,17294,80,-3382,-4671,23,-362,-168,135
676,17310,-8,-3358,-4675,23,-364,-140,142
677,17250,136,-3444,-4674,23,-348,-137,147
678,17338,10,-3370,-4672,23,-341,-157,136
679,17222,22,-3542,-4670,23,-349,-138,137
680,17298,-6,-3576,-4680,23,-343,-152,155
681,17162,-4,-3376,-4663,23,-339,-137,136
682,17312,6,-3532,-4671,23,-355,-136,146
683,17310,26,-3384,-4663,23,-354,-145,153
684,17258,-44,-3266,-4675,23,-351,-161,134
685,17256,86,-3362,-4683,23,-347,-159,131
686,17294,6,-3346,-4688,23,-350,-151,143
687,17314,56,-3416,-4675,23,-337,-149,129
688,17346,60,-3382,-4668,23,-349,-174,145
689,17238,-42,-3402,-4681,23,-345,-167,145
690,17330,28,-3290,-4683,23,-355,-154,130
691,17252,-10,-3370,-4672,23,-341,-151,125
692,17162,22,-3442,-4686,23,-357,-144,143
693,17330,34,-3318,-4679,23,-356,-160,151
694,17318,30,-3270,-4675,23,-338,-145,132
695,17310,-58,-3274,-4672,23,-362,-158,144
696,17240,-14,-3482,-4678,23,-351,-143,148
697,17304,24,-3294,-4674,23,-358,-179,151
698,17336,38,-3404,-4658,23,-347,-139,134
699,17296,24,-3364,-4660,23,-335,-153,136
700,17308,10,-3338,-4659,23,-339,-148,137
701,17288,-22,-3392,-4679,23,-351,-156,146
702,17246,-18,-3306,-4669,23,-355,-154,137
703,17274,-4,-3366,-4685,23,-346,-160,133
704,17238,12,-3512,-4680,23,-339,-159,150
705,17286,36,-3442,-4680,23,-355,-144,135
706,17192,24,-3384,-4666,23,-337,-170,151
707,17320,-8,-3378,-4666,23,-354,-145,137
708,17200,-62,-3364,-4685,23,-355,-145,139
709,17330,56,-3490,-4662,23,-339,-158,135
710,17258,-4,-3364,-4666,23,-351,-165,141
711,17268,30,-3390,-4681,23,-360,-147,157
712,17228,-26,-3404,-4678,23,-336,-151,150
713,17276,4,-3340,-4665,23,-340,-147,146
714,17178,-40,-3362,-4655,23,-348,-136,133
715,17256,-60,-3328,-4682,23,-340,-163,149
716,17180,-28,-3484,-4668,23,-335,-145,144
717,17302,20,-3350,-4677,23,-347,-149,137
718,17304,-10,-3496,-4675,23,-341,-163,143
719,17342,-32,-3282,-4662,23,-354,-140,138
720,17304,64,-3280,-4669,23,-338,-155,156
721,17338,90,-3416,-4674,23,-336,-145,140
722,17298,8,-3354,-4656,23,-342,-159,136
723,17270,28,-3448,-4675,23,-348,-156,150
724,17216,-26,-3552,-4668,23,-350,-144,139
725,17316,6,-3408,-4666,23,-352,-142,136
726,17278,-50,-3344,-4667,23,-362,-157,128
727,17368,20,-3398,-4658,23,-350,-150,124
728,17296,60,-3276,-4665,23,-350,-170,125
729,17254,6,-3488,-4689,23,-333,-143,150
730,17322,4,-3362,-4665,23,-343,-152,137
731,17250,-82,-3532,-4678,23,-359,-139,147
732,17268,-16,-3314,-4677,23,-345,-159,124
733,17278,52,-3306,-4670,23,-338,-156,145
734,17222,130,-3424,-4672,23,-348,-148,139
735,17260,-22,-3332,-4659,23,-347,-175,140
736,17208,26,-3374,-4676,23,-337,-143,138
737,17194,-6,-3352,-4669,23,-344,-142,139
738,17276,-58,-3408,-4677,23,-341,-146,145
739,17334,54,-3356,-4667,23,-352,-153,142
740,17330,10,-3400,-4692,23,-346,-146,132
741,17254,50,-3452,-4664,23,-367,-146,150
742,17304,-18,-3390,-4661,23,-336,-141,142
743,17288,-28,-3406,-4667,23,-354,-155,132
744,17296,-76,-3378,-4673,23,-357,-142,147
745,17240,14,-3444,-4666,23,-353,-149,135
746,17282,44,-3380,-4666,23,-336,-169,143
747,17290,16,-3398,-4680,23,-347,-140,139
748,17262,-14,-3334,-4683,23,-334,-158,118
749,17220,110,-3306,-4666,23,-347,-163,137
750,17342,-14,-3410,-4675,23,-360,-148,142
751,17274,-58,-3396,-4671,23,-346,-140,145
752,17212,62,-3362,-4681,23,-323,-136,126
753,17236,-26,-3356,-4676,23,-346,-137,146
754,17262,24,-3562,-4674,23,-349,-143,133
755,17292,132,-3456,-4669,23,-347,-145,125
756,17296,16,-3430,-4674,23,-344,-140,151
757,17336,20,-3466,-4673,23,-357,-157,136
758,17352,10,-3496,-4668,23,-339,-140,136
759,17320,-34,-3350,-4679,23,-341,-131,125
760,17292,58,-3392,-4669,23,-351,-146,143
761,17290,30,-3384,-4675,23,-341,-152,138
762,17322,-58,-3258,-4684,23,-367,-153,144
763,17246,-4,-3448,-4690,23,-337,-160,149
764,17272,74,-3462,-4668,23,-341,-132,146
765,17300,20,-3424,-4678,23,-335,-153,124
766,17286,4,-3448,-4667,23,-350,-160,138
767,17302,46,-3388,-4682,23,-353,-128,139
768,17224,-32,-3490,-4676,23,-353,-147,133
769,17278,-64,-3474,-4674,23,-344,-150,138
770,17250,30,-3404,-4683,23,-337,-161,138
771,17284,-54,-3454,-4675,23,-355,-146,131
772,17216,28,-3446,-4665,23,-342,-138,145
773,17250,-38,-3380,-4669,23,-351,-147,121
774,17312,-60,-3298,-4669,23,-357,-150,142
775,17286,-10,-3298,-4664,23,-331,-168,125
776,17206,20,-3430,-4676,23,-360,-168,122
777,17386,-14,-3380,-4677,23,-349,-171,142
778,17186,58,-3380,-4666,23,-359,-153,129
779,17262,48,-3432,-4658,23,-350,-150,122
780,17246,24,-3378,-4673,23,-353,-171,159
781,17228,12,-3232,-4670,23,-368,-152,137
782,17252,-54,-3526,-4686,23,-359,-163,146
783,17326,66,-3286,-4664,23,-353,-146,148
784,17280,-22,-3364,-4672,23,-345,-156,150
785,17332,8,-3402,-4671,23,-350,-148,135
786,17296,-68,-3406,-4685,23,-349,-146,151
787,17278,-18,-3418,-4667,23,-348,-148,131
788,17278,-38,-3484,-4665,23,-336,-153,139
789,17270,-22,-3344,-4677,23,-350,-138,141
790,17302,-34,-3410,-4669,23,-346,-148,141
791,17258,88,-3332,-4672,23,-353,-140,127
792,17242,-14,-3336,-4676,23,-352,-157,156
793,17252,-6,-3492,-4680,23,-356,-157,148
794,17236,40,-3438,-4674,23,-328,-163,145
795,17324,12,-3400,-4666,23,-341,-132,130
796,17324,28,-3482,-4670,23,-334,-158,151
797,17280,-8,-3414,-4662,23,-373,-169,150
798,17364,-80,-3416,-4673,23,-343,-150,132
799,17268,-14,-3458,-4663,23,-343,-156,148
800,17244,-38,-3318,-4663,23,-345,-156,138
801,17220,-24,-3430,-4667,23,-339,-141,137
802,17274,-56,-3440,-4669,23,-359,-148,119
803,17242,-90,-3438,-4671,23,-351,-138,145
804,17282,-12,-3388,-4671,23,-353,-158,144
805,17188,60,-3482,-4665,23,-364,-155,141
806,17276,6,-3426,-4672,23,-357,-142,131
807,17316,50,-3324,-4681,23,-342,-149,139
808,17186,42,-3316,-4671,23,-346,-139,138
809,17316,12,-3418,-4665,23,-349,-131,150
810,17254,-14,-3396,-4667,23,-338,-136,149
811,17302,-20,-3420,-4669,23,-355,-143,144
812,17286,-18,-3582,-4664,23,-352,-154,137
813,17322,76,-3410,-4659,23,-335,-156,136
814,17296,-32,-3526,-4661,23,-336,-143,142
815,17278,-26,-3368,-4669,23,-351,-155,142
816,17262,106,-3458,-4675,23,-356,-144,130
817,17230,-92,-3398,-4676,23,-338,-144,125
818,17292,66,-3420,-4671,23,-327,-167,141
819,17300,-6,-3372,-4671,23,-348,-136,146
820,17242,-42,-3448,-4665,23,-348,-132,143
821,17224,68,-3446,-4674,23,-345,-155,136
822,17258,24,-3420,-4677,23,-353,-151,152
823,17238,54,-3230,-4669,23,-371,-153,146
824,17308,34,-3352,-4664,23,-357,-145,156
825,17244,44,-3504,-4682,23,-332,-161,148
826,17276,-4,-3500,-4679,23,-359,-139,139
827,17194,46,-3352,-4679,23,-350,-140,135
828,17238,0,-3504,-4671,23,-339,-147,139
829,17310,26,-3356,-4666,23,-354,-168,136
830,17292,16,-3416,-4668,23,-334,-154,163
831,17286,38,-3360,-4658,23,-352,-164,141
832,17224,10,-3482,-4664,23,-358,-155,120
833,17258,130,-3308,-4683,23,-348,-143,124
834,17246,24,-3350,-4673,23,-345,-159,135
835,17216,24,-3328,-4666,23,-340,-151,140
836,17326,28,-3476,-4680,23,-322,-148,142
837,17322,86,-3452,-4663,23,-346,-154,138
838,17222,46,-3402,-4672,23,-353,-161,141
839,17204,40,-3444,-4673,23,-339,-162,148
840,17300,-32,-3426,-4675,23,-351,-169,137
841,17236,50,-3464,-4663,23,-351,-152,140
842,17252,-28,-3424,-4673,23,-354,-144,128
843,17302,-22,-3338,-4671,23,-346,-125,128
844,17298,-78,-3472,-4668,23,-336,-155,148
845,17198,-36,-3326,-4651,23,-359,-159,131
846,17294,-76,-3378,-4673,23,-353,-159,124
847,17290,36,-3414,-4674,23,-337,-145,148
848,17310,68,-3492,-4675,23,-343,-143,134
849,17184,-14,-3590,-4668,23,-345,-146,140
850,17262,-26,-3350,-4693,23,-361,-159,160
851,17256,24,-3354,-4683,23,-348,-159,133
852,17282,28,-3444,-4662,23,-367,-134,133
853,17280,-76,-3370,-4677,23,-359,-158,142
854,17230,8,-3430,-4670,23,-381,-153,132
855,17380,122,-3420,-4667,23,-339,-160,139
856,17284,30,-3448,-4671,23,-345,-150,146
857,17310,46,-3426,-4668,23,-347,-146,132
858,17284,26,-3430,-4657,23,-338,-147,133
859,17340,46,-3364,-4671,23,-346,-159,145
860,17320,-50,-3434,-4670,23,-352,-136,136
861,17324,-30,-3474,-4670,23,-349,-155,137
862,17270,22,-3416,-4675,23,-345,-138,149
863,17230,38,-3412,-4672,23,-348,-143,161
864,17286,-92,-3384,-4662,23,-356,-168,136
865,17268,52,-3446,-4674,23,-350,-153,137
866,17268,-18,-3306,-4666,23,-364,-145,132
867,17232,-6,-3320,-4676,23,-354,-144,152
868,17292,-18,-3354,-4664,23,-359,-124,158
869,17254,-62,-3394,-4671,23,-345,-143,148
870,17400,32,-3356,-4671,23,-344,-140,130
871,17234,-26,-3374,-4682,23,-338,-156,144
872,17320,10,-3396,-4668,23,-341,-150,138
873,17260,2,-3412,-4667,23,-355,-144,140
874,17254,-6,-3382,-4662,23,-348,-161,151
875,17344,-62,-3452,-4675,23,-323,-165,118
876,17304,78,-3340,-4673,23,-351,-149,119
877,17248,-34,-3406,-4673,23,-353,-140,147
878,17200,2,-3460,-4687,23,-356,-151,137
879,17280,4,-3400,-4672,23,-346,-159,148
880,17328,-8,-3450,-4666,23,-337,-146,131
881,17348,-34,-3326,-4664,23,-349,-157,134
882,17254,-8,-3360,-4677,23,-328,-144,140
883,17300,-12,-3390,-4669,23,-331,-154,141
884,17252,84,-3484,-4676,23,-346,-137,132
885,17296,42,-3382,-4672,23,-354,-163,154
886,17290,8,-3332,-4654,23,-367,-177,141
887,17324,-10,-3406,-4662,23,-363,-154,141
888,17272,40,-3342,-4682,23,-355,-147,130
889,17344,24,-3462,-4680,23,-349,-141,149
890,17254,38,-3506,-4677,23,-369,-169,137
891,17224,38,-3382,-4669,23,-343,-161,134
892,17296,-54,-3440,-4668,23,-329,-168,139
893,17226,-34,-3298,-4668,23,-357,-149,134
894,17232,76,-3434,-4670,23,-345,-139,140
895,17240,14,-3396,-4668,23,-343,-146,137
896,17242,6,-3370,-4671,23,-343,-148,137
897,17256,64,-3308,-4673,23,-335,-170,141
898,17286,-52,-3400,-4669,23,-336,-159,136
899,17234,30,-3334,-4685,23,-361,-150,153
900,17374,86,-3314,-4664,23,-339,-144,123
901,17258,-42,-3412,-4678,23,-355,-148,144
902,17202,22,-3348,-4659,23,-353,-146,136
903,17232,2,-3482,-4672,23,-343,-145,147
904,17238,48,-3388,-4667,23,-357,-143,135
905,17302,-100,-3416,-4679,23,-353,-156,154
906,17274,0,-3354,-4670,23,-347,-156,131
907,17226,22,-3324,-4678,23,-350,-166,130
908,17300,2,-3412,-4668,23,-348,-158,149
909,17322,34,-3420,-4665,23,-345,-155,132
910,17292,-20,-3444,-4666,23,-337,-153,132
911,17316,-2,-3434,-4684,23,-342,-164,137
912,17294,62,-3450,-4659,23,-341,-146,132
913,17254,60,-3346,-4682,23,-352,-145,127
914,17278,6,-3386,-4668,23,-332,-144,147
915,17282,-68,-3416,-4671,23,-330,-153,131
916,17330,134,-3370,-4679,23,-346,-152,139
917,17234,-28,-3322,-4668,23,-339,-151,132
918,17274,-16,-3440,-4673,23,-336,-138,134
919,17228,98,-3366,-4654,23,-342,-145,144
920,17332,-76,-3368,-4678,23,-343,-157,134
921,17288,-22,-3450,-4674,23,-336,-147,127
922,17298,-42,-3302,-4672,23,-347,-149,133
923,17238,94,-3412,-4670,23,-349,-156,139
924,17312,24,-3378,-4673,23,-336,-162,143
925,17320,36,-3354,-4668,23,-347,-151,118
926,17238,68,-3394,-4663,23,-350,-156,153
927,17208,2,-3338,-4677,23,-340,-132,141
928,17286,-14,-3420,-4667,23,-337,-152,137
929,17266,48,-3406,-4656,23,-352,-160,150
930,17302,70,-3372,-4676,23,-335,-156,145
931,17262,0,-3326,-4677,23,-348,-134,133
932,17324,38,-3346,-4672,23,-356,-157,130
933,17326,28,-3290,-4661,23,-349,-154,131
934,17290,-42,-3462,-4661,23,-349,-156,139
935,17282,-54,-3480,-4659,23,-345,-159,139
936,17220,-20,-3272,-4674,23,-337,-142,140
937,17282,36,-3398,-4670,23,-353,-129,144
938,17244,0,-3358,-4673,23,-327,-149,145
939,17288,26,-3266,-4689,23,-349,-151,144
940,17222,-64,-3504,-4672,23,-348,-145,132
941,17270,38,-3360,-4662,23,-355,-158,139
942,17300,-6,-3414,-4678,23,-361,-135,136
943,17316,-4,-3378,-4678,23,-336,-158,134
944,17276,-24,-3514,-4669,23,-344,-167,126
945,17306,-4,-3408,-4665,23,-356,-151,142
946,17228,0,-3304,-4664,23,-352,-153,116
947,17288,-34,-3430,-4667,23,-349,-140,127
948,17280,-20,-3412,-4670,23,-347,-158,143
949,17218,34,-3384,-4667,23,-351,-153,128
950,17236,64,-3332,-4684,23,-347,-160,127
951,17272,4,-3324,-4675,23,-362,-166,150
952,17248,-24,-3472,-4675,23,-350,-155,140
953,17236,-22,-3456,-4661,23,-360,-162,139
954,17180,-34,-3378,-4674,23,-347,-143,145
955,17224,-10,-3464,-4666,23,-354,-139,161
956,17286,50,-3356,-4674,23,-328,-133,129
957,17274,-38,-3612,-4666,23,-354,-159,143
958,17370,-18,-3426,-4660,23,-351,-146,141
959,17326,58,-3340,-4684,23,-335,-153,149
960,17264,16,-3424,-4658,23,-358,-161,132
961,17314,10,-3404,-4667,23,-336,-139,129
962,17270,-38,-3410,-4675,23,-362,-141,157
963,17266,48,-3430,-4670,23,-345,-169,144
964,17262,-56,-3488,-4665,23,-335,-157,146
965,17312,-10,-3430,-4661,23,-350,-125,137
966,17366,-52,-3438,-4677,23,-339,-150,136
967,17272,14,-3342,-4670,23,-345,-154,161
968,17264,58,-3276,-4662,23,-358,-155,140
969,17286,-62,-3374,-4664,23,-353,-163,131
970,17236,60,-3258,-4676,23,-336,-166,142
971,17254,-12,-3430,-4666,23,-334,-151,136
972,17292,50,-3492,-4662,23,-345,-134,138
973,17320,-26,-3550,-4668,23,-336,-170,132
974,17250,-12,-3304,-4667,23,-343,-147,129
975,17294,34,-3356,-4660,23,-364,-155,137
976,17252,-76,-3208,-4665,23,-336,-164,131
977,17252,-58,-3336,-4659,23,-352,-170,147
978,17270,38,-3520,-4663,23,-357,-150,134
979,17250,4,-3420,-4680,23,-345,-141,143
980,17256,22,-3336,-4656,23,-346,-164,129
981,17238,-2,-3420,-4673,23,-355,-153,129
982,17304,50,-3470,-4662,23,-352,-146,136
983,17314,-28,-3316,-4668,23,-340,-173,149
984,17338,10,-3326,-4674,23,-341,-159,137
985,17258,22,-3394,-4673,23,-357,-148,129
986,17266,82,-3358,-4670,23,-343,-148,153
987,17316,-10,-3376,-4665,23,-323,-156,144
988,17310,0,-3290,-4669,23,-359,-169,133
989,17250,-24,-3436,-4668,23,-360,-150,147
990,17228,-2,-3466,-4672,23,-358,-164,146
991,17218,8,-3432,-4673,23,-368,-142,138
992,17262,-26,-3454,-4677,23,-351,-151,139
993,17316,50,-3434,-4662,23,-345,-141,132
994,17208,0,-3394,-4649,23,-361,-137,144
995,17242,-46,-3546,-4672,23,-357,-161,132
996,17274,72,-3502,-4677,23,-350,-134,122
997,17338,20,-3416,-4672,23,-365,-153,110
998,17248,-16,-3428,-4666,23,-340,-161,145
