,acc_X,acc_Y,acc_Z,temp,tempC,gyr_X,gyr_Y,gyr_Z
0,2166,-1,-417,-4692,23,-44,-17,19
1,2154,-4,-423,-4698,23,-45,-19,17
2,2165,-3,-424,-4697,23,-43,-18,17
3,2159,-5,-428,-4700,23,-45,-19,16
4,2150,0,-424,-4701,23,-44,-18,18
5,2162,-3,-425,-4709,23,-44,-18,17
6,2157,1,-425,-4706,23,-43,-18,18
7,2157,-10,-421,-4701,23,-43,-18,16
8,2159,0,-419,-4695,23,-45,-20,19
9,2161,-4,-416,-4702,23,-44,-19,16
10,2157,3,-420,-4702,23,-42,-18,14
11,2157,4,-418,-4699,23,-44,-20,17
12,2158,-4,-421,-4695,23,-44,-18,16
13,2153,3,-421,-4696,23,-43,-18,16
14,2157,-2,-410,-4698,23,-43,-19,18
15,2168,-1,-427,-4692,23,-45,-18,17
16,2162,-8,-424,-4695,23,-44,-20,16
17,2165,9,-432,-4700,23,-43,-17,16
18,2154,-2,-427,-4692,23,-44,-20,18
19,2159,6,-421,-4708,23,-45,-19,17
20,2158,-1,-429,-4692,23,-44,-19,17
21,2151,-3,-423,-4700,23,-42,-19,17
22,2157,10,-424,-4701,23,-43,-18,17
23,2158,2,-421,-4692,23,-42,-19,17
24,2161,2,-426,-4696,23,-43,-17,17
25,2158,-10,-436,-4703,23,-43,-20,18
26,2165,0,-423,-4705,23,-43,-20,16
27,2158,4,-436,-4701,23,-44,-21,17
28,2159,1,-423,-4700,23,-43,-17,17
29,2158,-5,-418,-4710,23,-44,-18,19
30,2158,1,-425,-4710,23,-44,-20,18
31,2157,-11,-421,-4709,23,-44,-20,16
32,2155,2,-431,-4698,23,-45,-18,17
33,2164,4,-423,-4697,23,-43,-19,16
34,2154,-2,-417,-4705,23,-44,-17,17
35,2160,-5,-433,-4702,23,-44,-19,17
36,2155,3,-416,-4701,23,-43,-20,16
37,2155,2,-421,-4706,23,-44,-20,18
38,2155,-7,-430,-4707,23,-43,-20,16
39,2152,-3,-418,-4690,23,-44,-18,17
40,2160,9,-421,-4699,23,-44,-21,18
41,2158,0,-420,-4697,23,-44,-20,18
42,2161,-1,-422,-4700,23,-44,-20,16
43,2157,9,-423,-4689,23,-43,-20,17
44,2167,1,-423,-4700,23,-45,-21,18
45,2164,3,-422,-4691,23,-43,-17,17
46,2152,-3,-433,-4699,23,-44,-19,16
47,2156,-3,-420,-4704,23,-44,-20,17
48,2159,-10,-410,-4709,23,-43,-18,17
49,2164,-3,-422,-4714,23,-44,-18,16
50,2159,6,-419,-4693,23,-42,-20,17
51,2154,7,-436,-4698,23,-45,-19,18
52,2154,-7,-429,-4705,23,-43,-20,17
53,2165,6,-414,-4706,23,-45,-19,17
54,2154,0,-416,-4701,23,-44,-19,16
55,2161,4,-430,-4701,23,-43,-18,17
56,2156,-1,-424,-4696,23,-43,-19,17
57,2167,2,-430,-4706,23,-43,-20,17
58,2158,3,-418,-4698,23,-44,-19,17
59,2159,-2,-435,-4705,23,-44,-18,17
60,2162,2,-425,-4707,23,-43,-21,17
61,2165,-4,-434,-4704,23,-43,-20,19
62,2167,7,-420,-4702,23,-44,-18,17
63,2158,4,-424,-4706,23,-44,-19,18
64,2157,0,-422,-4704,23,-46,-19,18
65,2158,-4,-425,-4707,23,-43,-22,15
66,2161,8,-429,-4702,23,-42,-20,15
67,2158,-5,-418,-4696,23,-43,-20,17
68,2158,13,-421,-4699,23,-43,-19,18
69,2162,1,-432,-4695,23,-43,-18,16
70,2161,2,-426,-4696,23,-45,-20,16
71,2152,1,-412,-4703,23,-44,-19,17
72,2152,2,-418,-4688,23,-45,-20,18
73,2158,2,-415,-4699,23,-43,-19,17
74,2165,8,-427,-4703,23,-43,-20,16
75,2163,2,-424,-4698,23,-43,-18,17
76,2160,-7,-423,-4702,23,-45,-19,18
77,2160,1,-435,-4700,23,-44,-19,17
78,2160,-2,-425,-4695,23,-44,-18,18
79,2160,3,-426,-4708,23,-43,-18,15
80,2158,-5,-435,-4702,23,-44,-21,17
81,2157,5,-427,-4700,23,-44,-18,17
82,2158,5,-433,-4707,23,-44,-18,18
83,2163,7,-421,-4699,23,-43,-20,18
84,2157,3,-423,-4707,23,-45,-19,19
85,2162,0,-423,-4694,23,-44,-20,17
86,2165,0,-423,-4699,23,-42,-19,17
87,2159,-2,-425,-4702,23,-42,-18,19
88,2158,-3,-432,-4696,23,-43,-20,15
89,2160,3,-430,-4691,23,-45,-17,17
90,2163,3,-415,-4702,23,-44,-20,16
91,2153,-4,-419,-4703,23,-43,-20,17
92,2159,-5,-424,-4704,23,-44,-20,17
93,2157,2,-418,-4702,23,-44,-19,16
94,2161,-3,-429,-4696,23,-44,-19,17
95,2158,-5,-421,-4696,23,-44,-19,18
96,2159,-3,-414,-4691,23,-45,-19,16
97,2155,-1,-421,-4697,23,-43,-18,17
98,2167,-3,-421,-4684,23,-43,-20,16
99,2161,2,-432,-4699,23,-43,-19,18
100,2163,-3,-424,-4708,23,-44,-18,16
101,2160,3,-430,-4701,23,-43,-19,16
102,2160,-1,-428,-4704,23,-44,-19,18
103,2163,6,-429,-4691,23,-43,-20,17
104,2161,-5,-425,-4692,23,-44,-21,16
105,2166,-2,-435,-4703,23,-43,-16,16
106,2164,5,-419,-4687,23,-43,-17,18
107,2162,1,-421,-4698,23,-43,-19,16
108,2163,9,-417,-4709,23,-45,-19,17
109,2160,6,-425,-4699,23,-43,-18,17
110,2155,2,-427,-4702,23,-43,-18,17
111,2158,-8,-437,-4705,23,-45,-20,17
112,2162,1,-423,-4699,23,-42,-19,16
113,2159,3,-416,-4700,23,-43,-19,17
114,2164,0,-431,-4701,23,-44,-19,17
115,2163,-2,-433,-4704,23,-43,-18,18
116,2151,5,-426,-4711,23,-44,-18,15
117,2156,-3,-422,-4697,23,-45,-18,17
118,2162,-1,-428,-4702,23,-44,-19,17
119,2166,0,-439,-4701,23,-44,-19,18
120,2166,-4,-428,-4698,23,-44,-21,16
121,2159,-1,-425,-4703,23,-43,-19,17
122,2160,1,-422,-4693,23,-43,-18,16
123,2162,7,-427,-4708,23,-42,-18,17
124,2158,4,-428,-4696,23,-42,-19,16
125,2151,5,-423,-4698,23,-43,-18,19
126,2160,-7,-422,-4692,23,-44,-18,16
127,2163,1,-422,-4696,23,-43,-17,16
128,2159,-2,-435,-4707,23,-44,-16,16
129,2165,-6,-431,-4697,23,-45,-17,17
130,2157,0,-416,-4694,23,-43,-19,18
131,2147,3,-420,-4699,23,-44,-21,16
132,2154,3,-426,-4714,23,-44,-19,19
133,2158,3,-429,-4701,23,-44,-19,18
134,2156,-3,-416,-4699,23,-42,-20,17
135,2160,11,-427,-4695,23,-44,-19,16
136,2156,-1,-425,-4700,23,-44,-19,17
137,2163,7,-425,-4703,23,-43,-19,17
138,2168,2,-423,-4709,23,-44,-19,17
139,2158,-2,-429,-4698,23,-45,-19,18
140,2161,-1,-411,-4707,23,-43,-20,17
141,2168,2,-416,-4701,23,-44,-20,18
142,2157,-3,-432,-4692,23,-43,-20,17
143,2159,-1,-431,-4704,23,-45,-19,17
144,2162,-8,-440,-4707,23,-43,-20,16
145,2166,-1,-421,-4691,23,-45,-18,16
146,2161,1,-425,-4697,23,-44,-20,16
147,2164,-3,-435,-4694,23,-43,-21,16
148,2157,3,-434,-4698,23,-44,-20,17
149,2157,4,-422,-4702,23,-46,-18,17
150,2163,1,-431,-4696,23,-44,-19,18
151,2168,-5,-427,-4701,23,-44,-20,16
152,2160,7,-433,-4704,23,-43,-18,19
153,2158,3,-426,-4692,23,-43,-18,18
154,2157,2,-416,-4693,23,-43,-20,16
155,2156,0,-424,-4699,23,-44,-20,16
156,2159,-5,-430,-4689,23,-42,-19,17
157,2156,-4,-429,-4687,23,-43,-20,17
158,2155,-3,-423,-4701,23,-43,-21,16
159,2164,7,-415,-4691,23,-44,-20,16
160,2162,-8,-423,-4699,23,-43,-19,17
161,2159,-4,-428,-4702,23,-44,-19,16
162,2150,-1,-425,-4699,23,-43,-21,16
163,2161,-4,-432,-4700,23,-43,-21,18
164,2149,-2,-437,-4685,23,-44,-18,17
165,2159,2,-421,-4698,23,-44,-19,18
166,2159,7,-414,-4706,23,-44,-18,18
167,2161,6,-424,-4699,23,-45,-20,18
168,2153,-1,-423,-4690,23,-43,-19,17
169,2157,4,-415,-4698,23,-43,-18,17
170,2158,0,-416,-4699,23,-45,-20,16
171,2157,0,-428,-4705,23,-45,-18,16
172,2165,0,-429,-4704,23,-43,-20,18
173,2165,2,-435,-4692,23,-43,-17,17
174,2154,1,-427,-4691,23,-45,-19,18
175,2162,-4,-426,-4704,23,-44,-19,16
176,2158,0,-425,-4685,23,-43,-18,19
177,2161,2,-428,-4693,23,-43,-19,17
178,2160,0,-423,-4699,23,-44,-21,16
179,2163,0,-421,-4691,23,-47,-19,16
180,2152,-3,-406,-4702,23,-46,-18,18
181,2161,0,-424,-4695,23,-43,-18,18
182,2163,1,-417,-4700,23,-43,-19,16
183,2167,-5,-425,-4708,23,-44,-20,17
184,2159,3,-431,-4701,23,-44,-22,17
185,2158,2,-426,-4702,23,-43,-19,16
186,2159,4,-429,-4699,23,-44,-21,16
187,2163,4,-425,-4699,23,-43,-21,17
188,2158,12,-422,-4694,23,-43,-19,18
189,2148,-1,-421,-4705,23,-43,-19,16
190,2153,0,-430,-4694,23,-44,-20,17
191,2163,-3,-425,-4698,23,-45,-20,18
192,2167,-3,-422,-4694,23,-46,-19,19
193,2163,0,-420,-4689,23,-44,-19,17
194,2163,0,-425,-4707,23,-44,-20,16
195,2153,2,-434,-4700,23,-45,-19,15
196,2159,-1,-417,-4683,23,-44,-19,17
197,2162,2,-432,-4700,23,-43,-17,18
198,2157,9,-422,-4683,23,-44,-19,16
199,2156,0,-430,-4695,23,-43,-22,16
200,2164,0,-422,-4701,23,-43,-19,16
201,2148,4,-429,-4694,23,-46,-20,18
202,2168,-5,-435,-4692,23,-43,-19,18
203,2156,0,-421,-4710,23,-45,-18,17
204,2158,-3,-431,-4700,23,-43,-20,18
205,2163,6,-424,-4707,23,-45,-20,16
206,2159,3,-424,-4697,23,-43,-18,18
207,2162,-3,-430,-4696,23,-44,-19,16
208,2158,-8,-427,-4702,23,-42,-18,17
209,2157,0,-431,-4695,23,-46,-20,17
210,2161,1,-421,-4698,23,-45,-19,16
211,2157,1,-430,-4702,23,-44,-19,17
212,2157,1,-423,-4694,23,-44,-20,16
213,2161,-6,-428,-4692,23,-44,-19,18
214,2157,-4,-421,-4697,23,-44,-18,17
215,2165,-4,-420,-4688,23,-43,-19,17
216,2154,-6,-436,-4694,23,-44,-20,16
217,2164,4,-429,-4697,23,-41,-18,17
218,2159,0,-426,-4694,23,-41,-19,18
219,2161,-4,-417,-4704,23,-44,-17,18
220,2165,-1,-420,-4700,23,-45,-20,16
221,2159,-1,-443,-4690,23,-44,-19,17
222,2160,0,-431,-4693,23,-45,-19,18
223,2153,1,-432,-4698,23,-44,-20,18
224,2158,1,-413,-4697,23,-44,-18,17
225,2154,1,-425,-4703,23,-44,-19,18
226,2158,-11,-426,-4685,23,-44,-18,17
227,2155,-3,-421,-4701,23,-44,-19,18
228,2158,2,-436,-4712,23,-47,-20,17
229,2165,2,-430,-4702,23,-43,-19,17
230,2154,3,-414,-4691,23,-43,-18,18
231,2170,-3,-426,-4695,23,-44,-19,16
232,2154,4,-422,-4694,23,-43,-20,17
233,2160,-7,-442,-4697,23,-45,-21,18
234,2162,-2,-429,-4689,23,-46,-20,17
235,2164,6,-436,-4699,23,-45,-20,17
236,2157,-2,-423,-4707,23,-44,-19,18
237,2164,-5,-429,-4695,23,-42,-22,17
238,2164,0,-432,-4708,23,-43,-19,16
239,2160,5,-430,-4696,23,-45,-18,17
240,2161,2,-428,-4687,23,-43,-19,18
241,2158,6,-435,-4703,23,-43,-19,16
242,2162,5,-428,-4699,23,-43,-20,17
243,2158,-1,-421,-4687,23,-45,-18,16
244,2161,-5,-429,-4693,23,-43,-20,19
245,2158,7,-429,-4689,23,-44,-18,19
246,2158,3,-431,-4694,23,-44,-20,16
247,2163,1,-419,-4703,23,-45,-20,16
248,2162,4,-427,-4698,23,-45,-21,17
249,2157,2,-430,-4704,23,-42,-19,18
250,2163,2,-425,-4695,23,-43,-20,18
251,2163,8,-424,-4701,23,-44,-20,17
252,2160,1,-415,-4699,23,-43,-19,17
253,2163,-3,-424,-4699,23,-46,-20,17
254,2153,1,-429,-4694,23,-44,-19,16
255,2166,6,-424,-4700,23,-44,-19,17
256,2153,2,-438,-4707,23,-44,-20,17
257,2155,4,-424,-4695,23,-44,-18,16
258,2163,-2,-426,-4689,23,-43,-20,14
259,2154,-6,-420,-4695,23,-44,-21,16
260,2160,-1,-434,-4694,23,-44,-19,17
261,2153,-3,-417,-4698,23,-43,-18,18
262,2157,-1,-431,-4689,23,-43,-18,16
263,2160,-1,-437,-4702,23,-44,-19,17
264,2157,6,-422,-4692,23,-45,-20,15
265,2155,-2,-422,-4700,23,-42,-19,17
266,2154,-2,-420,-4697,23,-45,-20,19
267,2157,2,-428,-4686,23,-43,-18,17
268,2161,1,-427,-4697,23,-44,-19,18
269,2161,6,-430,-4695,23,-44,-17,18
270,2159,1,-430,-4687,23,-45,-18,17
271,2163,0,-429,-4702,23,-45,-20,17
272,2161,5,-429,-4697,23,-42,-20,16
273,2162,-4,-414,-4694,23,-42,-20,16
274,2156,-6,-411,-4704,23,-42,-19,17
275,2149,2,-422,-4692,23,-42,-19,17
276,2159,6,-428,-4699,23,-43,-19,16
277,2159,4,-428,-4692,23,-44,-21,17
278,2156,0,-424,-4690,23,-44,-19,18
279,2163,-1,-419,-4700,23,-44,-19,17
280,2158,-2,-429,-4704,23,-42,-20,16
281,2155,2,-422,-4698,23,-43,-20,16
282,2166,2,-418,-4698,23,-44,-18,16
283,2151,-8,-428,-4700,23,-44,-19,17
284,2156,-6,-415,-4689,23,-44,-19,16
285,2152,-9,-434,-4692,23,-43,-19,17
286,2163,-1,-429,-4691,23,-43,-18,17
287,2157,5,-419,-4697,23,-43,-19,18
288,2160,-5,-428,-4696,23,-44,-20,16
289,2154,3,-433,-4695,23,-44,-20,19
290,2163,6,-438,-4698,23,-44,-21,17
291,2159,8,-432,-4694,23,-44,-19,17
292,2152,10,-424,-4690,23,-43,-19,18
293,2156,4,-424,-4694,23,-44,-18,17
294,2157,1,-424,-4694,23,-46,-19,16
295,2161,4,-426,-4696,23,-43,-19,17
296,2164,0,-430,-4701,23,-46,-20,16
297,2158,10,-428,-4698,23,-42,-21,17
298,2160,-5,-430,-4698,23,-43,-19,16
299,2158,1,-422,-4705,23,-42,-21,16
300,2158,1,-430,-4684,23,-44,-21,18
301,2156,1,-423,-4697,23,-44,-20,18
302,2165,-4,-427,-4698,23,-44,-18,18
303,2163,0,-417,-4689,23,-42,-20,17
304,2157,-2,-423,-4693,23,-46,-18,17
305,2155,8,-419,-4697,23,-42,-19,17
306,2147,7,-425,-4682,23,-41,-19,17
307,2161,5,-420,-4686,23,-44,-18,17
308,2161,-3,-426,-4683,23,-44,-19,16
309,2158,5,-431,-4694,23,-45,-18,17
310,2157,-2,-413,-4699,23,-44,-19,17
311,2155,4,-418,-4682,23,-43,-19,17
312,2157,7,-423,-4688,23,-44,-20,17
313,2164,0,-431,-4692,23,-44,-21,17
314,2155,3,-418,-4689,23,-43,-19,19
315,2155,-1,-418,-4690,23,-45,-19,18
316,2153,0,-414,-4699,23,-43,-18,18
317,2158,7,-415,-4685,23,-44,-17,17
318,2153,2,-434,-4693,23,-45,-19,16
319,2159,8,-430,-4691,23,-43,-20,17
320,2152,-3,-431,-4692,23,-43,-18,18
321,2162,10,-428,-4695,23,-42,-19,18
322,2161,6,-419,-4695,23,-44,-20,17
323,2154,-2,-432,-4685,23,-44,-21,19
324,2164,0,-419,-4696,23,-44,-17,17
325,2163,-6,-419,-4702,23,-43,-19,17
326,2152,2,-432,-4703,23,-45,-19,16
327,2165,3,-425,-4696,23,-44,-19,17
328,2153,3,-424,-4703,23,-44,-19,17
329,2159,-5,-429,-4694,23,-44,-20,18
330,2162,-7,-430,-4698,23,-44,-20,16
331,2158,1,-433,-4702,23,-45,-21,17
332,2147,5,-423,-4694,23,-41,-21,18
333,2154,-4,-421,-4686,23,-44,-21,18
334,2152,4,-415,-4695,23,-44,-18,17
335,2158,-5,-424,-4701,23,-43,-19,17
336,2163,1,-421,-4698,23,-44,-20,18
337,2161,1,-431,-4688,23,-44,-20,17
338,2158,3,-418,-4692,23,-45,-19,16
339,2151,3,-412,-4698,23,-44,-19,17
340,2162,7,-429,-4694,23,-44,-19,15
341,2161,1,-435,-4696,23,-43,-19,17
342,2163,-4,-432,-4687,23,-44,-19,16
343,2158,9,-435,-4696,23,-43,-19,18
344,2156,-2,-422,-4694,23,-44,-19,16
345,2169,2,-416,-4688,23,-44,-20,16
346,2163,-3,-418,-4691,23,-43,-20,16
347,2162,3,-427,-4689,23,-44,-20,17
348,2153,-2,-422,-4690,23,-43,-19,18
349,2161,-1,-432,-4689,23,-45,-20,16
350,2159,2,-427,-4678,23,-46,-18,18
351,2162,1,-412,-4691,23,-43,-19,18
352,2163,-5,-420,-4679,23,-43,-19,16
353,2164,1,-420,-4698,23,-43,-20,17
354,2161,6,-421,-4692,23,-44,-18,17
355,2150,7,-421,-4688,23,-43,-19,16
356,2157,4,-424,-4685,23,-44,-19,18
357,2156,-5,-433,-4690,23,-42,-20,17
358,2158,-3,-417,-4693,23,-44,-21,17
359,2161,7,-425,-4686,23,-43,-18,17
360,2164,9,-426,-4690,23,-44,-20,18
361,2159,-2,-418,-4692,23,-43,-18,18
362,2161,8,-423,-4703,23,-44,-19,18
363,2165,2,-431,-4690,23,-44,-18,17
364,2167,-5,-429,-4699,23,-46,-19,18
365,2153,-1,-412,-4685,23,-44,-21,16
366,2151,1,-430,-4692,23,-45,-20,16
367,2156,4,-414,-4692,23,-43,-20,16
368,2155,-2,-429,-4689,23,-45,-19,18
369,2161,14,-423,-4694,23,-42,-18,16
370,2156,2,-424,-4697,23,-44,-19,16
371,2159,1,-444,-4696,23,-44,-20,18
372,2159,-1,-421,-4688,23,-44,-18,18
373,2152,2,-438,-4680,23,-45,-19,17
374,2163,7,-423,-4689,23,-44,-17,18
375,2156,-2,-427,-4688,23,-46,-21,16
376,2154,5,-425,-4685,23,-44,-19,19
377,2155,-4,-425,-4686,23,-43,-19,16
378,2153,3,-427,-4688,23,-44,-20,18
379,2157,-8,-415,-4699,23,-43,-20,18
380,2162,1,-432,-4693,23,-44,-18,17
381,2159,-2,-432,-4696,23,-43,-19,17
382,2158,4,-423,-4686,23,-42,-19,15
383,2166,-6,-441,-4690,23,-45,-20,16
384,2161,-6,-426,-4699,23,-43,-19,16
385,2162,-8,-424,-4681,23,-44,-20,17
386,2161,-3,-422,-4694,23,-42,-17,18
387,2166,3,-418,-4689,23,-44,-20,17
388,2157,2,-430,-4697,23,-43,-20,18
389,2161,-2,-424,-4692,23,-44,-20,17
390,2158,-3,-425,-4695,23,-44,-19,17
391,2161,-1,-427,-4693,23,-44,-18,17
392,2157,4,-428,-4704,23,-43,-20,15
393,2166,1,-423,-4689,23,-44,-20,17
394,2158,2,-421,-4688,23,-44,-18,17
395,2156,-1,-421,-4688,23,-43,-18,16
396,2149,1,-423,-4700,23,-44,-17,16
397,2157,4,-420,-4696,23,-43,-21,19
398,2158,3,-413,-4700,23,-43,-19,17
399,2162,0,-426,-4697,23,-42,-18,16
400,2156,1,-436,-4687,23,-45,-19,19
401,2165,1,-423,-4690,23,-43,-19,16
402,2161,-6,-439,-4700,23,-42,-19,16
403,2158,0,-420,-4685,23,-43,-20,17
404,2162,0,-416,-4691,23,-44,-20,18
405,2161,8,-430,-4691,23,-43,-20,16
406,2162,-1,-430,-4690,23,-44,-18,17
407,2160,7,-420,-4689,23,-46,-20,17
408,2158,-1,-420,-4694,23,-42,-18,18
409,2165,5,-428,-4696,23,-43,-18,17
410,2161,2,-427,-4697,23,-44,-20,17
411,2165,-3,-424,-4702,23,-43,-19,18
412,2162,1,-414,-4693,23,-43,-18,17
413,2160,-2,-418,-4696,23,-43,-20,18
414,2162,-2,-423,-4701,23,-44,-18,19
415,2157,0,-439,-4699,23,-43,-20,16
416,2161,-2,-418,-4685,23,-43,-19,16
417,2160,-3,-422,-4696,23,-44,-20,18
418,2165,0,-418,-4695,23,-44,-18,18
419,2158,0,-439,-4690,23,-44,-20,19
420,2156,2,-430,-4676,23,-45,-18,16
421,2153,-1,-421,-4692,23,-42,-19,18
422,2159,-4,-426,-4685,23,-44,-20,17
423,2159,3,-428,-4699,23,-43,-20,18
424,2155,0,-428,-4704,23,-44,-20,17
425,2157,1,-426,-4697,23,-44,-20,17
426,2158,1,-432,-4693,23,-45,-20,17
427,2156,-2,-427,-4693,23,-42,-18,17
428,2161,3,-423,-4692,23,-44,-17,16
429,2158,1,-422,-4697,23,-43,-19,17
430,2157,2,-422,-4702,23,-45,-19,18
431,2162,4,-426,-4693,23,-44,-20,15
432,2166,-4,-419,-4690,23,-44,-20,17
433,2155,0,-423,-4705,23,-44,-21,17
434,2162,4,-421,-4693,23,-44,-20,17
435,2154,0,-416,-4697,23,-43,-19,16
436,2161,9,-429,-4695,23,-44,-18,16
437,2158,0,-421,-4692,23,-44,-21,16
438,2161,-4,-424,-4693,23,-42,-18,18
439,2150,0,-425,-4693,23,-43,-19,17
440,2163,3,-421,-4687,23,-45,-20,17
441,2160,-2,-427,-4700,23,-45,-20,18
442,2157,1,-422,-4685,23,-44,-18,17
443,2162,3,-422,-4692,23,-41,-20,18
444,2161,5,-423,-4689,23,-44,-20,17
445,2154,0,-423,-4695,23,-43,-20,18
446,2157,6,-434,-4699,23,-44,-19,17
447,2156,2,-431,-4684,23,-44,-19,17
448,2157,-2,-436,-4694,23,-43,-21,18
449,2156,3,-427,-4700,23,-43,-21,17
450,2156,2,-416,-4691,23,-43,-19,17
451,2158,-5,-425,-4688,23,-43,-20,16
452,2165,-3,-423,-4704,23,-43,-19,16
453,2159,1,-433,-4694,23,-44,-20,16
454,2161,-9,-434,-4682,23,-44,-22,15
455,2160,-4,-420,-4689,23,-43,-20,17
456,2164,4,-426,-4693,23,-43,-18,17
457,2162,0,-430,-4686,23,-42,-19,16
458,2157,1,-429,-4696,23,-42,-19,17
459,2159,-7,-419,-4691,23,-44,-18,16
460,2161,2,-428,-4691,23,-43,-20,17
461,2162,-3,-431,-4695,23,-43,-19,18
462,2161,1,-430,-4696,23,-43,-20,17
463,2163,11,-426,-4695,23,-45,-20,17
464,2163,-2,-429,-4692,23,-43,-18,17
465,2159,-4,-425,-4695,23,-43,-19,16
466,2161,-6,-435,-4693,23,-45,-20,18
467,2158,7,-429,-4698,23,-45,-19,17
468,2160,-3,-420,-4695,23,-43,-18,17
469,2159,-3,-423,-4691,23,-44,-20,16
470,2154,6,-423,-4697,23,-45,-18,17
471,2162,4,-426,-4689,23,-45,-19,18
472,2156,-4,-419,-4693,23,-43,-19,17
473,2160,2,-421,-4688,23,-44,-19,17
474,2155,-4,-433,-4689,23,-43,-18,17
475,2157,0,-427,-4692,23,-43,-18,18
476,2160,6,-422,-4705,23,-46,-20,19
477,2151,1,-429,-4700,23,-45,-21,16
478,2153,-2,-423,-4702,23,-44,-20,17
479,2169,4,-423,-4698,23,-45,-20,18
480,2161,6,-436,-4692,23,-43,-21,17
481,2150,-4,-418,-4686,23,-43,-20,16
482,2162,4,-441,-4702,23,-42,-20,18
483,2156,-2,-423,-4691,23,-44,-20,18
484,2162,-2,-416,-4693,23,-44,-20,15
485,2160,4,-430,-4693,23,-44,-18,17
486,2163,2,-424,-4687,23,-43,-20,17
487,2162,-4,-423,-4685,23,-44,-19,19
488,2157,-4,-424,-4704,23,-44,-22,17
489,2154,-6,-433,-4692,23,-43,-21,18
490,2157,1,-435,-4690,23,-44,-18,18
491,2156,-6,-433,-4687,23,-44,-19,18
492,2155,-3,-418,-4703,23,-43,-18,18
493,2162,-3,-429,-4707,23,-44,-19,16
494,2163,-5,-430,-4703,23,-45,-20,17
495,2166,-3,-428,-4694,23,-44,-18,16
496,2162,3,-409,-4686,23,-43,-19,18
497,2160,-3,-421,-4690,23,-43,-19,18
498,2150,8,-436,-4689,23,-44,-18,18
499,2155,6,-430,-4687,23,-43,-18,19
500,2167,3,-425,-4686,23,-42,-17,16
501,2160,6,-425,-4699,23,-44,-20,18
502,2163,-4,-418,-4695,23,-45,-21,17
503,2160,-10,-431,-4698,23,-44,-20,18
504,2158,-6,-419,-4689,23,-43,-20,16
505,2159,-5,-429,-4685,23,-43,-19,17
506,2160,0,-427,-4709,23,-45,-20,15
507,2162,-1,-418,-4693,23,-44,-19,17
508,2154,6,-412,-4698,23,-44,-21,18
509,2161,-1,-420,-4691,23,-44,-20,19
510,2166,2,-442,-4700,23,-43,-19,16
511,2157,-1,-437,-4695,23,-43,-19,18
512,2159,3,-427,-4691,23,-45,-19,17
513,2170,2,-427,-4687,23,-45,-18,19
514,2161,-7,-423,-4687,23,-43,-18,17
515,2158,-7,-431,-4709,23,-45,-19,16
516,2155,-2,-415,-4693,23,-44,-21,18
517,2159,4,-420,-4686,23,-44,-18,18
518,2169,-1,-438,-4702,23,-44,-20,18
519,2155,5,-428,-4698,23,-45,-19,18
520,2170,-1,-427,-4706,23,-45,-18,17
521,2163,11,-414,-4701,23,-45,-19,16
522,2164,1,-430,-4696,23,-44,-20,16
523,2158,1,-416,-4696,23,-46,-20,16
524,2154,-2,-426,-4700,23,-45,-19,19
525,2162,3,-429,-4694,23,-44,-19,16
526,2155,1,-424,-4708,23,-43,-17,18
527,2161,0,-427,-4685,23,-46,-21,19
528,2163,-4,-429,-4692,23,-42,-19,16
529,2165,5,-423,-4688,23,-44,-18,16
530,2156,-2,-429,-4684,23,-43,-18,17
531,2162,3,-425,-4701,23,-44,-18,18
532,2155,-2,-430,-4699,23,-43,-19,18
533,2159,0,-433,-4698,23,-43,-19,18
534,2155,-1,-432,-4693,23,-45,-18,17
535,2166,10,-425,-4689,23,-44,-19,17
536,2155,2,-418,-4703,23,-44,-19,15
537,2152,1,-435,-4698,23,-44,-19,17
538,2163,-6,-430,-4694,23,-44,-20,17
539,2161,2,-427,-4687,23,-43,-18,17
540,2158,1,-425,-4690,23,-43,-18,17
541,2157,4,-426,-4692,23,-43,-19,18
542,2158,-9,-419,-4697,23,-44,-19,18
543,2156,2,-422,-4686,23,-43,-20,18
544,2166,6,-419,-4696,23,-45,-17,16
545,2158,-1,-414,-4697,23,-45,-18,16
546,2159,-3,-419,-4697,23,-44,-20,16
547,2161,-2,-423,-4679,23,-45,-17,15
548,2162,0,-437,-4689,23,-43,-19,18
549,2161,2,-425,-4694,23,-42,-18,18
550,2148,2,-421,-4704,23,-43,-20,16
551,2156,1,-426,-4685,23,-43,-18,17
552,2153,-7,-433,-4685,23,-43,-19,17
553,2152,5,-427,-4691,23,-44,-19,17
554,2163,-8,-418,-4695,23,-44,-19,18
555,2161,11,-421,-4697,23,-43,-17,18
556,2151,5,-423,-4681,23,-41,-19,17
557,2155,6,-432,-4696,23,-46,-19,18
558,2169,0,-434,-4692,23,-43,-18,17
559,2165,0,-423,-4687,23,-43,-21,19
560,2158,0,-423,-4696,23,-44,-20,16
561,2155,4,-423,-4700,23,-43,-20,18
562,2154,-4,-438,-4702,23,-43,-21,18
563,2161,5,-435,-4686,23,-45,-20,15
564,2163,4,-420,-4695,23,-44,-19,16
565,2167,4,-425,-4698,23,-43,-21,17
566,2158,7,-420,-4701,23,-45,-20,16
567,2161,10,-425,-4689,23,-44,-20,17
568,2150,-7,-422,-4696,23,-43,-19,18
569,2154,0,-414,-4697,23,-44,-20,15
570,2159,3,-422,-4700,23,-43,-19,18
571,2155,3,-433,-4696,23,-43,-18,17
572,2157,2,-427,-4682,23,-43,-21,18
573,2160,4,-423,-4699,23,-45,-18,19
574,2156,1,-424,-4701,23,-45,-19,18
575,2163,2,-439,-4692,23,-44,-20,18
576,2161,0,-419,-4694,23,-43,-21,17
577,2162,-1,-411,-4689,23,-45,-20,18
578,2155,1,-439,-4694,23,-44,-19,16
579,2166,0,-424,-4691,23,-42,-19,18
580,2165,8,-428,-4696,23,-42,-19,17
581,2163,4,-424,-4684,23,-41,-20,17
582,2157,-8,-427,-4685,23,-43,-21,19
583,2157,-1,-431,-4685,23,-43,-19,17
584,2161,3,-415,-4690,23,-43,-20,17
585,2160,1,-427,-4689,23,-44,-21,17
586,2161,6,-421,-4699,23,-43,-20,17
587,2162,-5,-415,-4700,23,-44,-20,15
588,2157,-8,-428,-4690,23,-43,-20,16
589,2158,2,-427,-4684,23,-44,-18,15
590,2160,7,-426,-4683,23,-43,-17,17
591,2154,4,-430,-4689,23,-46,-18,19
592,2150,-5,-433,-4694,23,-44,-19,17
593,2159,-2,-422,-4695,23,-43,-18,17
594,2154,8,-432,-4706,23,-46,-19,17
595,2165,1,-428,-4696,23,-44,-20,17
596,2155,-4,-416,-4690,23,-44,-19,17
597,2169,6,-429,-4681,23,-45,-19,17
598,2161,1,-419,-4677,23,-44,-19,17
599,2159,6,-418,-4689,23,-42,-19,18
600,2155,-11,-426,-4697,23,-44,-19,17
601,2158,-2,-427,-4684,23,-44,-20,17
602,2157,2,-433,-4690,23,-43,-20,17
603,2155,5,-425,-4691,23,-44,-22,18
604,2162,2,-427,-4691,23,-43,-20,17
605,2156,7,-427,-4687,23,-42,-18,18
606,2154,-3,-416,-4700,23,-44,-21,17
607,2156,5,-422,-4695,23,-43,-20,17
608,2161,5,-419,-4695,23,-45,-18,16
609,2161,-1,-413,-4699,23,-44,-19,17
610,2161,-4,-437,-4687,23,-43,-21,17
611,2165,2,-428,-4690,23,-43,-19,17
612,2161,6,-415,-4686,23,-44,-20,17
613,2162,-2,-426,-4694,23,-44,-19,16
614,2163,1,-410,-4700,23,-43,-18,17
615,2161,7,-438,-4688,23,-43,-19,16
616,2158,2,-420,-4683,23,-44,-20,17
617,2154,-8,-417,-4697,23,-45,-21,17
618,2157,4,-426,-4684,23,-42,-19,17
619,2150,2,-437,-4696,23,-42,-20,17
620,2157,12,-432,-4682,23,-43,-19,16
621,2160,-6,-437,-4689,23,-45,-21,17
622,2155,-12,-423,-4685,23,-44,-17,17
623,2163,-6,-423,-4689,23,-45,-19,17
624,2163,0,-425,-4679,23,-43,-17,16
625,2162,0,-424,-4689,23,-45,-18,16
626,2157,-1,-430,-4678,23,-43,-19,17
627,2155,3,-431,-4684,23,-43,-20,16
628,2161,-4,-423,-4687,23,-45,-19,16
629,2161,8,-418,-4696,23,-44,-19,17
630,2162,0,-435,-4691,23,-44,-18,18
631,2160,-2,-423,-4682,23,-43,-19,18
632,2157,3,-423,-4699,23,-45,-19,16
633,2156,-4,-427,-4688,23,-44,-18,17
634,2149,8,-425,-4686,23,-44,-21,16
635,2165,1,-428,-4686,23,-43,-17,19
636,2155,0,-422,-4691,23,-43,-18,16
637,2155,0,-422,-4685,23,-45,-18,18
638,2166,4,-419,-4696,23,-43,-19,16
639,2156,10,-427,-4683,23,-43,-20,18
640,2159,6,-434,-4687,23,-43,-21,15
641,2162,1,-422,-4688,23,-42,-18,17
642,2161,4,-427,-4679,23,-45,-20,16
643,2168,2,-411,-4683,23,-44,-19,16
644,2161,4,-422,-4680,23,-42,-19,16
645,2158,2,-415,-4697,23,-43,-19,16
646,2167,10,-418,-4683,23,-43,-18,16
647,2158,4,-427,-4686,23,-44,-20,17
648,2156,-1,-427,-4679,23,-44,-18,16
649,2160,-3,-430,-4689,23,-43,-18,17
650,2160,4,-422,-4690,23,-44,-19,18
651,2163,-5,-427,-4682,23,-43,-19,18
652,2158,-4,-427,-4678,23,-43,-19,17
653,2163,-5,-427,-4685,23,-43,-21,16
654,2160,1,-415,-4683,23,-43,-20,17
655,2156,-2,-421,-4684,23,-44,-20,17
656,2160,-5,-433,-4692,23,-42,-18,18
657,2163,3,-410,-4674,23,-44,-21,16
658,2157,1,-433,-4686,23,-43,-19,15
659,2159,0,-426,-4694,23,-44,-22,16
660,2159,6,-437,-4693,23,-43,-19,18
661,2162,-4,-429,-4682,23,-44,-18,17
662,2159,4,-418,-4696,23,-43,-19,17
663,2165,4,-421,-4688,23,-42,-20,16
664,2151,4,-439,-4695,23,-44,-20,16
665,2161,-1,-424,-4684,23,-43,-20,16
666,2167,3,-422,-4679,23,-44,-19,17
667,2160,-2,-418,-4679,23,-44,-18,17
668,2155,-3,-419,-4678,23,-44,-20,18
669,2160,6,-431,-4692,23,-43,-19,17
670,2161,3,-439,-4683,23,-42,-19,17
671,2162,1,-426,-4687,23,-43,-19,17
672,2158,-5,-427,-4681,23,-44,-20,18
673,2152,5,-432,-4679,23,-42,-18,16
674,2161,-5,-422,-4694,23,-44,-19,16
675,2161,-3,-420,-4691,23,-43,-18,17
676,2159,-1,-435,-4680,23,-42,-21,16
677,2167,-2,-436,-4695,23,-44,-21,17
678,2154,-9,-414,-4678,23,-44,-19,18
679,2158,-4,-416,-4691,23,-44,-20,16
680,2162,-1,-426,-4686,23,-43,-18,18
681,2150,-1,-426,-4688,23,-43,-19,17
682,2159,-6,-406,-4683,23,-44,-19,19
683,2157,3,-423,-4694,23,-45,-19,15
684,2161,5,-434,-4692,23,-43,-21,17
685,2162,8,-413,-4695,23,-44,-19,16
686,2155,4,-413,-4696,23,-44,-19,16
687,2159,-2,-425,-4689,23,-43,-20,17
688,2156,2,-412,-4695,23,-43,-19,17
689,2168,-1,-431,-4695,23,-44,-20,18
690,2166,4,-427,-4684,23,-43,-19,17
691,2161,3,-425,-4695,23,-45,-20,16
692,2158,5,-424,-4684,23,-45,-20,18
693,2158,1,-415,-4690,23,-45,-19,16
694,2157,3,-427,-4689,23,-43,-19,16
695,2163,9,-424,-4689,23,-45,-19,16
696,2155,-6,-425,-4690,23,-47,-18,18
697,2166,3,-417,-4697,23,-46,-19,18
698,2155,10,-425,-4691,23,-44,-21,19
699,2157,-1,-423,-4692,23,-42,-18,16
700,2169,2,-420,-4696,23,-43,-20,18
701,2158,11,-428,-4677,23,-41,-19,17
702,2161,1,-419,-4688,23,-46,-20,18
703,2157,0,-427,-4687,23,-44,-19,20
704,2162,0,-418,-4683,23,-45,-19,17
705,2166,3,-430,-4692,23,-45,-19,17
706,2164,4,-426,-4688,23,-45,-19,17
707,2161,4,-414,-4686,23,-42,-17,17
708,2165,-3,-413,-4689,23,-42,-19,18
709,2158,0,-426,-4688,23,-43,-17,17
710,2165,3,-424,-4686,23,-45,-20,18
711,2157,0,-431,-4690,23,-44,-19,19
712,2162,5,-426,-4686,23,-43,-18,17
713,2160,-1,-423,-4686,23,-44,-20,17
714,2158,0,-427,-4684,23,-45,-21,18
715,2158,-3,-424,-4689,23,-47,-20,18
716,2164,4,-418,-4685,23,-44,-19,17
717,2154,2,-419,-4695,23,-44,-19,18
718,2154,-5,-427,-4681,23,-43,-21,18
719,2163,5,-416,-4685,23,-43,-20,17
720,2153,0,-418,-4681,23,-45,-18,18
721,2164,8,-428,-4684,23,-44,-19,17
722,2152,7,-420,-4700,23,-43,-20,16
723,2163,-1,-429,-4691,23,-43,-20,17
724,2160,-1,-425,-4690,23,-43,-20,18
725,2156,5,-437,-4694,23,-43,-20,17
726,2153,3,-423,-4684,23,-43,-19,16
727,2157,-3,-414,-4697,23,-44,-19,18
728,2165,8,-427,-4681,23,-44,-19,18
729,2156,1,-421,-4691,23,-43,-21,17
730,2154,3,-423,-4684,23,-45,-19,17
731,2161,7,-418,-4676,23,-44,-19,17
732,2158,0,-420,-4688,23,-44,-20,17
733,2163,4,-423,-4681,23,-44,-19,19
734,2161,-5,-428,-4671,23,-44,-19,16
735,2158,9,-428,-4693,23,-43,-21,16
736,2171,5,-422,-4693,23,-44,-19,17
737,2164,6,-423,-4674,23,-44,-21,17
738,2166,-1,-426,-4687,23,-42,-19,18
739,2163,1,-423,-4681,23,-44,-19,17
740,2150,10,-430,-4682,23,-46,-21,16
741,2156,-3,-419,-4678,23,-41,-19,16
742,2158,-2,-426,-4682,23,-44,-18,18
743,2159,-6,-424,-4693,23,-46,-21,16
744,2161,2,-421,-4694,23,-46,-20,17
745,2160,1,-418,-4687,23,-44,-17,18
746,2157,3,-434,-4682,23,-44,-19,15
747,2160,2,-430,-4689,23,-43,-18,17
748,2158,-3,-433,-4684,23,-42,-18,16
749,2167,3,-428,-4678,23,-44,-20,17
750,2167,0,-434,-4682,23,-44,-20,18
751,2156,0,-428,-4681,23,-43,-20,15
752,2150,3,-426,-4677,23,-45,-18,17
753,2157,-2,-416,-4689,23,-43,-19,17
754,2153,6,-416,-4687,23,-44,-21,17
755,2159,10,-426,-4681,23,-43,-21,15
756,2153,-8,-421,-4677,23,-44,-20,17
757,2165,0,-423,-4693,23,-42,-18,17
758,2165,3,-414,-4680,23,-44,-20,17
759,2166,-2,-429,-4693,23,-45,-20,15
760,2153,0,-413,-4677,23,-45,-17,16
761,2159,2,-422,-4681,23,-45,-19,17
762,2159,2,-422,-4690,23,-44,-20,16
763,2155,0,-424,-4677,23,-43,-22,18
764,2160,3,-422,-4687,23,-43,-21,16
765,2159,0,-431,-4687,23,-44,-20,17
766,2164,-1,-423,-4682,23,-44,-19,17
767,2163,3,-427,-4679,23,-43,-19,18
768,2166,5,-425,-4687,23,-41,-18,16
769,2159,6,-415,-4684,23,-44,-17,19
770,2159,5,-420,-4675,23,-43,-20,18
771,2162,5,-428,-4683,23,-45,-20,17
772,2163,2,-431,-4679,23,-45,-20,18
773,2162,4,-419,-4676,23,-44,-18,18
774,2159,-3,-431,-4680,23,-44,-19,16
775,2161,5,-421,-4688,23,-43,-22,17
776,2161,7,-418,-4682,23,-45,-19,15
777,2157,-2,-419,-4685,23,-44,-18,18
778,2163,-1,-426,-4691,23,-44,-20,17
779,2158,-2,-431,-4689,23,-45,-20,17
780,2163,0,-436,-4693,23,-45,-20,18
781,2156,3,-418,-4685,23,-44,-18,17
782,2161,6,-425,-4688,23,-44,-20,16
783,2161,-1,-426,-4688,23,-45,-19,16
784,2156,3,-425,-4688,23,-44,-19,16
785,2163,-11,-422,-4679,23,-43,-20,16
786,2163,-4,-422,-4690,23,-44,-21,18
787,2156,0,-426,-4691,23,-43,-20,17
788,2155,4,-418,-4682,23,-44,-18,18
789,2155,7,-412,-4678,23,-46,-20,15
790,2154,7,-414,-4693,23,-44,-19,19
791,2154,1,-417,-4692,23,-43,-20,17
792,2162,7,-440,-4694,23,-43,-19,17
793,2157,0,-434,-4670,23,-42,-19,17
794,2157,1,-424,-4682,23,-43,-20,17
795,2160,4,-430,-4680,23,-42,-22,16
796,2159,-2,-417,-4683,23,-43,-17,18
797,2155,0,-434,-4686,23,-43,-18,17
798,2154,-3,-430,-4689,23,-44,-20,16
799,2151,1,-423,-4675,23,-42,-18,18
800,2160,0,-418,-4678,23,-45,-19,15
801,2158,1,-419,-4681,23,-43,-19,18
802,2151,3,-427,-4693,23,-44,-21,17
803,2156,6,-411,-4683,23,-44,-20,17
804,2160,-2,-424,-4686,23,-44,-20,17
805,2166,7,-419,-4687,23,-45,-19,17
806,2168,8,-423,-4677,23,-43,-17,18
807,2158,0,-417,-4681,23,-43,-20,16
808,2163,-1,-425,-4686,23,-44,-19,16
809,2160,8,-414,-4682,23,-41,-19,16
810,2161,-1,-426,-4684,23,-43,-18,16
811,2157,6,-428,-4676,23,-42,-18,17
812,2167,1,-422,-4685,23,-44,-21,19
813,2164,-3,-421,-4689,23,-43,-21,17
814,2159,3,-423,-4695,23,-44,-17,19
815,2162,-5,-422,-4683,23,-44,-19,16
816,2158,-8,-417,-4684,23,-45,-20,18
817,2166,-1,-420,-4680,23,-44,-20,17
818,2164,3,-427,-4678,23,-44,-18,17
819,2157,-3,-422,-4682,23,-45,-19,18
820,2152,12,-427,-4678,23,-43,-19,16
821,2167,-2,-427,-4680,23,-43,-18,16
822,2162,3,-421,-4694,23,-45,-19,17
823,2158,1,-419,-4686,23,-43,-20,17
824,2160,0,-427,-4691,23,-45,-20,16
825,2164,-6,-432,-4668,23,-42,-17,17
826,2161,2,-422,-4672,23,-45,-18,17
827,2163,-3,-416,-4680,23,-45,-20,19
828,2160,-2,-428,-4681,23,-45,-19,17
829,2158,5,-424,-4691,23,-43,-19,18
830,2155,0,-423,-4691,23,-46,-20,18
831,2162,2,-419,-4683,23,-45,-20,17
832,2152,0,-429,-4683,23,-44,-19,17
833,2164,-2,-431,-4688,23,-43,-19,16
834,2163,5,-418,-4682,23,-44,-20,16
835,2156,-1,-428,-4692,23,-43,-19,17
836,2161,1,-428,-4681,23,-44,-19,18
837,2159,2,-417,-4679,23,-44,-20,16
838,2159,10,-425,-4680,23,-44,-20,18
839,2150,-2,-424,-4684,23,-44,-19,15
840,2157,2,-413,-4689,23,-45,-20,17
841,2158,-3,-431,-4688,23,-43,-20,16
842,2157,-3,-431,-4669,23,-45,-20,16
843,2160,-2,-423,-4695,23,-43,-21,16
844,2160,0,-427,-4675,23,-44,-19,16
845,2162,3,-421,-4679,23,-43,-20,15
846,2157,-4,-420,-4685,23,-44,-19,17
847,2159,9,-420,-4692,23,-44,-19,17
848,2161,3,-426,-4688,23,-44,-20,17
849,2149,8,-426,-4692,23,-43,-20,17
850,2162,0,-413,-4685,23,-43,-19,18
851,2151,3,-430,-4680,23,-43,-19,17
852,2168,7,-417,-4681,23,-45,-21,15
853,2156,3,-420,-4683,23,-44,-19,17
854,2160,-5,-419,-4685,23,-44,-19,17
855,2159,-1,-428,-4688,23,-42,-20,16
856,2167,1,-416,-4683,23,-44,-18,18
857,2160,0,-434,-4691,23,-44,-19,16
858,2165,0,-421,-4688,23,-44,-19,17
859,2163,-1,-421,-4690,23,-44,-19,17
860,2156,3,-417,-4690,23,-43,-17,18
861,2163,-3,-417,-4682,23,-46,-19,18
862,2162,0,-424,-4680,23,-44,-19,19
863,2164,7,-432,-4690,23,-42,-20,16
864,2157,1,-431,-4680,23,-45,-19,17
865,2168,3,-425,-4679,23,-43,-21,17
866,2164,4,-425,-4683,23,-42,-20,17
867,2157,0,-420,-4688,23,-43,-22,15
868,2163,1,-421,-4681,23,-45,-19,17
869,2157,-1,-423,-4685,23,-43,-18,17
870,2158,-1,-417,-4673,23,-43,-20,17
871,2160,-11,-418,-4684,23,-44,-20,19
872,2165,0,-420,-4681,23,-44,-18,16
873,2167,4,-418,-4683,23,-43,-20,16
874,2155,2,-423,-4684,23,-44,-19,17
875,2161,6,-431,-4672,23,-45,-20,17
876,2162,-1,-421,-4683,23,-43,-18,18
877,2160,-6,-427,-4681,23,-44,-19,17
878,2166,-3,-429,-4682,23,-44,-20,15
879,2163,4,-432,-4689,23,-42,-18,17
880,2156,-7,-419,-4685,23,-43,-19,18
881,2159,3,-431,-4697,23,-42,-19,16
882,2157,-4,-423,-4671,23,-45,-20,17
883,2155,-8,-432,-4691,23,-47,-18,17
884,2163,2,-418,-4672,23,-44,-19,17
885,2162,8,-437,-4684,23,-46,-18,18
886,2157,-5,-428,-4698,23,-44,-20,17
887,2159,-4,-424,-4680,23,-44,-19,16
888,2164,-3,-424,-4681,23,-44,-19,18
889,2163,2,-424,-4670,23,-43,-21,18
890,2157,-2,-433,-4689,23,-44,-19,17
891,2159,2,-412,-4679,23,-43,-19,17
892,2162,-1,-425,-4683,23,-44,-20,19
893,2163,0,-419,-4684,23,-43,-19,18
894,2156,-5,-414,-4683,23,-43,-20,16
895,2153,8,-428,-4683,23,-44,-19,18
896,2159,1,-409,-4685,23,-43,-20,17
897,2158,-5,-425,-4687,23,-44,-20,16
898,2156,-2,-432,-4682,23,-46,-20,17
899,2155,3,-420,-4686,23,-43,-20,16
900,2152,-6,-421,-4682,23,-43,-21,17
901,2158,9,-424,-4678,23,-44,-19,17
902,2159,-1,-425,-4688,23,-43,-19,18
903,2163,2,-434,-4686,23,-43,-19,17
904,2150,0,-429,-4684,23,-42,-19,16
905,2159,-4,-433,-4670,23,-42,-19,16
906,2161,11,-432,-4676,23,-45,-19,16
907,2159,-6,-426,-4680,23,-43,-18,17
908,2153,-2,-426,-4672,23,-46,-20,17
909,2156,-3,-428,-4684,23,-44,-19,17
910,2156,4,-436,-4678,23,-43,-20,18
911,2155,3,-431,-4681,23,-45,-19,18
912,2154,-1,-420,-4692,23,-45,-22,18
913,2165,-1,-422,-4682,23,-42,-19,18
914,2158,-4,-425,-4682,23,-44,-20,16
915,2169,5,-423,-4673,23,-44,-20,17
916,2164,-5,-420,-4687,23,-44,-20,17
917,2155,-2,-425,-4690,23,-46,-20,17
918,2164,-3,-426,-4697,23,-45,-20,17
919,2153,13,-422,-4681,23,-44,-19,16
920,2156,3,-435,-4684,23,-44,-19,16
921,2158,2,-420,-4688,23,-44,-20,18
922,2155,0,-421,-4682,23,-44,-20,18
923,2154,4,-425,-4677,23,-44,-21,18
924,2162,-4,-424,-4679,23,-43,-19,19
925,2160,0,-423,-4689,23,-45,-20,19
926,2155,8,-423,-4684,23,-43,-21,18
927,2157,6,-423,-4689,23,-44,-19,17
928,2154,-1,-409,-4688,23,-43,-19,18
929,2159,0,-425,-4689,23,-44,-19,16
930,2157,1,-427,-4688,23,-45,-20,17
931,2160,2,-420,-4691,23,-43,-20,18
932,2164,6,-429,-4683,23,-44,-21,17
933,2157,2,-422,-4682,23,-46,-19,17
934,2161,-3,-420,-4690,23,-45,-19,15
935,2160,1,-432,-4689,23,-44,-19,17
936,2158,0,-425,-4679,23,-44,-19,16
937,2156,-12,-415,-4689,23,-45,-19,16
938,2155,-3,-423,-4677,23,-44,-20,17
939,2162,2,-422,-4679,23,-44,-17,16
940,2153,4,-429,-4686,23,-43,-20,18
941,2162,0,-417,-4679,23,-43,-18,17
942,2165,4,-439,-4678,23,-44,-19,17
943,2164,-9,-420,-4687,23,-43,-18,16
944,2159,7,-431,-4691,23,-44,-20,15
945,2158,1,-414,-4692,23,-44,-19,17
946,2154,0,-411,-4680,23,-44,-21,15
947,2167,9,-422,-4688,23,-41,-18,17
948,2155,2,-423,-4687,23,-44,-19,16
949,2152,3,-429,-4682,23,-43,-20,15
950,2158,5,-429,-4683,23,-42,-20,17
951,2163,8,-419,-4676,23,-45,-20,17
952,2157,5,-429,-4678,23,-45,-21,17
953,2159,3,-431,-4690,23,-44,-18,18
954,2157,-1,-428,-4682,23,-43,-20,16
955,2165,6,-413,-4687,23,-46,-18,17
956,2150,1,-430,-4684,23,-43,-19,17
957,2163,-1,-431,-4671,23,-44,-20,16
958,2162,-4,-422,-4687,23,-42,-20,17
959,2159,-3,-430,-4688,23,-45,-20,18
960,2157,6,-413,-4676,23,-44,-20,18
961,2156,-3,-418,-4686,23,-45,-20,18
962,2156,10,-423,-4676,23,-44,-19,17
963,2162,-2,-418,-4679,23,-44,-21,17
964,2158,-2,-426,-4691,23,-44,-20,17
965,2164,-7,-428,-4685,23,-44,-21,18
966,2155,4,-427,-4681,23,-43,-20,16
967,2167,2,-420,-4684,23,-45,-19,16
968,2162,7,-420,-4688,23,-45,-18,16
969,2153,-2,-425,-4680,23,-45,-18,17
970,2159,5,-426,-4690,23,-43,-17,17
971,2149,3,-426,-4688,23,-44,-18,17
972,2161,5,-436,-4680,23,-43,-19,16
973,2154,1,-420,-4679,23,-44,-21,17
974,2157,4,-423,-4690,23,-44,-20,17
975,2159,3,-431,-4673,23,-43,-20,18
976,2160,2,-431,-4679,23,-44,-19,15
977,2160,7,-417,-4684,23,-43,-20,16
978,2158,3,-425,-4682,23,-43,-19,17
979,2159,2,-428,-4683,23,-42,-18,17
980,2160,-2,-427,-4684,23,-43,-17,16
981,2158,-4,-425,-4684,23,-44,-17,17
982,2151,1,-420,-4691,23,-42,-17,18
983,2157,5,-418,-4685,23,-45,-20,17
984,2162,5,-426,-4689,23,-44,-20,17
985,2164,3,-421,-4686,23,-43,-19,18
986,2161,0,-413,-4685,23,-44,-18,18
987,2160,-7,-414,-4687,23,-44,-19,16
988,2163,-6,-427,-4685,23,-44,-19,15
989,2162,-2,-419,-4688,23,-41,-18,18
990,2165,-2,-420,-4680,23,-45,-22,17
991,2173,-5,-415,-4694,23,-43,-17,18
992,2163,7,-425,-4677,23,-44,-19,17
993,2166,3,-428,-4688,23,-44,-19,17
994,2160,5,-414,-4689,23,-42,-19,17
995,2161,-4,-428,-4687,23,-46,-18,17
996,2161,0,-428,-4681,23,-44,-19,17
997,2154,7,-439,-4683,23,-44,-19,18
998,2162,-2,-417,-4679,23,-41,-18,17
