,acc_X,acc_Y,acc_Z,temp,tempC,gyr_X,gyr_Y,gyr_Z
0,2159,1,-425,-4788,22,-87,-37,33
1,2163,5,-422,-4788,22,-87,-37,33
2,2161,2,-415,-4792,22,-86,-38,36
3,2160,1,-430,-4799,22,-88,-37,35
4,2159,-2,-440,-4792,22,-87,-39,34
5,2155,6,-427,-4788,22,-89,-41,33
6,2155,-1,-422,-4789,22,-85,-39,32
7,2157,-1,-422,-4783,22,-87,-38,33
8,2149,1,-425,-4782,22,-87,-39,32
9,2156,5,-426,-4788,22,-88,-37,35
10,2159,7,-426,-4792,22,-91,-37,35
11,2159,-7,-430,-4785,22,-87,-35,34
12,2162,1,-422,-4786,22,-87,-35,35
13,2161,2,-416,-4792,22,-88,-37,34
14,2163,-1,-423,-4790,22,-87,-38,35
15,2157,5,-427,-4786,22,-87,-37,37
16,2160,-1,-420,-4789,22,-85,-35,36
17,2161,3,-430,-4787,22,-89,-37,35
18,2160,2,-426,-4783,22,-86,-38,35
19,2159,1,-434,-4782,22,-87,-36,35
20,2159,2,-429,-4781,22,-86,-38,37
21,2158,6,-432,-4776,22,-87,-35,33
22,2157,1,-424,-4789,22,-87,-35,35
23,2165,1,-424,-4785,22,-87,-38,33
24,2159,5,-425,-4782,22,-87,-39,35
25,2166,4,-428,-4782,22,-86,-37,34
26,2156,6,-420,-4779,22,-86,-39,35
27,2161,5,-427,-4777,22,-85,-38,36
28,2172,3,-429,-4783,22,-87,-38,35
29,2155,5,-433,-4785,22,-90,-38,34
30,2150,-2,-425,-4782,22,-89,-36,35
31,2166,5,-427,-4775,22,-87,-38,34
32,2167,2,-425,-4782,22,-88,-41,34
33,2152,-1,-430,-4786,22,-86,-38,32
34,2161,2,-418,-4786,22,-83,-38,35
35,2163,-1,-422,-4782,22,-88,-37,33
36,2153,-1,-421,-4790,22,-85,-39,37
37,2158,4,-430,-4777,22,-88,-42,33
38,2161,3,-424,-4780,22,-87,-38,33
39,2155,-2,-424,-4774,22,-88,-38,31
40,2159,1,-436,-4781,22,-89,-38,34
41,2161,0,-435,-4776,22,-86,-39,35
42,2161,-2,-430,-4782,22,-87,-41,33
43,2157,1,-419,-4774,22,-86,-39,32
44,2162,-3,-431,-4775,22,-89,-40,34
45,2162,4,-426,-4774,22,-86,-39,33
46,2162,-1,-426,-4778,22,-89,-36,34
47,2156,4,-419,-4782,22,-86,-38,35
48,2157,0,-428,-4776,22,-84,-38,34
49,2157,0,-422,-4772,22,-87,-38,33
50,2152,2,-430,-4772,22,-88,-38,35
51,2165,3,-424,-4777,22,-86,-39,36
52,2164,-1,-420,-4773,22,-86,-38,33
53,2159,3,-427,-4777,22,-87,-35,33
54,2157,-1,-432,-4777,22,-87,-37,34
55,2154,7,-423,-4772,22,-88,-37,35
56,2157,1,-430,-4779,22,-86,-38,35
57,2160,2,-432,-4772,22,-90,-38,33
58,2158,3,-424,-4767,22,-86,-38,33
59,2160,1,-421,-4774,22,-87,-37,34
60,2156,0,-422,-4769,22,-88,-37,35
61,2159,1,-427,-4776,22,-86,-35,34
62,2158,2,-422,-4772,22,-87,-40,34
63,2158,6,-429,-4770,22,-87,-39,35
64,2160,0,-425,-4770,22,-88,-39,34
65,2155,4,-426,-4771,22,-88,-38,32
66,2155,1,-422,-4769,22,-87,-38,34
67,2157,3,-426,-4765,22,-86,-38,34
68,2159,6,-424,-4763,22,-87,-37,35
69,2159,1,-419,-4769,22,-87,-39,35
70,2163,1,-422,-4769,22,-89,-38,34
71,2166,-1,-423,-4770,22,-90,-36,33
72,2159,-3,-428,-4769,22,-88,-39,34
73,2161,-4,-425,-4762,22,-87,-39,34
74,2160,-2,-426,-4766,22,-89,-40,32
75,2163,3,-430,-4762,22,-87,-37,34
76,2157,4,-428,-4763,22,-88,-40,34
77,2165,2,-428,-4770,22,-88,-39,35
78,2154,5,-433,-4771,22,-87,-39,33
79,2158,5,-420,-4769,22,-88,-38,32
80,2162,-2,-429,-4770,22,-89,-40,33
81,2162,3,-417,-4767,22,-89,-39,33
82,2156,3,-431,-4764,22,-87,-41,34
83,2162,2,-424,-4758,23,-88,-41,34
84,2163,-1,-422,-4754,23,-84,-40,33
85,2161,1,-429,-4763,22,-85,-38,32
86,2160,8,-424,-4756,23,-86,-38,34
87,2163,3,-423,-4761,22,-86,-38,34
88,2161,3,-423,-4764,22,-85,-38,33
89,2160,2,-428,-4759,23,-87,-38,35
90,2159,6,-418,-4769,22,-87,-40,34
91,2163,6,-430,-4769,22,-88,-36,34
92,2162,-1,-425,-4769,22,-87,-40,34
93,2157,1,-422,-4752,23,-86,-39,33
94,2158,-2,-423,-4754,23,-86,-41,33
95,2156,3,-420,-4758,23,-86,-40,35
96,2163,1,-433,-4767,22,-88,-38,33
97,2164,3,-423,-4766,22,-85,-38,35
98,2158,3,-431,-4757,23,-87,-41,36
99,2156,4,-431,-4763,22,-87,-41,38
100,2157,6,-435,-4758,23,-87,-37,36
101,2155,-2,-427,-4759,23,-86,-35,37
102,2157,0,-429,-4759,23,-85,-36,35
103,2157,-1,-433,-4760,22,-86,-38,33
104,2160,1,-431,-4757,23,-86,-37,36
105,2163,5,-426,-4752,23,-87,-36,36
106,2157,0,-431,-4764,22,-87,-36,34
107,2167,4,-428,-4759,23,-85,-37,36
108,2162,-3,-427,-4762,22,-86,-38,33
109,2158,3,-413,-4758,23,-90,-38,34
110,2164,1,-421,-4759,23,-89,-37,34
111,2166,-2,-416,-4758,23,-85,-38,33
112,2153,-2,-427,-4762,22,-86,-36,33
113,2156,-5,-419,-4758,23,-86,-38,35
114,2164,1,-418,-4758,23,-87,-37,34
115,2154,2,-420,-4762,22,-87,-38,38
116,2155,-1,-436,-4756,23,-87,-37,36
117,2161,4,-432,-4757,23,-86,-37,33
118,2157,-2,-422,-4758,23,-87,-36,36
119,2152,2,-428,-4761,22,-88,-36,34
120,2159,-5,-421,-4751,23,-87,-40,34
121,2162,-4,-427,-4760,22,-84,-35,35
122,2152,-2,-422,-4749,23,-87,-43,31
123,2162,-5,-416,-4760,22,-88,-42,32
124,2156,-5,-415,-4765,22,-85,-40,29
125,2161,-8,-413,-4758,23,-88,-42,28
126,2161,-5,-413,-4753,23,-86,-45,27
127,2161,-4,-411,-4760,22,-86,-46,29
128,2164,0,-418,-4755,23,-84,-43,31
129,2163,-2,-431,-4759,23,-83,-45,31
130,2166,-2,-420,-4760,22,-84,-47,29
131,2160,5,-431,-4760,22,-85,-46,28
132,2155,5,-437,-4761,22,-84,-46,31
133,2155,2,-439,-4762,22,-83,-46,31
134,2156,1,-432,-4751,23,-86,-44,32
135,2155,-1,-427,-4747,23,-86,-46,28
136,2151,5,-438,-4752,23,-88,-45,33
137,2159,2,-436,-4759,23,-86,-43,28
138,2163,6,-423,-4749,23,-86,-42,31
139,2157,2,-434,-4754,23,-88,-42,32
140,2164,0,-424,-4760,22,-87,-40,31
141,2158,0,-432,-4748,23,-88,-38,31
142,2155,5,-438,-4756,23,-86,-40,35
143,2159,4,-428,-4751,23,-85,-39,36
144,2163,2,-426,-4750,23,-89,-36,32
145,2165,10,-437,-4748,23,-86,-36,34
146,2159,10,-432,-4760,22,-88,-39,36
147,2163,9,-429,-4753,23,-89,-39,32
148,2161,4,-432,-4750,23,-88,-37,35
149,2158,4,-427,-4756,23,-89,-38,36
150,2160,11,-426,-4752,23,-88,-36,38
151,2157,-2,-433,-4750,23,-85,-35,33
152,2157,0,-423,-4749,23,-84,-35,34
153,2161,1,-430,-4746,23,-83,-34,35
154,2157,-2,-427,-4748,23,-86,-36,36
155,2153,-2,-425,-4746,23,-84,-33,36
156,2154,-3,-426,-4748,23,-86,-38,34
157,2157,-5,-427,-4741,23,-88,-37,33
158,2158,-2,-427,-4747,23,-87,-36,35
159,2157,-1,-423,-4744,23,-85,-39,34
160,2155,3,-428,-4738,23,-86,-37,33
161,2162,3,-424,-4741,23,-84,-40,35
162,2158,6,-432,-4745,23,-85,-37,34
163,2162,5,-423,-4745,23,-86,-37,35
164,2161,8,-432,-4748,23,-88,-36,36
165,2153,11,-430,-4750,23,-85,-34,35
166,2159,4,-425,-4757,23,-88,-37,35
167,2165,9,-430,-4748,23,-89,-31,36
168,2158,8,-427,-4743,23,-87,-34,35
169,2161,5,-429,-4754,23,-87,-34,34
170,2161,0,-426,-4748,23,-87,-36,35
171,2163,0,-421,-4748,23,-88,-35,34
172,2162,0,-423,-4747,23,-89,-32,35
173,2159,-3,-432,-4746,23,-88,-35,36
174,2160,-5,-421,-4742,23,-88,-37,37
175,2156,-4,-425,-4745,23,-88,-37,37
176,2161,-6,-428,-4754,23,-88,-38,38
177,2157,-5,-418,-4747,23,-88,-39,36
178,2160,-6,-424,-4748,23,-88,-37,35
179,2153,-5,-422,-4749,23,-88,-41,32
180,2157,2,-424,-4744,23,-85,-40,34
181,2158,6,-418,-4749,23,-83,-40,33
182,2161,4,-430,-4749,23,-87,-41,33
183,2157,3,-424,-4746,23,-85,-39,37
184,2160,1,-418,-4744,23,-88,-39,34
185,2163,8,-420,-4755,23,-86,-44,34
186,2167,9,-423,-4746,23,-87,-42,32
187,2160,7,-426,-4745,23,-86,-40,33
188,2157,3,-422,-4747,23,-88,-42,32
189,2154,-2,-427,-4750,23,-87,-40,32
190,2159,-1,-426,-4745,23,-87,-40,33
191,2158,1,-425,-4745,23,-84,-40,32
192,2158,4,-428,-4747,23,-86,-39,33
193,2159,-1,-434,-4741,23,-86,-40,33
194,2157,2,-423,-4751,23,-87,-39,33
195,2158,6,-436,-4743,23,-87,-39,32
196,2156,9,-439,-4741,23,-89,-41,36
197,2159,8,-433,-4752,23,-85,-37,36
198,2160,8,-439,-4740,23,-86,-33,37
199,2161,5,-436,-4737,23,-87,-36,36
200,2162,6,-424,-4741,23,-86,-36,39
201,2151,6,-417,-4743,23,-88,-31,38
202,2155,7,-430,-4736,23,-89,-33,35
203,2161,0,-427,-4744,23,-85,-36,37
204,2161,0,-425,-4746,23,-87,-33,35
205,2161,3,-423,-4737,23,-89,-33,36
206,2157,1,-425,-4740,23,-88,-35,39
207,2164,-4,-420,-4739,23,-89,-33,38
208,2158,-1,-423,-4742,23,-88,-34,36
209,2162,3,-421,-4736,23,-87,-37,35
210,2160,-2,-409,-4743,23,-88,-36,35
211,2156,0,-418,-4736,23,-88,-38,35
212,2163,-5,-429,-4744,23,-88,-37,34
213,2161,-4,-420,-4741,23,-88,-41,31
214,2161,-5,-420,-4745,23,-86,-38,34
215,2163,1,-425,-4741,23,-88,-41,35
216,2166,-1,-425,-4741,23,-85,-42,33
217,2159,1,-429,-4747,23,-85,-38,33
218,2159,2,-425,-4743,23,-85,-40,33
219,2166,4,-431,-4746,23,-85,-39,35
220,2157,1,-427,-4747,23,-87,-37,33
221,2164,0,-426,-4735,23,-87,-35,33
222,2160,5,-426,-4745,23,-88,-38,35
223,2154,1,-422,-4744,23,-86,-39,33
224,2159,-4,-430,-4738,23,-88,-40,32
225,2159,-4,-423,-4737,23,-87,-39,32
226,2155,-1,-424,-4733,23,-85,-42,33
227,2159,-1,-430,-4738,23,-89,-40,33
228,2161,-1,-426,-4739,23,-89,-39,34
229,2165,-1,-420,-4738,23,-86,-37,33
230,2160,4,-432,-4728,23,-87,-38,35
231,2157,2,-432,-4735,23,-86,-37,37
232,2156,4,-430,-4734,23,-88,-36,36
233,2155,7,-424,-4742,23,-85,-35,35
234,2152,7,-428,-4735,23,-86,-38,33
235,2162,4,-428,-4735,23,-86,-41,33
236,2154,4,-430,-4736,23,-87,-39,35
237,2160,2,-423,-4737,23,-86,-39,34
238,2161,2,-427,-4738,23,-85,-38,34
239,2158,-2,-419,-4748,23,-87,-36,35
240,2162,-5,-429,-4744,23,-87,-39,33
241,2160,0,-428,-4739,23,-90,-36,35
242,2163,-1,-422,-4738,23,-87,-36,34
243,2159,1,-428,-4740,23,-87,-38,35
244,2158,1,-425,-4740,23,-87,-39,37
245,2157,4,-418,-4735,23,-86,-36,33
246,2158,4,-420,-4745,23,-88,-36,34
247,2161,5,-421,-4743,23,-88,-38,35
248,2157,3,-424,-4729,23,-89,-41,34
249,2165,6,-424,-4743,23,-86,-38,35
250,2156,5,-421,-4740,23,-85,-38,35
251,2162,4,-431,-4733,23,-86,-37,37
252,2160,5,-424,-4734,23,-85,-35,33
253,2158,5,-431,-4731,23,-86,-34,35
254,2159,-6,-416,-4740,23,-85,-34,39
255,2163,3,-428,-4738,23,-89,-35,35
256,2154,4,-428,-4735,23,-86,-37,36
257,2154,1,-430,-4736,23,-86,-35,35
258,2151,0,-423,-4735,23,-86,-39,34
259,2159,5,-426,-4732,23,-87,-37,35
260,2161,-2,-418,-4735,23,-86,-39,34
261,2162,1,-424,-4743,23,-88,-36,35
262,2164,1,-424,-4741,23,-88,-37,33
263,2162,0,-424,-4736,23,-87,-40,33
264,2167,-5,-419,-4736,23,-87,-39,36
265,2164,2,-428,-4737,23,-86,-38,32
266,2159,3,-424,-4735,23,-86,-38,37
267,2155,-1,-425,-4731,23,-85,-38,35
268,2158,6,-423,-4733,23,-87,-39,35
269,2155,5,-431,-4735,23,-87,-38,34
270,2160,4,-424,-4734,23,-90,-38,35
271,2165,3,-427,-4736,23,-89,-41,34
272,2159,9,-423,-4734,23,-86,-41,35
273,2156,-3,-418,-4734,23,-86,-41,33
274,2159,6,-427,-4738,23,-86,-39,34
275,2157,7,-434,-4734,23,-87,-39,32
276,2157,7,-430,-4731,23,-86,-38,34
277,2158,0,-431,-4734,23,-88,-37,35
278,2152,4,-424,-4731,23,-88,-37,36
279,2151,5,-427,-4735,23,-85,-38,34
280,2157,-1,-430,-4729,23,-83,-37,36
281,2156,3,-427,-4730,23,-84,-39,32
282,2157,0,-421,-4728,23,-89,-39,33
283,2159,-2,-423,-4730,23,-88,-40,34
284,2160,4,-423,-4735,23,-85,-39,33
285,2157,4,-424,-4730,23,-87,-38,35
286,2156,-2,-430,-4727,23,-87,-40,33
287,2158,3,-423,-4731,23,-85,-39,35
288,2159,2,-431,-4735,23,-87,-35,36
289,2158,3,-426,-4737,23,-88,-33,36
290,2156,3,-426,-4732,23,-88,-36,37
291,2157,1,-423,-4733,23,-87,-36,34
292,2157,3,-420,-4735,23,-89,-38,35
293,2158,4,-430,-4731,23,-86,-39,36
294,2155,2,-423,-4729,23,-89,-38,31
295,2162,1,-426,-4732,23,-85,-39,36
296,2164,3,-422,-4730,23,-86,-36,36
297,2159,7,-425,-4731,23,-86,-37,35
298,2155,6,-429,-4726,23,-87,-36,35
299,2153,4,-430,-4730,23,-87,-37,35
300,2154,2,-423,-4733,23,-87,-38,38
301,2164,-5,-428,-4734,23,-89,-37,35
302,2156,2,-418,-4726,23,-84,-37,35
303,2155,5,-428,-4726,23,-87,-37,35
304,2154,3,-419,-4724,23,-85,-40,35
305,2159,7,-423,-4732,23,-87,-39,34
306,2159,2,-433,-4735,23,-87,-37,34
307,2156,-3,-423,-4727,23,-87,-38,35
308,2158,3,-430,-4730,23,-86,-37,34
309,2161,2,-428,-4735,23,-89,-38,32
310,2160,3,-421,-4735,23,-87,-38,37
311,2151,0,-421,-4729,23,-89,-39,35
312,2155,0,-424,-4727,23,-88,-37,35
313,2160,0,-422,-4732,23,-85,-40,37
314,2158,6,-418,-4732,23,-86,-37,33
315,2157,3,-423,-4735,23,-83,-39,33
316,2164,1,-423,-4736,23,-86,-39,35
317,2159,7,-428,-4737,23,-87,-40,31
318,2161,6,-428,-4731,23,-87,-40,32
319,2157,4,-432,-4730,23,-87,-38,31
320,2162,4,-428,-4735,23,-87,-41,32
321,2164,7,-432,-4722,23,-88,-40,34
322,2156,7,-432,-4737,23,-88,-35,33
323,2160,4,-421,-4729,23,-89,-38,33
324,2159,-3,-427,-4731,23,-88,-36,35
325,2155,-4,-419,-4731,23,-89,-37,34
326,2159,3,-431,-4729,23,-85,-38,34
327,2157,-3,-430,-4723,23,-87,-34,37
328,2162,0,-429,-4720,23,-88,-35,35
329,2156,3,-425,-4721,23,-86,-39,36
330,2161,2,-427,-4729,23,-85,-33,34
331,2160,2,-429,-4727,23,-85,-37,38
332,2165,0,-418,-4720,23,-88,-33,33
333,2160,2,-425,-4724,23,-87,-39,37
334,2164,3,-418,-4725,23,-86,-36,34
335,2157,6,-429,-4724,23,-84,-39,35
336,2151,2,-421,-4727,23,-87,-37,35
337,2157,4,-424,-4720,23,-87,-40,32
338,2158,9,-423,-4723,23,-85,-39,34
339,2156,1,-429,-4728,23,-85,-36,36
340,2163,2,-423,-4733,23,-89,-38,36
341,2161,-1,-432,-4734,23,-89,-39,36
342,2159,-4,-423,-4731,23,-85,-36,36
343,2157,-3,-421,-4731,23,-87,-37,35
344,2161,-2,-421,-4731,23,-86,-38,35
345,2150,-3,-432,-4723,23,-88,-40,34
346,2160,-1,-423,-4722,23,-86,-40,32
347,2160,-8,-426,-4729,23,-88,-37,34
348,2159,-7,-432,-4732,23,-84,-37,34
349,2159,-1,-434,-4727,23,-85,-39,31
350,2164,1,-427,-4728,23,-86,-41,32
351,2160,0,-432,-4729,23,-87,-39,35
352,2165,5,-432,-4729,23,-89,-34,37
353,2160,3,-423,-4728,23,-88,-38,35
354,2161,6,-428,-4725,23,-88,-39,35
355,2160,-1,-430,-4731,23,-86,-38,37
356,2159,-2,-420,-4727,23,-87,-36,36
357,2158,-4,-426,-4721,23,-86,-39,33
358,2157,1,-426,-4722,23,-85,-39,35
359,2155,-3,-426,-4723,23,-83,-38,33
360,2162,-4,-422,-4726,23,-86,-41,34
361,2158,-3,-427,-4725,23,-87,-40,32
362,2156,2,-422,-4727,23,-86,-40,32
363,2158,2,-430,-4722,23,-87,-39,34
364,2157,6,-427,-4725,23,-85,-40,33
365,2160,3,-425,-4726,23,-88,-38,32
366,2161,1,-432,-4727,23,-87,-36,34
367,2161,2,-428,-4725,23,-86,-36,34
368,2159,5,-434,-4725,23,-87,-37,34
369,2161,-1,-435,-4722,23,-86,-37,33
370,2153,2,-435,-4726,23,-85,-37,36
371,2160,3,-426,-4729,23,-85,-38,32
372,2157,3,-420,-4728,23,-89,-37,34
373,2159,3,-426,-4727,23,-88,-39,36
374,2159,3,-427,-4722,23,-86,-37,34
375,2156,5,-419,-4726,23,-88,-37,36
376,2155,4,-430,-4720,23,-87,-37,36
377,2160,2,-422,-4720,23,-84,-35,34
378,2160,2,-431,-4727,23,-84,-38,36
379,2156,-2,-424,-4726,23,-86,-38,34
380,2160,0,-426,-4716,23,-86,-39,36
381,2156,1,-427,-4725,23,-87,-36,33
382,2155,5,-425,-4720,23,-86,-34,37
383,2155,-3,-429,-4727,23,-87,-36,34
384,2163,1,-429,-4727,23,-87,-40,33
385,2159,1,-423,-4729,23,-86,-41,33
386,2164,5,-419,-4720,23,-87,-38,34
387,2162,-2,-428,-4721,23,-86,-36,35
388,2160,4,-427,-4724,23,-85,-37,34
389,2159,1,-426,-4727,23,-84,-40,34
390,2163,-2,-425,-4720,23,-85,-36,33
391,2157,1,-425,-4729,23,-88,-38,35
392,2161,5,-426,-4732,23,-87,-40,35
393,2161,2,-422,-4721,23,-89,-38,34
394,2156,1,-420,-4722,23,-88,-36,34
395,2156,5,-425,-4721,23,-84,-36,35
396,2159,1,-426,-4726,23,-85,-37,33
397,2161,5,-428,-4725,23,-88,-40,35
398,2158,6,-426,-4731,23,-86,-38,34
399,2155,2,-429,-4721,23,-88,-37,35
400,2158,6,-420,-4723,23,-87,-38,34
401,2159,9,-425,-4722,23,-87,-35,33
402,2153,-1,-432,-4715,23,-87,-37,34
403,2165,0,-425,-4719,23,-88,-38,38
404,2161,-2,-421,-4724,23,-86,-36,37
405,2161,-1,-424,-4720,23,-86,-38,37
406,2160,0,-425,-4724,23,-87,-40,35
407,2156,0,-425,-4728,23,-90,-39,35
408,2161,-4,-435,-4727,23,-85,-37,34
409,2160,0,-426,-4728,23,-86,-37,33
410,2159,7,-435,-4717,23,-87,-37,32
411,2163,1,-419,-4718,23,-88,-37,33
412,2161,-2,-418,-4720,23,-86,-35,32
413,2161,-3,-434,-4726,23,-88,-36,35
414,2160,1,-423,-4727,23,-85,-38,35
415,2156,-3,-426,-4717,23,-88,-39,34
416,2162,1,-431,-4719,23,-88,-38,32
417,2160,-1,-429,-4723,23,-89,-38,35
418,2159,7,-435,-4728,23,-86,-38,33
419,2161,4,-421,-4723,23,-87,-37,34
420,2163,-1,-425,-4723,23,-85,-36,35
421,2159,1,-426,-4724,23,-86,-35,35
422,2163,9,-425,-4725,23,-86,-35,32
423,2158,2,-419,-4721,23,-85,-36,35
424,2160,5,-425,-4718,23,-88,-35,34
425,2155,-5,-426,-4722,23,-88,-38,35
426,2155,0,-421,-4727,23,-85,-37,35
427,2158,1,-426,-4721,23,-86,-38,34
428,2159,2,-425,-4722,23,-83,-38,34
429,2158,0,-421,-4733,23,-84,-38,34
430,2152,-3,-426,-4725,23,-86,-38,33
431,2160,1,-428,-4722,23,-85,-39,33
432,2161,1,-420,-4722,23,-85,-40,32
433,2162,2,-423,-4728,23,-89,-37,36
434,2160,-2,-437,-4725,23,-87,-38,33
435,2156,0,-428,-4719,23,-85,-38,35
436,2163,-2,-428,-4718,23,-86,-38,35
437,2161,9,-417,-4728,23,-90,-33,33
438,2156,5,-431,-4717,23,-88,-39,35
439,2158,7,-417,-4721,23,-87,-37,33
440,2157,1,-418,-4723,23,-83,-39,35
441,2157,4,-425,-4718,23,-88,-38,34
442,2154,5,-433,-4721,23,-84,-37,35
443,2150,1,-420,-4713,23,-88,-36,34
444,2164,3,-425,-4718,23,-87,-39,35
445,2158,2,-421,-4718,23,-87,-37,34
446,2158,3,-426,-4716,23,-86,-38,36
447,2161,5,-426,-4720,23,-87,-39,36
448,2162,-1,-431,-4729,23,-85,-35,37
449,2164,2,-423,-4726,23,-88,-39,35
450,2161,2,-428,-4720,23,-86,-36,35
451,2154,4,-434,-4719,23,-86,-39,34
452,2164,3,-421,-4724,23,-87,-36,34
453,2161,6,-425,-4727,23,-89,-35,36
454,2162,-1,-418,-4721,23,-86,-37,37
455,2157,0,-429,-4715,23,-87,-37,34
456,2160,-3,-422,-4716,23,-86,-38,34
457,2157,-5,-423,-4717,23,-86,-34,34
458,2156,1,-418,-4717,23,-89,-37,34
459,2157,-2,-421,-4723,23,-88,-39,36
460,2164,4,-419,-4722,23,-88,-39,35
461,2163,-1,-424,-4720,23,-87,-39,36
462,2156,-1,-422,-4720,23,-85,-36,34
463,2157,3,-427,-4720,23,-86,-38,32
464,2158,-1,-424,-4717,23,-86,-38,35
465,2159,-6,-435,-4717,23,-87,-40,34
466,2162,7,-422,-4711,23,-86,-36,35
467,2159,6,-417,-4714,23,-87,-37,33
468,2165,0,-421,-4723,23,-86,-40,33
469,2158,6,-429,-4711,23,-84,-36,34
470,2158,-2,-425,-4717,23,-86,-37,36
471,2160,2,-426,-4724,23,-87,-40,35
472,2161,7,-427,-4714,23,-85,-38,34
473,2162,2,-425,-4725,23,-86,-36,35
474,2155,-2,-420,-4722,23,-88,-37,36
475,2157,6,-421,-4720,23,-87,-38,35
476,2160,5,-425,-4720,23,-88,-38,35
477,2161,1,-419,-4720,23,-89,-41,33
478,2162,0,-416,-4720,23,-88,-39,34
479,2160,5,-422,-4716,23,-88,-37,34
480,2161,2,-425,-4717,23,-88,-41,36
481,2156,-3,-430,-4713,23,-88,-37,35
482,2162,4,-433,-4715,23,-86,-38,34
483,2163,0,-436,-4717,23,-86,-38,36
484,2161,3,-431,-4717,23,-85,-38,33
485,2159,-1,-427,-4716,23,-87,-37,34
486,2160,2,-426,-4726,23,-85,-39,35
487,2159,-1,-429,-4720,23,-89,-38,35
488,2157,8,-428,-4722,23,-88,-39,34
489,2158,2,-419,-4717,23,-85,-40,36
490,2161,-4,-427,-4709,23,-84,-40,36
491,2159,4,-428,-4710,23,-85,-37,35
492,2157,1,-434,-4714,23,-86,-39,37
493,2162,3,-428,-4713,23,-88,-38,34
494,2156,3,-420,-4711,23,-87,-42,33
495,2158,1,-427,-4716,23,-88,-37,35
496,2162,3,-429,-4714,23,-84,-39,33
497,2154,3,-429,-4714,23,-88,-38,33
498,2156,3,-422,-4719,23,-85,-39,34
499,2157,6,-422,-4718,23,-86,-37,34
500,2162,6,-435,-4716,23,-84,-39,34
501,2161,7,-424,-4716,23,-86,-38,34
502,2161,5,-425,-4714,23,-86,-41,35
503,2163,-1,-425,-4725,23,-85,-40,35
504,2161,1,-422,-4714,23,-88,-37,36
505,2159,5,-428,-4717,23,-87,-39,37
506,2159,-2,-431,-4714,23,-88,-38,36
507,2156,1,-424,-4708,23,-89,-41,34
508,2163,0,-425,-4713,23,-89,-38,37
509,2157,1,-418,-4718,23,-90,-39,36
510,2160,-1,-426,-4715,23,-87,-38,34
511,2155,-2,-421,-4711,23,-86,-37,34
512,2160,1,-422,-4706,23,-86,-37,35
513,2154,1,-420,-4710,23,-86,-38,35
514,2157,2,-422,-4705,23,-86,-39,35
515,2157,6,-419,-4705,23,-89,-36,36
516,2164,2,-414,-4713,23,-89,-36,37
517,2158,4,-419,-4707,23,-85,-40,37
518,2155,2,-424,-4717,23,-87,-37,37
519,2156,-1,-421,-4706,23,-87,-38,37
520,2161,-4,-429,-4710,23,-85,-41,34
521,2165,6,-429,-4713,23,-84,-40,34
522,2158,6,-423,-4709,23,-86,-38,35
523,2160,4,-425,-4711,23,-87,-42,34
524,2161,-1,-431,-4717,23,-87,-38,34
525,2158,-1,-425,-4718,23,-86,-38,33
526,2161,2,-428,-4712,23,-86,-38,32
527,2160,1,-432,-4710,23,-85,-38,37
528,2155,1,-425,-4718,23,-87,-38,33
529,2161,2,-430,-4718,23,-86,-39,34
530,2159,-1,-438,-4715,23,-87,-37,35
531,2163,-2,-418,-4717,23,-87,-38,34
532,2161,3,-424,-4719,23,-86,-38,36
533,2162,9,-426,-4712,23,-86,-38,34
534,2161,2,-421,-4710,23,-84,-38,35
535,2161,1,-428,-4708,23,-85,-39,37
536,2163,4,-428,-4706,23,-86,-37,35
537,2162,7,-420,-4712,23,-87,-39,35
538,2159,5,-426,-4711,23,-88,-39,35
539,2162,2,-421,-4717,23,-85,-39,34
540,2156,2,-428,-4715,23,-85,-38,35
541,2159,7,-428,-4717,23,-89,-38,35
542,2163,-1,-426,-4715,23,-87,-38,35
543,2156,-3,-423,-4706,23,-88,-38,35
544,2158,1,-419,-4708,23,-88,-38,33
545,2158,3,-418,-4715,23,-86,-39,35
546,2164,2,-422,-4715,23,-87,-36,32
547,2156,3,-426,-4711,23,-87,-38,34
548,2161,6,-426,-4716,23,-89,-36,37
549,2155,12,-427,-4718,23,-87,-38,36
550,2159,7,-424,-4706,23,-86,-37,35
551,2159,4,-426,-4708,23,-88,-36,36
552,2157,4,-432,-4716,23,-85,-37,35
553,2154,2,-432,-4712,23,-87,-38,36
554,2158,7,-433,-4707,23,-85,-38,36
555,2155,2,-421,-4709,23,-87,-39,34
556,2158,3,-420,-4708,23,-85,-37,35
557,2161,-1,-422,-4711,23,-87,-34,33
558,2158,-2,-422,-4715,23,-88,-38,33
559,2157,-1,-423,-4709,23,-85,-39,35
560,2161,-2,-427,-4709,23,-86,-37,34
561,2162,-2,-427,-4717,23,-87,-37,36
562,2161,-5,-430,-4717,23,-88,-38,35
563,2160,1,-423,-4715,23,-88,-41,34
564,2160,2,-431,-4708,23,-88,-37,36
565,2157,1,-438,-4711,23,-85,-37,35
566,2158,3,-422,-4711,23,-84,-39,35
567,2160,11,-419,-4714,23,-88,-40,37
568,2157,5,-426,-4716,23,-86,-40,36
569,2157,2,-425,-4712,23,-85,-38,33
570,2158,4,-419,-4712,23,-86,-38,34
571,2155,3,-434,-4718,23,-86,-38,36
572,2153,2,-426,-4713,23,-87,-39,34
573,2156,1,-428,-4714,23,-86,-37,34
574,2160,-2,-421,-4708,23,-86,-36,36
575,2158,-2,-429,-4716,23,-89,-39,34
576,2160,-3,-429,-4710,23,-87,-42,34
577,2153,0,-431,-4708,23,-88,-39,35
578,2157,-5,-422,-4709,23,-88,-38,34
579,2159,6,-430,-4708,23,-85,-39,34
580,2164,4,-426,-4715,23,-85,-38,34
581,2160,5,-431,-4716,23,-85,-39,35
582,2152,0,-419,-4709,23,-88,-34,34
583,2153,9,-427,-4710,23,-89,-37,36
584,2154,-1,-424,-4714,23,-89,-39,34
585,2160,3,-419,-4709,23,-90,-36,34
586,2164,4,-418,-4706,23,-87,-38,36
587,2163,4,-423,-4711,23,-88,-37,35
588,2161,4,-417,-4710,23,-85,-36,36
589,2154,3,-418,-4711,23,-90,-38,35
590,2158,2,-423,-4706,23,-87,-38,33
591,2158,2,-421,-4709,23,-86,-34,35
592,2160,-4,-430,-4708,23,-88,-38,35
593,2156,0,-418,-4706,23,-87,-38,34
594,2158,2,-419,-4709,23,-87,-38,34
595,2160,-3,-424,-4711,23,-85,-36,35
596,2158,7,-412,-4714,23,-84,-39,36
597,2154,5,-422,-4709,23,-88,-37,34
598,2157,2,-428,-4711,23,-86,-38,34
599,2162,6,-426,-4705,23,-86,-39,34
600,2164,9,-433,-4710,23,-86,-38,34
601,2161,4,-427,-4714,23,-86,-38,35
602,2157,10,-430,-4710,23,-83,-38,37
603,2156,1,-420,-4707,23,-87,-38,36
604,2150,0,-423,-4709,23,-88,-38,38
605,2156,2,-430,-4702,23,-87,-38,34
606,2153,-3,-423,-4709,23,-86,-36,35
607,2156,-3,-421,-4709,23,-85,-41,37
608,2161,-1,-427,-4712,23,-85,-38,34
609,2164,-2,-427,-4712,23,-87,-38,35
610,2159,0,-426,-4711,23,-87,-38,33
611,2154,2,-423,-4713,23,-88,-35,33
612,2162,7,-416,-4713,23,-85,-38,36
613,2158,4,-423,-4710,23,-88,-38,33
614,2155,3,-423,-4713,23,-87,-35,33
615,2158,6,-428,-4705,23,-90,-40,35
616,2155,7,-427,-4704,23,-90,-37,32
617,2158,9,-430,-4706,23,-88,-41,37
618,2158,-2,-428,-4716,23,-86,-40,33
619,2163,7,-432,-4709,23,-87,-41,35
620,2157,2,-432,-4706,23,-88,-38,34
621,2158,-2,-430,-4705,23,-87,-40,34
622,2158,1,-425,-4701,23,-89,-37,34
623,2161,0,-424,-4708,23,-87,-38,36
624,2158,3,-421,-4703,23,-86,-36,35
625,2163,0,-425,-4701,23,-88,-36,34
626,2160,1,-429,-4708,23,-87,-36,32
627,2157,-1,-428,-4701,23,-87,-38,34
628,2165,3,-429,-4714,23,-88,-39,36
629,2159,3,-428,-4718,23,-84,-40,35
630,2161,2,-427,-4704,23,-88,-41,36
631,2166,4,-426,-4698,23,-89,-38,35
632,2159,0,-438,-4705,23,-88,-37,36
633,2157,0,-426,-4709,23,-87,-38,33
634,2159,1,-424,-4709,23,-88,-35,35
635,2157,3,-433,-4707,23,-87,-39,35
636,2157,5,-432,-4709,23,-83,-37,35
637,2167,-1,-432,-4719,23,-86,-35,35
638,2163,5,-430,-4707,23,-87,-37,34
639,2162,-1,-431,-4705,23,-84,-38,36
640,2158,-1,-428,-4703,23,-83,-38,38
641,2156,3,-422,-4709,23,-87,-36,34
642,2154,1,-431,-4710,23,-85,-37,35
643,2159,-3,-425,-4710,23,-87,-37,35
644,2157,-4,-428,-4710,23,-85,-37,32
645,2160,-3,-432,-4701,23,-87,-36,32
646,2162,5,-429,-4696,23,-87,-38,33
647,2157,-1,-422,-4702,23,-86,-36,35
648,2159,4,-423,-4709,23,-88,-39,35
649,2155,1,-428,-4702,23,-87,-36,36
650,2157,3,-425,-4700,23,-86,-39,36
651,2155,3,-425,-4713,23,-87,-38,34
652,2155,6,-423,-4699,23,-88,-36,34
653,2157,2,-423,-4707,23,-86,-40,34
654,2156,-1,-415,-4706,23,-84,-40,34
655,2161,-1,-420,-4709,23,-88,-41,36
656,2159,-1,-426,-4704,23,-88,-37,36
657,2158,0,-429,-4713,23,-87,-38,37
658,2158,1,-423,-4706,23,-88,-39,35
659,2159,0,-420,-4704,23,-87,-35,33
660,2159,0,-427,-4703,23,-85,-38,33
661,2157,-5,-431,-4710,23,-85,-43,34
662,2164,-4,-421,-4705,23,-87,-38,36
663,2160,2,-426,-4705,23,-87,-39,33
664,2156,-1,-436,-4701,23,-87,-39,33
665,2162,0,-435,-4704,23,-85,-38,34
666,2162,8,-437,-4710,23,-84,-39,34
667,2158,3,-434,-4715,23,-87,-40,35
668,2162,6,-427,-4711,23,-88,-37,33
669,2160,6,-425,-4709,23,-85,-37,36
670,2159,1,-430,-4713,23,-86,-36,35
671,2155,0,-431,-4706,23,-86,-36,36
672,2158,0,-425,-4698,23,-87,-38,34
673,2166,-3,-417,-4711,23,-88,-38,33
674,2155,8,-426,-4708,23,-86,-39,34
675,2160,4,-421,-4705,23,-85,-34,34
676,2155,1,-427,-4716,23,-87,-37,34
677,2164,-3,-423,-4717,23,-88,-39,33
678,2163,-1,-431,-4707,23,-86,-41,32
679,2160,1,-435,-4710,23,-89,-37,35
680,2159,-2,-433,-4706,23,-88,-39,36
681,2157,-1,-429,-4707,23,-87,-39,33
682,2160,9,-424,-4698,23,-85,-36,33
683,2158,2,-423,-4704,23,-86,-38,33
684,2163,-7,-423,-4712,23,-86,-35,35
685,2163,3,-430,-4701,23,-86,-36,35
686,2157,3,-425,-4710,23,-87,-34,34
687,2161,1,-422,-4706,23,-87,-38,33
688,2160,1,-417,-4709,23,-85,-36,34
689,2154,-2,-428,-4702,23,-85,-39,34
690,2155,4,-426,-4706,23,-87,-38,34
691,2155,-1,-429,-4703,23,-85,-37,34
692,2163,-4,-424,-4704,23,-88,-36,37
693,2157,-1,-435,-4706,23,-88,-38,37
694,2162,-3,-421,-4710,23,-88,-38,35
695,2154,-3,-418,-4704,23,-86,-33,36
696,2153,7,-427,-4706,23,-89,-37,34
697,2161,-1,-424,-4703,23,-88,-40,33
698,2162,6,-429,-4709,23,-88,-37,35
699,2159,10,-433,-4707,23,-85,-38,33
700,2159,1,-426,-4711,23,-87,-38,31
701,2158,2,-428,-4700,23,-88,-37,31
702,2158,3,-416,-4703,23,-88,-39,32
703,2157,4,-430,-4715,23,-86,-37,31
704,2162,-4,-434,-4701,23,-88,-37,35
705,2161,-2,-432,-4707,23,-86,-38,33
706,2156,-8,-429,-4706,23,-84,-38,36
707,2161,-9,-427,-4698,23,-86,-37,35
708,2158,-9,-421,-4710,23,-85,-36,36
709,2159,-2,-420,-4705,23,-87,-38,34
710,2159,1,-423,-4698,23,-87,-39,35
711,2157,3,-423,-4701,23,-86,-39,35
712,2162,2,-429,-4704,23,-86,-39,34
713,2164,4,-422,-4708,23,-86,-39,34
714,2156,1,-419,-4704,23,-87,-39,34
715,2160,3,-413,-4699,23,-87,-38,36
716,2161,6,-422,-4704,23,-89,-39,35
717,2158,2,-426,-4707,23,-87,-36,35
718,2159,1,-427,-4705,23,-87,-36,35
719,2163,2,-423,-4710,23,-86,-38,36
720,2154,4,-425,-4713,23,-87,-38,34
721,2155,4,-429,-4698,23,-88,-35,36
722,2160,7,-428,-4694,23,-86,-37,32
723,2160,3,-432,-4700,23,-86,-37,32
724,2159,-3,-428,-4703,23,-86,-37,34
725,2154,-4,-435,-4710,23,-87,-38,36
726,2162,-3,-423,-4717,23,-86,-37,33
727,2158,-2,-426,-4705,23,-87,-38,35
728,2161,-5,-426,-4701,23,-87,-36,35
729,2164,2,-423,-4703,23,-87,-36,34
730,2160,5,-428,-4707,23,-87,-36,36
731,2156,6,-424,-4711,23,-86,-39,34
732,2157,6,-422,-4708,23,-86,-40,33
733,2161,2,-424,-4699,23,-85,-40,33
734,2156,1,-432,-4701,23,-85,-37,35
735,2160,-3,-422,-4702,23,-87,-39,34
736,2149,7,-429,-4707,23,-85,-41,36
737,2160,0,-422,-4700,23,-83,-38,36
738,2162,0,-417,-4709,23,-86,-38,33
739,2161,0,-432,-4698,23,-86,-40,33
740,2158,-3,-431,-4705,23,-88,-39,35
741,2160,2,-423,-4694,23,-86,-39,35
742,2153,1,-430,-4707,23,-88,-39,36
743,2162,3,-429,-4703,23,-88,-39,35
744,2160,7,-433,-4711,23,-86,-39,33
745,2160,5,-425,-4708,23,-85,-38,34
746,2159,2,-431,-4702,23,-88,-41,34
747,2156,3,-422,-4703,23,-86,-38,33
748,2155,7,-421,-4710,23,-85,-39,33
749,2162,3,-427,-4705,23,-86,-39,33
750,2164,1,-432,-4706,23,-87,-34,33
751,2163,0,-429,-4708,23,-87,-35,36
752,2158,0,-432,-4708,23,-86,-37,37
753,2154,4,-424,-4700,23,-86,-35,35
754,2155,-2,-425,-4700,23,-85,-36,36
755,2156,2,-424,-4700,23,-88,-38,34
756,2160,-1,-416,-4701,23,-85,-40,36
757,2158,1,-422,-4695,23,-86,-39,36
758,2159,-4,-418,-4707,23,-87,-39,33
759,2162,2,-431,-4697,23,-86,-38,33
760,2163,3,-432,-4701,23,-87,-38,34
761,2158,-2,-431,-4700,23,-86,-35,35
762,2157,0,-430,-4705,23,-86,-37,34
763,2157,6,-427,-4696,23,-87,-35,35
764,2162,1,-427,-4697,23,-87,-37,34
765,2161,1,-426,-4696,23,-87,-40,36
766,2160,4,-431,-4700,23,-89,-37,34
767,2156,4,-426,-4695,23,-86,-34,36
768,2156,6,-426,-4703,23,-87,-36,35
769,2166,4,-424,-4702,23,-86,-39,35
770,2159,6,-426,-4700,23,-85,-38,33
771,2159,4,-424,-4700,23,-84,-39,35
772,2158,6,-415,-4698,23,-91,-38,34
773,2157,3,-424,-4701,23,-87,-36,34
774,2160,1,-424,-4701,23,-87,-38,35
775,2160,3,-419,-4704,23,-86,-36,33
776,2164,6,-426,-4694,23,-86,-38,34
777,2160,-1,-422,-4709,23,-86,-40,34
778,2162,4,-421,-4698,23,-87,-38,34
779,2166,2,-424,-4702,23,-86,-41,32
780,2159,2,-426,-4699,23,-86,-39,32
781,2161,1,-427,-4698,23,-88,-40,34
782,2154,6,-421,-4705,23,-89,-37,33
783,2157,5,-422,-4703,23,-86,-41,34
784,2157,3,-428,-4706,23,-86,-38,34
785,2162,-3,-435,-4702,23,-89,-38,36
786,2153,7,-435,-4695,23,-86,-37,35
787,2160,5,-422,-4705,23,-86,-33,34
788,2163,2,-424,-4703,23,-89,-36,35
789,2155,-2,-420,-4704,23,-85,-38,34
790,2159,-1,-424,-4705,23,-88,-36,34
791,2158,0,-422,-4702,23,-87,-38,33
792,2156,-2,-422,-4697,23,-86,-37,33
793,2163,-2,-417,-4702,23,-89,-39,32
794,2162,-6,-429,-4704,23,-89,-41,33
795,2158,-3,-427,-4710,23,-88,-39,32
796,2163,3,-426,-4705,23,-86,-36,36
797,2160,-3,-424,-4697,23,-86,-39,35
798,2157,6,-427,-4702,23,-88,-37,36
799,2164,3,-419,-4693,23,-90,-38,33
800,2155,4,-430,-4704,23,-91,-38,36
801,2157,8,-426,-4708,23,-91,-38,35
802,2158,4,-427,-4697,23,-87,-38,34
803,2157,4,-428,-4695,23,-87,-36,34
804,2163,-1,-425,-4706,23,-88,-36,35
805,2159,1,-426,-4694,23,-88,-38,37
806,2155,0,-425,-4700,23,-86,-37,31
807,2159,5,-420,-4699,23,-86,-40,34
808,2157,-2,-420,-4704,23,-88,-39,36
809,2167,-1,-427,-4698,23,-89,-40,34
810,2160,4,-415,-4695,23,-88,-36,35
811,2159,0,-420,-4687,23,-88,-39,34
812,2157,1,-422,-4694,23,-88,-40,35
813,2159,-1,-425,-4698,23,-89,-38,33
814,2162,1,-427,-4697,23,-85,-38,32
815,2160,-1,-418,-4698,23,-87,-39,33
816,2161,-6,-429,-4699,23,-85,-38,34
817,2163,0,-429,-4697,23,-87,-38,33
818,2164,0,-429,-4697,23,-86,-41,37
819,2160,-1,-417,-4701,23,-85,-43,36
820,2161,4,-428,-4697,23,-86,-40,34
821,2163,7,-426,-4699,23,-89,-36,34
822,2161,3,-421,-4699,23,-90,-36,34
823,2163,4,-434,-4697,23,-87,-37,33
824,2159,-1,-421,-4699,23,-87,-38,33
825,2163,-4,-419,-4700,23,-87,-37,35
826,2158,-3,-423,-4700,23,-87,-39,33
827,2160,3,-423,-4706,23,-86,-37,34
828,2161,1,-425,-4701,23,-87,-39,35
829,2162,9,-423,-4703,23,-87,-36,36
830,2161,10,-429,-4699,23,-87,-36,34
831,2164,1,-429,-4689,23,-85,-37,36
832,2167,7,-427,-4706,23,-87,-38,35
833,2158,4,-426,-4694,23,-86,-38,34
834,2159,3,-423,-4694,23,-86,-38,35
835,2161,7,-431,-4706,23,-85,-38,36
836,2160,5,-428,-4692,23,-88,-38,36
837,2162,0,-431,-4689,23,-87,-41,36
838,2159,1,-426,-4691,23,-88,-40,36
839,2157,-1,-430,-4694,23,-87,-36,34
840,2157,-4,-428,-4698,23,-89,-38,36
841,2161,-2,-424,-4692,23,-85,-39,34
842,2160,0,-424,-4695,23,-87,-37,33
843,2156,0,-434,-4694,23,-88,-38,37
844,2157,-1,-420,-4695,23,-90,-39,35
845,2158,2,-418,-4700,23,-87,-41,36
846,2155,-1,-419,-4694,23,-86,-38,36
847,2157,0,-424,-4700,23,-85,-37,33
848,2161,1,-426,-4694,23,-85,-38,35
849,2162,-1,-416,-4698,23,-86,-36,35
850,2158,6,-425,-4697,23,-87,-39,37
851,2161,-1,-420,-4701,23,-87,-39,35
852,2153,2,-427,-4692,23,-86,-38,33
853,2160,1,-419,-4687,23,-87,-37,35
854,2156,1,-430,-4695,23,-87,-39,33
855,2164,8,-421,-4695,23,-88,-39,36
856,2161,1,-422,-4696,23,-88,-37,34
857,2156,-1,-421,-4692,23,-88,-41,32
858,2162,-2,-419,-4699,23,-88,-41,35
859,2151,-1,-428,-4694,23,-87,-37,35
860,2158,0,-424,-4694,23,-85,-39,32
861,2161,3,-428,-4700,23,-85,-39,33
862,2159,4,-425,-4705,23,-86,-38,33
863,2164,1,-433,-4700,23,-88,-39,36
864,2159,-1,-423,-4693,23,-88,-38,34
865,2153,2,-426,-4695,23,-86,-37,35
866,2162,4,-434,-4686,23,-87,-38,35
867,2156,5,-424,-4690,23,-88,-38,34
868,2159,-1,-428,-4700,23,-87,-38,35
869,2157,5,-427,-4688,23,-88,-38,34
870,2157,1,-421,-4689,23,-87,-39,34
871,2159,4,-417,-4692,23,-87,-35,35
872,2163,3,-426,-4698,23,-86,-38,36
873,2159,-2,-433,-4696,23,-86,-39,36
874,2154,1,-427,-4699,23,-87,-40,33
875,2157,-4,-424,-4696,23,-87,-39,34
876,2159,3,-421,-4692,23,-87,-39,36
877,2159,1,-427,-4699,23,-88,-38,36
878,2153,6,-431,-4693,23,-85,-38,33
879,2161,3,-429,-4695,23,-87,-40,33
880,2157,2,-429,-4686,23,-88,-37,34
881,2165,2,-426,-4696,23,-86,-39,37
882,2162,0,-435,-4696,23,-86,-38,38
883,2157,0,-427,-4706,23,-87,-40,37
884,2164,0,-422,-4691,23,-85,-37,35
885,2157,8,-426,-4704,23,-87,-37,34
886,2165,3,-422,-4696,23,-85,-38,35
887,2160,2,-426,-4695,23,-86,-37,35
888,2165,3,-423,-4694,23,-88,-40,35
889,2159,5,-419,-4687,23,-88,-37,36
890,2158,7,-422,-4692,23,-86,-36,35
891,2158,5,-428,-4700,23,-86,-37,32
892,2149,6,-421,-4696,23,-86,-37,34
893,2157,4,-425,-4689,23,-89,-36,35
894,2159,4,-429,-4681,23,-87,-36,37
895,2156,0,-426,-4691,23,-88,-40,35
896,2164,0,-426,-4690,23,-87,-36,32
897,2158,0,-431,-4687,23,-89,-38,33
898,2158,4,-421,-4698,23,-87,-36,35
899,2159,6,-418,-4695,23,-85,-39,34
900,2162,-1,-431,-4689,23,-89,-36,35
901,2159,-4,-434,-4688,23,-87,-38,34
902,2164,1,-424,-4693,23,-86,-38,33
903,2159,3,-428,-4693,23,-88,-37,35
904,2157,1,-425,-4692,23,-90,-37,35
905,2159,4,-420,-4691,23,-88,-39,36
906,2154,1,-422,-4687,23,-88,-40,36
907,2161,4,-421,-4690,23,-88,-37,34
908,2164,0,-425,-4697,23,-87,-36,36
909,2160,5,-428,-4689,23,-88,-37,36
910,2158,1,-426,-4694,23,-88,-39,36
911,2161,-3,-424,-4695,23,-85,-38,33
912,2159,-2,-431,-4686,23,-87,-38,34
913,2161,4,-422,-4683,23,-86,-37,36
914,2156,-4,-430,-4684,23,-87,-37,35
915,2161,-1,-427,-4691,23,-89,-34,34
916,2158,-1,-429,-4689,23,-86,-37,33
917,2165,2,-427,-4692,23,-88,-38,35
918,2164,-1,-426,-4698,23,-89,-38,36
919,2158,6,-428,-4697,23,-88,-38,36
920,2159,5,-429,-4687,23,-87,-36,34
921,2165,4,-420,-4683,23,-87,-34,37
922,2160,6,-423,-4694,23,-85,-37,36
923,2159,-3,-419,-4694,23,-88,-37,34
924,2156,-4,-430,-4687,23,-85,-37,34
925,2158,0,-426,-4690,23,-87,-36,36
926,2157,0,-429,-4695,23,-85,-38,35
927,2162,-1,-422,-4694,23,-89,-36,35
928,2160,-1,-414,-4680,23,-90,-32,35
929,2158,-2,-420,-4686,23,-86,-37,37
930,2162,-4,-423,-4690,23,-86,-34,35
931,2160,7,-425,-4693,23,-88,-39,35
932,2161,0,-423,-4683,23,-90,-41,35
933,2157,2,-425,-4695,23,-88,-36,35
934,2154,-1,-421,-4694,23,-86,-38,32
935,2154,2,-420,-4692,23,-87,-36,34
936,2155,2,-423,-4693,23,-87,-38,35
937,2156,4,-424,-4686,23,-85,-37,32
938,2155,6,-430,-4695,23,-88,-40,37
939,2159,0,-424,-4693,23,-89,-39,34
940,2162,-1,-416,-4692,23,-88,-36,32
941,2162,-1,-418,-4696,23,-88,-36,33
942,2160,1,-420,-4693,23,-86,-37,35
943,2160,6,-437,-4695,23,-87,-39,33
944,2160,4,-431,-4695,23,-88,-36,32
945,2158,3,-415,-4691,23,-88,-39,36
946,2159,6,-415,-4692,23,-87,-35,34
947,2160,4,-430,-4688,23,-88,-38,33
948,2152,-2,-426,-4694,23,-90,-36,34
949,2159,-3,-428,-4690,23,-87,-38,36
950,2162,2,-435,-4693,23,-84,-38,37
951,2159,1,-424,-4690,23,-86,-35,35
952,2159,-5,-427,-4689,23,-85,-37,35
953,2161,-2,-423,-4699,23,-84,-39,34
954,2157,-3,-417,-4698,23,-85,-38,36
955,2156,0,-421,-4692,23,-86,-39,35
956,2154,5,-428,-4688,23,-87,-38,33
957,2158,2,-426,-4690,23,-89,-40,35
958,2159,5,-433,-4689,23,-89,-36,34
959,2160,-1,-426,-4694,23,-88,-37,37
960,2160,9,-424,-4695,23,-87,-38,34
961,2160,3,-421,-4696,23,-88,-37,34
962,2161,-1,-430,-4698,23,-88,-38,35
963,2159,1,-424,-4691,23,-87,-37,34
964,2159,7,-421,-4685,23,-88,-39,36
965,2158,1,-427,-4681,23,-87,-38,35
966,2167,3,-431,-4689,23,-87,-37,35
967,2160,-2,-428,-4686,23,-83,-37,34
968,2158,4,-426,-4687,23,-85,-38,34
969,2157,4,-432,-4685,23,-85,-34,36
970,2154,7,-427,-4689,23,-88,-35,35
971,2160,2,-422,-4685,23,-85,-37,35
972,2156,4,-424,-4690,23,-86,-37,37
973,2157,1,-427,-4692,23,-89,-37,36
974,2162,3,-418,-4697,23,-88,-39,36
975,2158,3,-424,-4694,23,-86,-37,36
976,2156,2,-419,-4692,23,-88,-38,35
977,2160,5,-425,-4687,23,-87,-36,36
978,2160,4,-415,-4683,23,-90,-41,35
979,2162,-5,-423,-4685,23,-87,-38,35
980,2162,-1,-423,-4690,23,-84,-38,34
981,2160,2,-427,-4694,23,-89,-36,35
982,2156,-2,-425,-4693,23,-87,-40,34
983,2158,3,-425,-4688,23,-89,-38,35
984,2156,2,-420,-4687,23,-89,-36,35
985,2157,-3,-421,-4687,23,-88,-36,33
986,2159,2,-431,-4697,23,-88,-38,34
987,2158,0,-423,-4691,23,-87,-37,36
988,2156,2,-428,-4683,23,-89,-38,33
989,2158,1,-422,-4689,23,-91,-37,34
990,2155,3,-430,-4690,23,-89,-37,36
991,2156,5,-417,-4682,23,-86,-38,36
992,2160,-2,-420,-4684,23,-89,-38,35
993,2154,0,-423,-4685,23,-86,-36,34
994,2156,2,-420,-4703,23,-85,-37,34
995,2161,-2,-425,-4694,23,-87,-38,33
