,acc_X,acc_Y,acc_Z,temp,tempC,gyr_X,gyr_Y,gyr_Z
0,2159,1,-423,-4659,23,-87,-37,35
1,2159,0,-423,-4659,23,-87,-37,34
2,2160,1,-425,-4659,23,-87,-37,35
3,2160,1,-425,-4657,23,-87,-37,35
4,2158,0,-423,-4655,23,-88,-38,35
5,2159,-1,-423,-4657,23,-88,-38,35
6,2161,0,-422,-4660,23,-88,-38,34
7,2159,-1,-424,-4660,23,-88,-38,34
8,2159,0,-424,-4661,23,-87,-38,34
9,2160,1,-425,-4658,23,-87,-37,34
10,2160,1,-424,-4658,23,-86,-38,34
11,2160,2,-425,-4659,23,-86,-39,35
12,2160,2,-425,-4658,23,-86,-39,34
13,2160,1,-426,-4658,23,-86,-39,34
14,2158,0,-426,-4658,23,-86,-39,34
15,2159,0,-426,-4659,23,-86,-39,34
16,2159,0,-425,-4659,23,-87,-38,34
17,2159,0,-424,-4657,23,-87,-38,34
18,2158,1,-424,-4656,23,-87,-37,35
19,2159,0,-425,-4658,23,-87,-38,35
20,2160,1,-425,-4659,23,-87,-38,35
21,2159,2,-423,-4660,23,-87,-37,35
22,2159,2,-422,-4660,23,-86,-38,35
23,2159,1,-422,-4660,23,-86,-38,35
24,2159,2,-425,-4661,23,-86,-38,34
25,2160,1,-425,-4662,23,-87,-38,34
26,2160,1,-425,-4661,23,-87,-37,34
27,2159,2,-425,-4661,23,-87,-37,34
28,2160,2,-425,-4660,23,-87,-37,34
29,2161,1,-423,-4661,23,-87,-37,35
30,2160,1,-425,-4661,23,-87,-37,35
31,2159,1,-424,-4660,23,-88,-38,35
32,2157,2,-422,-4661,23,-87,-38,35
33,2157,0,-422,-4660,23,-87,-38,35
34,2158,0,-422,-4660,23,-87,-38,35
35,2159,-2,-422,-4660,23,-87,-39,35
36,2159,-3,-425,-4661,23,-87,-39,35
37,2159,-1,-425,-4661,23,-87,-38,35
38,2159,0,-425,-4660,23,-87,-38,35
39,2158,0,-426,-4661,23,-87,-39,35
40,2159,1,-427,-4663,23,-87,-39,35
41,2160,1,-427,-4662,23,-87,-39,34
42,2159,1,-426,-4661,23,-87,-39,34
43,2160,2,-426,-4661,23,-87,-39,34
44,2159,2,-426,-4661,23,-87,-39,34
45,2159,3,-426,-4661,23,-87,-39,35
46,2160,2,-426,-4661,23,-87,-39,34
47,2160,3,-426,-4660,23,-87,-39,34
48,2160,2,-425,-4660,23,-87,-38,34
49,2159,1,-424,-4660,23,-87,-39,35
50,2159,1,-425,-4661,23,-86,-39,35
51,2158,1,-424,-4661,23,-87,-40,35
52,2158,0,-424,-4660,23,-87,-39,34
53,2158,-1,-423,-4659,23,-87,-39,35
54,2158,-2,-422,-4660,23,-87,-38,35
55,2158,-2,-423,-4660,23,-87,-39,35
56,2157,-2,-422,-4660,23,-87,-39,35
57,2157,-1,-423,-4661,23,-87,-39,34
58,2158,-2,-423,-4661,23,-87,-40,35
59,2158,-1,-423,-4661,23,-87,-39,35
60,2158,-2,-423,-4659,23,-87,-39,34
61,2157,0,-424,-4659,23,-88,-38,34
62,2158,1,-424,-4659,23,-88,-39,34
63,2158,0,-425,-4659,23,-87,-39,35
64,2158,-1,-423,-4660,23,-87,-38,35
65,2158,0,-424,-4661,23,-87,-38,35
66,2159,0,-424,-4658,23,-88,-38,35
67,2158,0,-423,-4658,23,-87,-38,34
68,2159,0,-423,-4658,23,-87,-38,34
69,2159,2,-423,-4659,23,-86,-38,34
70,2160,2,-424,-4659,23,-87,-38,34
71,2160,2,-423,-4662,23,-87,-39,34
72,2159,2,-424,-4663,23,-87,-39,34
73,2160,2,-424,-4662,23,-87,-38,34
74,2159,2,-424,-4661,23,-87,-38,34
75,2160,1,-424,-4660,23,-87,-38,35
76,2160,1,-426,-4659,23,-87,-38,35
77,2159,1,-426,-4658,23,-87,-37,35
78,2160,2,-426,-4657,23,-87,-38,35
79,2158,2,-426,-4657,23,-86,-38,35
80,2157,1,-424,-4658,23,-86,-38,35
81,2157,1,-425,-4660,23,-86,-38,34
82,2156,1,-425,-4659,23,-87,-38,34
83,2157,0,-424,-4660,23,-87,-39,35
84,2158,0,-424,-4660,23,-87,-39,35
85,2158,1,-425,-4659,23,-87,-38,35
86,2159,2,-424,-4659,23,-87,-39,35
87,2159,2,-425,-4659,23,-88,-38,35
88,2159,2,-425,-4658,23,-88,-38,34
89,2158,2,-424,-4657,23,-88,-38,34
90,2158,2,-425,-4657,23,-87,-38,34
91,2157,2,-424,-4658,23,-87,-38,34
92,2158,3,-425,-4658,23,-87,-39,34
93,2157,3,-424,-4658,23,-87,-39,34
94,2158,3,-424,-4659,23,-87,-39,34
95,2159,3,-425,-4658,23,-87,-39,34
96,2158,3,-426,-4656,23,-87,-38,34
97,2158,2,-425,-4657,23,-88,-39,34
98,2158,1,-427,-4657,23,-88,-38,34
99,2158,0,-426,-4656,23,-87,-38,34
100,2158,1,-426,-4657,23,-88,-38,34
101,2159,-1,-425,-4657,23,-88,-38,34
102,2159,1,-426,-4657,23,-88,-38,33
103,2159,0,-426,-4659,23,-88,-38,34
104,2159,-1,-426,-4658,23,-88,-38,35
105,2159,-1,-424,-4659,23,-87,-38,36
106,2159,0,-424,-4659,23,-88,-38,35
107,2158,-1,-426,-4660,23,-88,-39,34
108,2157,-1,-425,-4659,23,-87,-38,34
109,2157,1,-426,-4659,23,-87,-38,35
110,2157,2,-425,-4659,23,-87,-38,35
111,2159,1,-425,-4658,23,-87,-38,35
112,2159,1,-423,-4657,23,-87,-38,34
113,2158,2,-421,-4658,23,-87,-38,34
114,2159,1,-422,-4657,23,-87,-38,34
115,2159,2,-422,-4657,23,-87,-38,34
116,2158,0,-423,-4658,23,-87,-38,34
117,2157,0,-424,-4660,23,-87,-39,35
118,2158,0,-424,-4660,23,-87,-39,35
119,2159,1,-425,-4660,23,-87,-39,35
120,2158,1,-426,-4659,23,-87,-38,34
121,2159,2,-426,-4657,23,-87,-39,35
122,2160,2,-427,-4658,23,-87,-39,35
123,2159,1,-426,-4659,23,-87,-38,35
124,2159,0,-427,-4660,23,-88,-38,35
125,2158,0,-425,-4659,23,-88,-38,35
126,2158,0,-425,-4658,23,-87,-39,35
127,2157,0,-424,-4656,23,-87,-38,34
128,2157,0,-425,-4659,23,-88,-38,35
129,2158,2,-428,-4658,23,-87,-38,35
130,2158,0,-427,-4660,23,-87,-38,34
131,2157,1,-428,-4659,23,-87,-38,35
132,2158,1,-426,-4659,23,-88,-38,35
133,2158,1,-426,-4659,23,-88,-39,35
134,2158,2,-428,-4661,23,-88,-39,35
135,2158,1,-426,-4660,23,-88,-39,35
136,2159,2,-425,-4659,23,-88,-39,34
137,2159,2,-425,-4660,23,-88,-38,35
138,2160,1,-425,-4659,23,-88,-39,35
139,2159,1,-423,-4659,23,-88,-39,35
140,2159,2,-423,-4659,23,-88,-39,35
141,2160,2,-422,-4659,23,-88,-38,35
142,2159,1,-421,-4659,23,-88,-38,35
143,2159,1,-422,-4659,23,-88,-38,35
144,2160,1,-423,-4659,23,-88,-38,35
145,2160,1,-424,-4659,23,-87,-38,35
146,2161,0,-423,-4659,23,-87,-39,35
147,2160,1,-425,-4658,23,-88,-39,34
148,2160,1,-425,-4659,23,-88,-39,35
149,2159,0,-426,-4660,23,-87,-39,34
150,2159,1,-426,-4661,23,-88,-39,34
151,2161,1,-426,-4662,23,-87,-39,34
152,2162,1,-427,-4661,23,-87,-39,34
153,2160,1,-424,-4662,23,-87,-38,35
154,2159,2,-425,-4663,23,-88,-38,35
155,2159,2,-424,-4662,23,-88,-38,34
156,2156,3,-425,-4661,23,-88,-39,34
157,2159,1,-426,-4660,23,-88,-38,34
158,2160,0,-426,-4659,23,-88,-38,34
159,2158,-1,-426,-4659,23,-88,-39,34
160,2159,0,-427,-4659,23,-88,-38,34
161,2158,1,-426,-4660,23,-87,-38,34
162,2158,0,-428,-4661,23,-88,-38,34
163,2160,0,-426,-4661,23,-87,-38,35
164,2160,0,-426,-4661,23,-87,-38,35
165,2159,1,-425,-4657,23,-88,-38,35
166,2160,1,-424,-4658,23,-88,-38,35
167,2160,1,-426,-4659,23,-88,-38,34
168,2159,3,-426,-4660,23,-88,-38,35
169,2158,2,-423,-4660,23,-87,-39,34
170,2158,2,-422,-4659,23,-87,-38,35
171,2159,4,-422,-4658,23,-87,-39,35
172,2159,3,-421,-4657,23,-87,-39,35
173,2159,2,-424,-4657,23,-87,-39,35
174,2159,3,-424,-4656,23,-87,-38,35
175,2159,2,-426,-4657,23,-87,-39,35
176,2159,2,-426,-4657,23,-87,-38,35
177,2160,2,-427,-4656,23,-87,-38,35
178,2159,2,-427,-4656,23,-88,-38,35
179,2158,1,-427,-4657,23,-88,-38,35
180,2156,3,-426,-4658,23,-87,-39,34
181,2157,3,-427,-4657,23,-87,-38,34
182,2157,2,-427,-4657,23,-87,-38,34
183,2158,3,-427,-4654,23,-87,-38,34
184,2157,2,-428,-4654,23,-87,-39,35
185,2159,2,-428,-4653,23,-87,-39,34
186,2159,2,-427,-4654,23,-88,-38,35
187,2158,2,-426,-4653,23,-87,-39,35
188,2159,2,-426,-4654,23,-87,-38,35
189,2159,2,-425,-4654,23,-87,-38,35
190,2158,2,-427,-4655,23,-87,-38,34
191,2159,1,-427,-4654,23,-87,-38,34
192,2159,1,-426,-4655,23,-87,-38,35
193,2159,0,-425,-4655,23,-87,-38,35
194,2160,0,-426,-4656,23,-87,-37,35
195,2160,1,-426,-4657,23,-87,-37,35
196,2161,1,-428,-4656,23,-87,-38,36
197,2160,2,-428,-4656,23,-87,-38,35
198,2159,1,-428,-4657,23,-88,-38,35
199,2158,2,-426,-4655,23,-88,-38,35
200,2158,2,-425,-4655,23,-88,-39,35
201,2158,2,-423,-4657,23,-88,-40,35
202,2159,2,-424,-4658,23,-88,-39,36
203,2160,2,-423,-4659,23,-88,-39,36
204,2160,2,-423,-4659,23,-88,-39,35
205,2159,1,-424,-4658,23,-88,-39,35
206,2159,1,-425,-4659,23,-88,-39,35
207,2159,1,-427,-4660,23,-88,-38,35
208,2160,1,-425,-4660,23,-88,-39,35
209,2160,2,-427,-4658,23,-88,-39,34
210,2160,1,-425,-4658,23,-88,-38,34
211,2160,1,-422,-4657,23,-87,-38,34
212,2161,0,-422,-4658,23,-87,-38,34
213,2161,-1,-423,-4658,23,-87,-38,34
214,2161,1,-425,-4658,23,-87,-39,35
215,2161,2,-425,-4656,23,-88,-38,34
216,2160,1,-424,-4657,23,-87,-39,35
217,2160,0,-424,-4657,23,-87,-38,35
218,2160,0,-425,-4656,23,-87,-38,35
219,2161,0,-423,-4656,23,-87,-38,35
220,2160,-1,-424,-4655,23,-87,-38,35
221,2160,0,-422,-4657,23,-87,-38,35
222,2159,1,-424,-4657,23,-87,-38,34
223,2158,1,-424,-4659,23,-88,-38,34
224,2159,0,-426,-4657,23,-87,-38,34
225,2159,1,-425,-4657,23,-87,-37,34
226,2159,2,-425,-4658,23,-87,-37,35
227,2159,0,-423,-4659,23,-87,-37,35
228,2159,1,-423,-4659,23,-87,-38,34
229,2158,1,-423,-4657,23,-87,-37,34
230,2158,1,-422,-4659,23,-88,-37,34
231,2160,1,-422,-4658,23,-88,-37,34
232,2160,0,-423,-4656,23,-88,-37,34
233,2161,0,-424,-4656,23,-88,-38,34
234,2160,0,-424,-4655,23,-87,-38,34
235,2159,0,-422,-4655,23,-88,-39,34
236,2159,1,-422,-4654,23,-87,-38,34
237,2160,0,-424,-4654,23,-87,-39,34
238,2160,1,-424,-4656,23,-87,-39,35
239,2160,0,-425,-4657,23,-87,-39,34
240,2160,-1,-423,-4655,23,-87,-39,34
241,2160,-1,-422,-4656,23,-87,-38,35
242,2158,-2,-423,-4656,23,-86,-37,35
243,2158,-1,-423,-4659,23,-87,-38,35
244,2159,-1,-423,-4658,23,-86,-38,35
245,2158,-1,-425,-4657,23,-87,-38,35
246,2158,-2,-424,-4656,23,-86,-38,35
247,2158,-1,-425,-4656,23,-87,-38,35
248,2159,-1,-427,-4655,23,-87,-38,35
249,2159,-1,-426,-4655,23,-86,-37,35
250,2160,0,-425,-4657,23,-86,-37,34
251,2159,0,-426,-4659,23,-87,-37,35
252,2158,-1,-426,-4659,23,-86,-37,35
253,2157,0,-426,-4658,23,-87,-37,35
254,2159,1,-428,-4657,23,-87,-38,34
255,2159,1,-427,-4657,23,-87,-38,34
256,2159,1,-427,-4658,23,-88,-38,35
257,2160,1,-426,-4659,23,-87,-38,35
258,2161,1,-427,-4659,23,-87,-38,34
259,2161,1,-426,-4658,23,-87,-38,34
260,2159,0,-424,-4656,23,-88,-38,34
261,2159,-1,-425,-4654,23,-87,-39,34
262,2160,0,-424,-4652,23,-87,-39,34
263,2160,0,-423,-4652,23,-87,-38,34
264,2160,0,-425,-4652,23,-87,-39,35
265,2160,0,-424,-4653,23,-87,-39,35
266,2159,0,-423,-4652,23,-87,-39,35
267,2159,-1,-423,-4653,23,-87,-39,35
268,2159,-1,-424,-4654,23,-87,-39,35
269,2160,0,-422,-4656,23,-87,-39,35
270,2160,2,-420,-4655,23,-87,-39,35
271,2160,1,-421,-4655,23,-87,-38,35
272,2161,-1,-420,-4655,23,-87,-38,35
273,2160,-1,-420,-4655,23,-87,-39,35
274,2159,0,-421,-4656,23,-87,-39,35
275,2160,0,-421,-4654,23,-88,-38,35
276,2159,1,-424,-4653,23,-88,-39,35
277,2159,1,-423,-4653,23,-88,-39,35
278,2160,0,-425,-4656,23,-88,-38,35
279,2161,0,-425,-4658,23,-88,-39,35
280,2161,1,-424,-4658,23,-87,-39,34
281,2161,0,-423,-4658,23,-87,-39,35
282,2161,0,-424,-4658,23,-87,-39,34
283,2162,1,-425,-4656,23,-88,-39,34
284,2160,1,-423,-4655,23,-88,-39,34
285,2161,1,-424,-4655,23,-88,-39,34
286,2161,2,-425,-4655,23,-87,-39,34
287,2160,2,-426,-4657,23,-87,-39,34
288,2160,1,-425,-4656,23,-87,-38,34
289,2160,2,-425,-4655,23,-87,-39,34
290,2158,1,-424,-4654,23,-86,-39,34
291,2158,2,-424,-4656,23,-87,-38,34
292,2160,0,-422,-4657,23,-87,-39,35
293,2160,0,-422,-4656,23,-87,-39,35
294,2159,0,-421,-4657,23,-88,-40,35
295,2159,1,-424,-4656,23,-88,-39,34
296,2161,0,-423,-4656,23,-88,-40,34
297,2160,1,-424,-4654,23,-88,-39,34
298,2160,0,-426,-4652,23,-88,-39,35
299,2160,-1,-426,-4653,23,-88,-39,35
300,2160,-1,-426,-4656,23,-87,-38,34
301,2158,-1,-426,-4655,23,-87,-38,35
302,2156,0,-426,-4657,23,-87,-38,35
303,2157,1,-427,-4657,23,-87,-38,35
304,2157,1,-426,-4657,23,-88,-38,35
305,2158,0,-425,-4656,23,-87,-38,35
306,2158,1,-427,-4656,23,-87,-38,34
307,2158,0,-425,-4656,23,-88,-38,34
308,2159,0,-424,-4655,23,-87,-39,34
309,2158,0,-423,-4656,23,-88,-38,34
310,2159,1,-424,-4659,23,-87,-38,34
311,2159,0,-425,-4659,23,-87,-38,34
312,2159,0,-424,-4659,23,-87,-38,35
313,2159,1,-426,-4660,23,-87,-38,35
314,2159,1,-425,-4660,23,-87,-38,34
315,2159,1,-428,-4661,23,-87,-38,34
316,2159,2,-427,-4661,23,-87,-39,34
317,2159,2,-428,-4660,23,-87,-39,34
318,2159,1,-427,-4657,23,-87,-38,34
319,2159,1,-428,-4657,23,-87,-39,34
320,2159,0,-428,-4658,23,-87,-39,34
321,2161,1,-428,-4658,23,-88,-38,35
322,2161,1,-427,-4657,23,-87,-39,34
323,2160,1,-427,-4657,23,-88,-39,35
324,2159,1,-426,-4654,23,-88,-39,35
325,2159,0,-426,-4655,23,-87,-38,35
326,2159,0,-425,-4656,23,-87,-38,35
327,2159,0,-425,-4656,23,-87,-39,35
328,2158,2,-427,-4656,23,-88,-39,34
329,2158,2,-428,-4656,23,-87,-39,34
330,2159,2,-427,-4657,23,-87,-39,34
331,2159,1,-428,-4656,23,-87,-39,35
332,2158,2,-428,-4657,23,-87,-39,35
333,2157,2,-427,-4656,23,-87,-38,35
334,2158,1,-426,-4657,23,-87,-38,35
335,2157,1,-426,-4658,23,-87,-38,35
336,2159,0,-424,-4658,23,-87,-38,35
337,2160,0,-424,-4658,23,-87,-38,35
338,2161,1,-423,-4658,23,-87,-38,35
339,2161,1,-423,-4657,23,-87,-38,35
340,2162,1,-425,-4657,23,-87,-38,35
341,2161,0,-426,-4656,23,-87,-38,35
342,2159,0,-427,-4655,23,-87,-38,35
343,2160,0,-426,-4656,23,-87,-37,35
344,2161,1,-425,-4657,23,-86,-38,35
345,2160,1,-426,-4657,23,-87,-38,35
346,2160,2,-426,-4657,23,-87,-37,35
347,2158,1,-425,-4658,23,-87,-37,35
348,2159,1,-423,-4657,23,-87,-38,34
349,2159,2,-424,-4658,23,-87,-38,34
350,2160,2,-424,-4657,23,-87,-38,35
351,2160,2,-424,-4657,23,-88,-38,34
352,2161,1,-423,-4657,23,-88,-38,34
353,2162,2,-425,-4658,23,-88,-38,35
354,2161,3,-426,-4657,23,-87,-37,35
355,2162,3,-426,-4658,23,-87,-37,35
356,2162,4,-425,-4657,23,-87,-38,35
357,2162,2,-425,-4658,23,-87,-38,35
358,2162,1,-424,-4658,23,-87,-37,35
359,2161,2,-425,-4657,23,-87,-38,35
360,2160,1,-424,-4658,23,-88,-38,35
361,2159,1,-425,-4657,23,-87,-39,34
362,2160,2,-425,-4655,23,-87,-39,34
363,2159,2,-425,-4655,23,-87,-39,35
364,2160,2,-426,-4656,23,-87,-38,34
365,2159,2,-425,-4656,23,-87,-38,34
366,2159,1,-424,-4658,23,-88,-38,34
367,2160,0,-424,-4660,23,-87,-39,34
368,2159,0,-424,-4660,23,-87,-39,34
369,2159,0,-424,-4659,23,-87,-39,34
370,2159,1,-424,-4656,23,-88,-39,35
371,2159,1,-424,-4655,23,-88,-39,35
372,2159,1,-424,-4656,23,-88,-39,35
373,2159,1,-424,-4656,23,-88,-39,35
374,2159,1,-425,-4657,23,-87,-38,35
375,2160,1,-425,-4657,23,-88,-38,35
376,2160,0,-425,-4656,23,-87,-37,35
377,2160,1,-424,-4655,23,-87,-37,34
378,2160,2,-423,-4654,23,-87,-37,34
379,2159,2,-425,-4655,23,-87,-37,34
380,2158,2,-426,-4654,23,-87,-37,34
381,2158,2,-425,-4655,23,-87,-37,34
382,2159,2,-425,-4656,23,-88,-37,34
383,2160,1,-423,-4656,23,-88,-37,34
384,2160,1,-423,-4657,23,-88,-38,34
385,2160,0,-423,-4656,23,-87,-38,34
386,2160,0,-424,-4657,23,-88,-37,34
387,2161,-1,-425,-4657,23,-87,-38,35
388,2161,0,-426,-4654,23,-88,-38,35
389,2160,-1,-425,-4654,23,-88,-38,35
390,2162,-1,-425,-4654,23,-87,-39,35
391,2160,-1,-425,-4654,23,-88,-39,35
392,2160,-1,-425,-4655,23,-88,-38,35
393,2159,-1,-424,-4656,23,-88,-38,35
394,2158,-1,-424,-4657,23,-88,-38,34
395,2157,2,-423,-4655,23,-87,-39,35
396,2159,3,-424,-4656,23,-87,-38,35
397,2159,2,-424,-4656,23,-87,-38,35
398,2159,2,-424,-4657,23,-87,-38,35
399,2159,1,-428,-4657,23,-87,-37,35
400,2160,2,-427,-4657,23,-86,-38,35
401,2160,2,-425,-4657,23,-86,-38,34
402,2161,1,-423,-4658,23,-86,-38,35
403,2161,1,-424,-4657,23,-86,-38,34
404,2162,1,-424,-4655,23,-86,-37,34
405,2161,2,-424,-4654,23,-87,-38,34
406,2161,2,-423,-4655,23,-87,-38,34
407,2161,3,-424,-4653,23,-87,-38,34
408,2161,3,-426,-4654,23,-87,-38,34
409,2161,3,-425,-4653,23,-86,-38,34
410,2161,2,-422,-4654,23,-86,-38,34
411,2161,1,-423,-4653,23,-86,-38,34
412,2161,1,-424,-4653,23,-86,-38,34
413,2161,2,-424,-4654,23,-86,-38,34
414,2161,2,-424,-4653,23,-87,-38,34
415,2160,3,-424,-4652,23,-87,-38,34
416,2160,2,-423,-4655,23,-87,-37,34
417,2160,2,-423,-4655,23,-87,-37,34
418,2160,1,-425,-4655,23,-87,-38,35
419,2159,1,-425,-4654,23,-87,-38,34
420,2159,1,-425,-4653,23,-88,-38,34
421,2159,1,-425,-4653,23,-87,-38,35
422,2160,1,-423,-4654,23,-88,-38,34
423,2160,1,-422,-4654,23,-88,-39,35
424,2160,0,-423,-4655,23,-88,-38,35
425,2161,0,-424,-4657,23,-88,-38,35
426,2160,0,-426,-4655,23,-88,-38,35
427,2161,1,-426,-4654,23,-88,-38,35
428,2161,1,-425,-4656,23,-88,-38,35
429,2161,1,-425,-4655,23,-89,-38,35
430,2160,1,-425,-4654,23,-88,-38,35
431,2160,1,-424,-4653,23,-88,-38,35
432,2159,0,-425,-4655,23,-87,-38,34
433,2158,0,-425,-4655,23,-87,-39,35
434,2159,1,-425,-4656,23,-87,-38,35
435,2159,1,-426,-4656,23,-87,-38,35
436,2158,-1,-427,-4656,23,-87,-38,35
437,2160,-1,-427,-4657,23,-87,-38,35
438,2160,0,-426,-4656,23,-88,-38,34
439,2159,0,-427,-4657,23,-88,-38,34
440,2159,1,-427,-4658,23,-88,-38,34
441,2159,1,-425,-4657,23,-88,-38,35
442,2160,1,-426,-4657,23,-87,-38,35
443,2160,2,-425,-4656,23,-87,-38,35
444,2160,1,-425,-4656,23,-87,-38,35
445,2161,1,-425,-4655,23,-87,-38,35
446,2160,1,-426,-4655,23,-87,-37,35
447,2160,2,-426,-4657,23,-87,-38,35
448,2160,2,-426,-4656,23,-87,-39,34
449,2160,2,-426,-4657,23,-87,-38,34
450,2159,1,-425,-4656,23,-87,-38,34
451,2160,2,-424,-4656,23,-87,-38,34
452,2159,3,-425,-4659,23,-87,-38,33
453,2159,3,-424,-4659,23,-88,-38,33
454,2159,3,-425,-4657,23,-88,-38,33
455,2159,3,-424,-4657,23,-88,-37,34
456,2160,2,-422,-4657,23,-88,-38,34
457,2159,1,-423,-4658,23,-88,-38,34
458,2158,1,-424,-4657,23,-87,-38,34
459,2159,1,-423,-4656,23,-87,-38,34
460,2160,0,-423,-4656,23,-87,-38,34
461,2159,0,-422,-4655,23,-87,-38,34
462,2159,0,-425,-4655,23,-87,-38,35
463,2159,1,-426,-4656,23,-88,-38,35
464,2159,1,-427,-4658,23,-88,-38,34
465,2159,0,-427,-4659,23,-88,-38,34
466,2159,2,-427,-4657,23,-87,-38,35
467,2159,1,-424,-4656,23,-87,-38,35
468,2160,1,-425,-4656,23,-87,-38,35
469,2160,1,-424,-4655,23,-87,-38,35
470,2160,2,-423,-4655,23,-88,-38,35
471,2160,1,-424,-4657,23,-87,-38,35
472,2161,1,-425,-4657,23,-87,-38,34
473,2161,0,-426,-4659,23,-87,-38,34
474,2161,0,-427,-4658,23,-87,-37,34
475,2160,0,-427,-4660,23,-87,-38,35
476,2160,0,-426,-4659,23,-86,-38,35
477,2161,1,-424,-4659,23,-87,-38,35
478,2160,1,-425,-4658,23,-87,-38,35
479,2160,2,-425,-4658,23,-87,-39,35
480,2160,2,-426,-4657,23,-87,-38,35
481,2159,2,-424,-4656,23,-87,-38,34
482,2158,2,-424,-4657,23,-86,-38,34
483,2159,2,-425,-4657,23,-87,-38,35
484,2159,2,-423,-4656,23,-88,-38,34
485,2160,3,-423,-4656,23,-88,-38,34
486,2161,2,-425,-4656,23,-88,-39,33
487,2161,1,-424,-4657,23,-88,-38,33
488,2161,1,-425,-4658,23,-88,-38,34
489,2160,1,-425,-4658,23,-88,-38,34
490,2160,0,-424,-4659,23,-87,-38,34
491,2160,0,-425,-4659,23,-87,-38,35
492,2160,0,-424,-4658,23,-88,-38,34
493,2160,-1,-424,-4656,23,-88,-38,34
494,2160,-1,-422,-4656,23,-87,-38,34
495,2159,-1,-421,-4655,23,-86,-38,35
496,2160,0,-421,-4656,23,-86,-37,35
497,2160,0,-422,-4656,23,-86,-37,34
498,2160,1,-423,-4655,23,-86,-38,34
499,2160,1,-425,-4654,23,-87,-38,34
500,2161,3,-426,-4654,23,-87,-37,34
501,2161,3,-423,-4653,23,-87,-37,34
502,2160,3,-425,-4653,23,-87,-38,34
503,2161,2,-426,-4653,23,-87,-38,34
504,2159,2,-425,-4657,23,-87,-38,34
505,2159,1,-426,-4658,23,-87,-37,34
506,2158,2,-423,-4658,23,-86,-37,34
507,2159,3,-424,-4658,23,-87,-37,34
508,2160,2,-425,-4656,23,-87,-38,34
509,2159,1,-424,-4656,23,-87,-38,34
510,2160,1,-424,-4657,23,-87,-38,34
511,2160,2,-425,-4656,23,-87,-38,34
512,2158,2,-425,-4656,23,-87,-38,34
513,2159,1,-425,-4656,23,-87,-38,35
514,2158,1,-426,-4654,23,-87,-38,34
515,2159,1,-426,-4655,23,-87,-38,34
516,2159,0,-425,-4655,23,-87,-38,35
517,2159,-1,-427,-4653,23,-87,-38,35
518,2160,-1,-426,-4654,23,-86,-37,35
519,2161,-1,-425,-4655,23,-86,-38,34
520,2159,-1,-427,-4656,23,-86,-38,34
521,2159,-1,-424,-4657,23,-87,-38,34
522,2158,0,-423,-4656,23,-87,-38,34
523,2159,-1,-424,-4656,23,-88,-39,34
524,2159,0,-425,-4657,23,-88,-38,34
525,2159,0,-423,-4658,23,-88,-38,34
526,2158,1,-426,-4656,23,-88,-38,34
527,2159,1,-427,-4656,23,-88,-38,34
528,2158,2,-426,-4655,23,-87,-39,34
529,2159,2,-428,-4657,23,-87,-39,34
530,2158,1,-426,-4656,23,-88,-39,34
531,2158,1,-425,-4656,23,-87,-39,35
532,2156,3,-424,-4656,23,-87,-39,34
533,2157,3,-425,-4655,23,-87,-39,34
534,2157,2,-426,-4654,23,-86,-39,34
535,2158,1,-427,-4656,23,-87,-38,34
536,2158,1,-428,-4654,23,-87,-38,35
537,2158,1,-426,-4655,23,-87,-38,35
538,2159,1,-423,-4655,23,-87,-38,35
539,2159,0,-425,-4654,23,-88,-38,35
540,2158,0,-425,-4654,23,-88,-39,35
541,2157,0,-425,-4653,23,-88,-39,35
542,2157,0,-426,-4653,23,-88,-39,34
543,2158,1,-424,-4654,23,-88,-38,34
544,2158,2,-422,-4653,23,-88,-38,34
545,2158,2,-422,-4653,23,-88,-38,34
546,2158,1,-422,-4657,23,-88,-37,34
547,2158,2,-423,-4657,23,-87,-37,34
548,2158,2,-424,-4658,23,-87,-37,35
549,2159,2,-424,-4658,23,-87,-37,35
550,2159,2,-423,-4655,23,-87,-37,35
551,2160,0,-424,-4655,23,-87,-37,35
552,2160,-1,-424,-4656,23,-87,-38,35
553,2160,-1,-425,-4655,23,-87,-38,34
554,2160,-1,-423,-4655,23,-87,-38,34
555,2160,0,-424,-4656,23,-88,-38,34
556,2159,0,-425,-4655,23,-88,-38,35
557,2161,0,-424,-4657,23,-88,-38,35
558,2161,0,-423,-4656,23,-88,-37,34
559,2161,-1,-424,-4657,23,-88,-38,35
560,2160,1,-424,-4657,23,-88,-38,34
561,2158,1,-425,-4659,23,-88,-38,34
562,2158,1,-425,-4658,23,-88,-38,35
563,2159,0,-424,-4657,23,-88,-38,35
564,2159,0,-426,-4657,23,-88,-38,35
565,2160,1,-425,-4656,23,-88,-38,34
566,2161,1,-424,-4658,23,-88,-38,34
567,2160,1,-424,-4658,23,-89,-38,34
568,2159,0,-426,-4658,23,-88,-38,34
569,2159,0,-426,-4660,23,-88,-38,34
570,2159,1,-425,-4659,23,-88,-38,34
571,2159,1,-424,-4657,23,-88,-39,35
572,2160,0,-424,-4657,23,-88,-38,35
573,2161,0,-427,-4658,23,-88,-38,35
574,2160,1,-427,-4658,23,-88,-39,35
575,2160,0,-426,-4659,23,-88,-39,35
576,2160,1,-424,-4657,23,-88,-39,35
577,2160,-1,-425,-4655,23,-88,-39,35
578,2160,0,-425,-4657,23,-87,-39,35
579,2160,1,-425,-4657,23,-87,-40,34
580,2159,1,-425,-4658,23,-87,-40,35
581,2160,2,-426,-4656,23,-87,-39,35
582,2159,1,-425,-4656,23,-87,-39,35
583,2159,1,-426,-4657,23,-88,-39,34
584,2158,1,-424,-4659,23,-87,-39,34
585,2158,1,-423,-4658,23,-88,-40,35
586,2158,1,-424,-4657,23,-87,-38,35
587,2157,1,-423,-4658,23,-87,-39,35
588,2158,1,-423,-4659,23,-87,-39,35
589,2158,1,-424,-4658,23,-87,-38,35
590,2158,2,-425,-4657,23,-87,-38,35
591,2158,0,-424,-4656,23,-87,-38,35
592,2157,0,-424,-4656,23,-87,-38,35
593,2158,0,-425,-4656,23,-87,-38,35
594,2160,1,-424,-4656,23,-87,-39,34
595,2160,1,-423,-4657,23,-87,-39,34
596,2160,1,-423,-4655,23,-87,-38,34
597,2159,1,-425,-4655,23,-87,-39,35
598,2160,0,-426,-4654,23,-87,-39,34
599,2159,1,-424,-4654,23,-88,-39,34
600,2158,1,-423,-4654,23,-87,-39,34
601,2158,0,-423,-4655,23,-87,-39,34
602,2159,-1,-424,-4656,23,-88,-38,34
603,2158,0,-423,-4654,23,-88,-39,34
604,2159,-1,-424,-4653,23,-88,-39,35
605,2158,-1,-425,-4654,23,-88,-39,35
606,2158,-1,-426,-4653,23,-88,-39,35
607,2158,0,-426,-4653,23,-88,-39,36
608,2159,0,-427,-4652,23,-88,-38,35
609,2158,1,-427,-4653,23,-88,-39,35
610,2158,1,-425,-4653,23,-88,-39,35
611,2158,1,-425,-4656,23,-88,-38,35
612,2159,1,-426,-4657,23,-87,-38,34
613,2158,1,-425,-4657,23,-88,-38,34
614,2159,1,-423,-4656,23,-87,-37,34
615,2160,1,-424,-4656,23,-88,-38,34
616,2160,1,-425,-4656,23,-88,-38,34
617,2159,1,-423,-4655,23,-88,-37,34
618,2159,1,-425,-4654,23,-88,-38,35
619,2158,1,-424,-4655,23,-89,-37,34
620,2157,1,-426,-4657,23,-89,-38,34
621,2158,0,-427,-4654,23,-89,-39,34
622,2159,0,-426,-4652,23,-88,-39,34
623,2159,0,-428,-4652,23,-88,-40,34
624,2159,1,-428,-4652,23,-88,-40,33
625,2159,1,-427,-4654,23,-88,-39,34
626,2159,0,-426,-4654,23,-88,-38,33
627,2158,1,-427,-4654,23,-89,-38,34
628,2158,1,-427,-4654,23,-88,-39,34
629,2157,2,-426,-4653,23,-88,-38,35
630,2158,2,-426,-4654,23,-88,-38,35
631,2158,1,-426,-4654,23,-88,-38,35
632,2159,0,-426,-4652,23,-88,-38,35
633,2159,0,-426,-4653,23,-88,-38,35
634,2158,1,-426,-4653,23,-88,-38,34
635,2159,0,-427,-4653,23,-88,-37,35
636,2157,1,-427,-4653,23,-88,-38,35
637,2158,1,-426,-4655,23,-88,-38,34
638,2157,2,-425,-4654,23,-88,-39,35
639,2157,3,-426,-4655,23,-88,-39,35
640,2156,1,-426,-4654,23,-88,-39,34
641,2157,2,-426,-4654,23,-88,-38,34
642,2158,2,-426,-4655,23,-87,-39,34
643,2158,1,-425,-4656,23,-87,-39,34
644,2158,0,-424,-4655,23,-87,-38,34
645,2159,1,-425,-4657,23,-87,-38,34
646,2157,0,-426,-4655,23,-87,-38,34
647,2159,0,-427,-4655,23,-86,-38,34
648,2159,0,-424,-4655,23,-86,-38,34
649,2158,0,-424,-4655,23,-86,-38,34
650,2159,0,-425,-4654,23,-86,-38,34
651,2159,0,-424,-4654,23,-86,-37,34
652,2158,-1,-425,-4654,23,-86,-38,34
653,2159,-1,-425,-4654,23,-87,-38,34
654,2159,-1,-425,-4654,23,-88,-38,35
655,2160,-1,-423,-4654,23,-87,-38,35
656,2161,-2,-421,-4655,23,-87,-38,35
657,2161,-2,-421,-4657,23,-87,-38,35
658,2161,-1,-421,-4657,23,-88,-37,35
659,2160,0,-422,-4657,23,-87,-37,34
660,2160,-1,-422,-4656,23,-87,-38,34
661,2160,0,-420,-4655,23,-87,-39,35
662,2159,1,-421,-4655,23,-87,-39,35
663,2159,2,-423,-4656,23,-87,-38,35
664,2159,2,-424,-4656,23,-87,-39,35
665,2158,3,-425,-4655,23,-87,-39,35
666,2158,3,-425,-4655,23,-87,-38,35
667,2159,3,-425,-4654,23,-87,-37,35
668,2158,4,-425,-4653,23,-88,-37,35
669,2159,3,-425,-4654,23,-87,-37,35
670,2158,3,-425,-4654,23,-87,-37,34
671,2159,2,-426,-4653,23,-87,-38,34
672,2160,2,-425,-4652,23,-87,-38,35
673,2160,2,-423,-4652,23,-87,-38,34
674,2159,1,-423,-4651,23,-87,-38,34
675,2160,1,-425,-4650,23,-87,-39,34
676,2159,0,-426,-4652,23,-87,-39,34
677,2158,0,-425,-4655,23,-87,-38,34
678,2158,0,-426,-4656,23,-87,-38,35
679,2157,0,-426,-4657,23,-87,-38,35
680,2157,-1,-426,-4657,23,-87,-38,34
681,2158,-1,-425,-4658,23,-88,-38,34
682,2157,-1,-426,-4657,23,-87,-37,34
683,2157,0,-425,-4656,23,-87,-37,34
684,2158,-1,-426,-4656,23,-87,-37,34
685,2158,0,-426,-4654,23,-87,-38,34
686,2158,0,-424,-4653,23,-87,-38,34
687,2159,2,-423,-4655,23,-86,-39,35
688,2159,1,-423,-4655,23,-87,-38,35
689,2159,1,-425,-4654,23,-87,-38,35
690,2160,1,-424,-4654,23,-87,-39,35
691,2160,0,-423,-4653,23,-87,-39,36
692,2160,0,-424,-4653,23,-87,-38,35
693,2161,0,-423,-4654,23,-87,-38,35
694,2159,0,-421,-4651,23,-87,-38,35
695,2159,0,-421,-4653,23,-87,-38,35
696,2158,0,-421,-4653,23,-87,-38,35
697,2159,1,-423,-4654,23,-87,-38,34
698,2159,2,-421,-4654,23,-87,-38,34
699,2160,1,-422,-4655,23,-87,-38,34
700,2160,0,-421,-4655,23,-87,-39,34
701,2160,0,-422,-4654,23,-87,-38,34
702,2160,0,-423,-4655,23,-87,-38,34
703,2160,1,-424,-4655,23,-87,-38,34
704,2160,1,-424,-4654,23,-87,-38,34
705,2161,1,-425,-4655,23,-87,-39,35
706,2161,1,-425,-4656,23,-87,-39,34
707,2161,2,-425,-4658,23,-87,-38,34
708,2161,2,-426,-4658,23,-88,-38,34
709,2161,2,-424,-4659,23,-88,-38,34
710,2160,2,-422,-4658,23,-88,-38,34
711,2160,3,-421,-4656,23,-87,-38,34
712,2160,3,-421,-4654,23,-87,-38,34
713,2159,2,-423,-4655,23,-88,-39,35
714,2158,2,-422,-4654,23,-88,-38,35
715,2158,2,-423,-4654,23,-87,-38,35
716,2159,2,-423,-4654,23,-87,-37,35
717,2160,3,-425,-4652,23,-87,-37,35
718,2160,2,-423,-4653,23,-88,-38,35
719,2159,2,-425,-4654,23,-87,-38,35
720,2158,3,-424,-4654,23,-87,-38,34
721,2157,2,-425,-4654,23,-87,-38,34
722,2159,2,-425,-4654,23,-87,-38,34
723,2159,1,-423,-4653,23,-87,-38,34
724,2159,0,-424,-4654,23,-87,-38,35
725,2159,0,-424,-4654,23,-87,-38,34
726,2160,0,-425,-4656,23,-87,-38,34
727,2160,-1,-425,-4656,23,-87,-38,34
728,2161,0,-425,-4656,23,-87,-38,34
729,2160,-1,-423,-4656,23,-86,-38,34
730,2159,1,-423,-4653,23,-86,-38,34
731,2158,1,-423,-4652,23,-86,-38,34
732,2159,2,-423,-4652,23,-87,-39,34
733,2158,2,-425,-4654,23,-87,-39,34
734,2158,0,-424,-4655,23,-87,-38,34
735,2159,0,-424,-4657,23,-87,-39,34
736,2158,0,-423,-4655,23,-87,-39,34
737,2159,0,-424,-4655,23,-88,-38,34
738,2158,1,-424,-4656,23,-88,-38,34
739,2158,1,-425,-4655,23,-88,-38,35
740,2159,2,-424,-4654,23,-87,-39,35
741,2159,2,-425,-4654,23,-87,-38,35
742,2159,1,-426,-4657,23,-87,-39,35
743,2158,0,-428,-4657,23,-87,-38,35
744,2158,1,-428,-4657,23,-87,-38,35
745,2158,2,-427,-4657,23,-87,-38,35
746,2158,2,-426,-4656,23,-87,-38,35
747,2157,1,-424,-4653,23,-88,-38,35
748,2159,0,-425,-4653,23,-88,-38,35
749,2158,1,-426,-4653,23,-87,-38,35
750,2158,1,-426,-4652,23,-87,-38,35
751,2159,0,-423,-4652,23,-87,-38,35
752,2158,0,-422,-4651,23,-87,-38,35
753,2159,0,-424,-4653,23,-88,-38,35
754,2160,0,-423,-4653,23,-88,-38,35
755,2160,-1,-424,-4653,23,-88,-39,34
756,2160,-2,-424,-4654,23,-88,-39,35
757,2160,-1,-423,-4656,23,-88,-38,35
758,2160,0,-423,-4655,23,-88,-38,35
759,2160,1,-424,-4655,23,-87,-38,35
760,2160,1,-422,-4655,23,-88,-38,35
761,2160,1,-422,-4656,23,-87,-38,35
762,2159,0,-422,-4656,23,-87,-37,34
763,2159,2,-422,-4657,23,-87,-38,34
764,2159,2,-423,-4657,23,-88,-38,34
765,2160,3,-423,-4658,23,-88,-38,35
766,2159,2,-424,-4657,23,-87,-38,34
767,2159,3,-425,-4657,23,-87,-38,34
768,2159,3,-425,-4656,23,-88,-38,34
769,2160,2,-426,-4654,23,-87,-37,34
770,2161,1,-427,-4654,23,-88,-37,34
771,2161,1,-427,-4654,23,-88,-37,34
772,2160,1,-426,-4655,23,-87,-38,35
773,2160,0,-425,-4656,23,-87,-38,35
774,2159,0,-423,-4654,23,-87,-38,35
775,2159,-1,-422,-4655,23,-87,-38,35
776,2159,0,-425,-4654,23,-87,-38,35
777,2159,0,-424,-4655,23,-87,-38,35
778,2159,-1,-423,-4656,23,-87,-38,35
779,2159,-1,-425,-4654,23,-87,-38,35
780,2159,0,-425,-4655,23,-87,-38,34
781,2158,1,-425,-4655,23,-87,-38,35
782,2159,1,-426,-4654,23,-87,-38,35
783,2159,2,-423,-4653,23,-87,-38,35
784,2160,2,-423,-4653,23,-86,-38,34
785,2159,2,-423,-4653,23,-86,-38,35
786,2159,0,-424,-4652,23,-86,-39,35
787,2159,1,-424,-4653,23,-87,-38,34
788,2159,2,-425,-4654,23,-87,-38,34
789,2160,1,-425,-4654,23,-87,-38,35
790,2160,0,-426,-4655,23,-87,-38,35
791,2159,0,-426,-4654,23,-87,-38,35
792,2159,1,-425,-4653,23,-87,-38,34
793,2161,2,-423,-4654,23,-86,-39,34
794,2161,1,-423,-4654,23,-86,-39,34
795,2160,1,-423,-4654,23,-87,-39,34
796,2158,1,-423,-4655,23,-87,-39,34
797,2159,2,-424,-4654,23,-87,-38,34
798,2159,2,-424,-4656,23,-87,-38,34
799,2160,3,-423,-4657,23,-87,-38,34
800,2159,2,-424,-4657,23,-87,-38,34
801,2158,1,-424,-4657,23,-86,-38,34
802,2159,0,-424,-4657,23,-86,-38,34
803,2160,0,-426,-4659,23,-87,-38,34
804,2161,0,-426,-4658,23,-87,-38,34
805,2161,0,-426,-4656,23,-87,-39,34
806,2161,1,-425,-4657,23,-87,-39,34
807,2161,1,-425,-4655,23,-87,-39,34
808,2160,1,-426,-4654,23,-87,-38,34
809,2161,2,-426,-4656,23,-87,-38,34
810,2160,1,-427,-4655,23,-87,-38,34
811,2159,2,-425,-4654,23,-87,-39,34
812,2159,2,-425,-4655,23,-87,-39,34
813,2160,2,-425,-4655,23,-87,-39,34
814,2159,1,-426,-4656,23,-87,-38,34
815,2158,1,-427,-4654,23,-87,-39,35
816,2159,2,-428,-4653,23,-87,-39,34
817,2159,1,-424,-4653,23,-87,-39,34
818,2160,0,-423,-4652,23,-87,-39,34
819,2159,1,-422,-4651,23,-88,-39,34
820,2160,1,-423,-4650,23,-87,-39,35
821,2160,2,-424,-4652,23,-87,-39,34
822,2161,1,-424,-4651,23,-88,-38,34
823,2160,1,-422,-4652,23,-87,-39,35
824,2160,1,-421,-4652,23,-87,-39,35
825,2161,1,-423,-4654,23,-87,-39,35
826,2160,0,-425,-4655,23,-88,-38,35
827,2160,0,-423,-4654,23,-88,-38,35
828,2160,0,-425,-4656,23,-88,-38,35
829,2159,0,-426,-4657,23,-88,-38,35
830,2159,1,-426,-4657,23,-88,-39,35
831,2160,2,-425,-4657,23,-88,-39,35
832,2159,2,-424,-4659,23,-87,-39,35
833,2159,1,-426,-4656,23,-88,-38,34
834,2157,-1,-425,-4657,23,-87,-39,34
835,2157,1,-423,-4657,23,-87,-38,34
836,2158,-1,-426,-4656,23,-87,-39,35
837,2158,-1,-425,-4655,23,-87,-39,34
838,2159,0,-425,-4655,23,-87,-39,34
839,2159,-1,-425,-4656,23,-87,-39,34
840,2158,1,-425,-4654,23,-87,-39,34
841,2158,1,-425,-4653,23,-87,-39,34
842,2159,1,-424,-4653,23,-88,-39,34
843,2159,1,-424,-4650,23,-88,-39,34
844,2159,0,-425,-4651,23,-88,-40,34
845,2160,0,-422,-4651,23,-88,-39,33
846,2160,1,-423,-4652,23,-87,-39,34
847,2160,1,-424,-4650,23,-87,-39,34
848,2158,1,-425,-4651,23,-87,-39,34
849,2160,0,-427,-4652,23,-87,-39,34
850,2160,1,-428,-4652,23,-87,-39,34
851,2158,1,-426,-4654,23,-87,-38,34
852,2157,2,-427,-4655,23,-87,-38,35
853,2157,3,-426,-4655,23,-87,-38,35
854,2157,3,-428,-4655,23,-87,-38,35
855,2157,3,-427,-4654,23,-87,-38,35
856,2157,2,-426,-4655,23,-87,-39,35
857,2158,1,-426,-4655,23,-87,-39,35
858,2159,0,-427,-4656,23,-87,-38,35
859,2159,-1,-426,-4656,23,-87,-38,35
860,2159,-1,-426,-4655,23,-86,-37,35
861,2159,-1,-424,-4654,23,-86,-38,35
862,2158,0,-426,-4653,23,-87,-38,34
863,2158,0,-425,-4653,23,-87,-38,34
864,2157,0,-426,-4654,23,-87,-39,34
865,2158,0,-425,-4654,23,-87,-38,34
866,2158,0,-424,-4653,23,-88,-39,34
867,2159,0,-424,-4653,23,-87,-39,34
868,2159,0,-424,-4652,23,-88,-38,34
869,2159,1,-424,-4653,23,-88,-38,34
870,2158,1,-425,-4654,23,-88,-38,34
871,2158,1,-425,-4653,23,-88,-38,34
872,2158,2,-424,-4652,23,-88,-38,34
873,2158,3,-424,-4651,23,-87,-38,34
874,2159,1,-423,-4651,23,-87,-39,34
875,2159,2,-425,-4651,23,-87,-39,34
876,2160,1,-423,-4649,23,-87,-38,34
877,2158,1,-424,-4649,23,-87,-38,35
878,2160,2,-425,-4650,23,-87,-38,35
879,2160,1,-425,-4650,23,-87,-38,35
880,2159,-1,-425,-4651,23,-87,-38,35
881,2160,0,-424,-4652,23,-87,-38,35
882,2160,0,-423,-4653,23,-87,-39,34
883,2160,1,-424,-4653,23,-87,-39,34
884,2161,2,-424,-4653,23,-88,-39,35
885,2161,1,-423,-4652,23,-87,-38,34
886,2160,1,-424,-4651,23,-87,-39,35
887,2160,2,-424,-4652,23,-86,-39,35
888,2160,1,-425,-4652,23,-86,-39,34
889,2159,1,-423,-4653,23,-86,-38,34
890,2158,1,-424,-4652,23,-86,-38,34
891,2159,1,-423,-4652,23,-86,-39,34
892,2159,0,-425,-4653,23,-86,-39,35
893,2159,-1,-426,-4655,23,-87,-39,35
894,2158,-1,-426,-4653,23,-86,-38,35
895,2158,-2,-428,-4652,23,-87,-39,35
896,2158,-1,-427,-4652,23,-87,-38,35
897,2158,-1,-426,-4652,23,-87,-38,35
898,2159,-1,-426,-4651,23,-87,-37,35
899,2159,0,-427,-4651,23,-87,-37,36
900,2161,0,-426,-4650,23,-87,-38,35
901,2160,-1,-426,-4651,23,-87,-38,35
902,2160,0,-426,-4652,23,-87,-38,35
903,2159,0,-426,-4652,23,-87,-38,35
904,2160,1,-426,-4653,23,-87,-38,35
905,2160,1,-427,-4652,23,-87,-37,35
906,2161,0,-426,-4653,23,-87,-38,35
907,2161,-1,-427,-4654,23,-87,-38,35
908,2160,1,-424,-4654,23,-87,-39,35
909,2160,0,-423,-4654,23,-86,-38,34
910,2159,1,-424,-4653,23,-87,-38,35
911,2160,0,-425,-4653,23,-87,-38,34
912,2159,0,-425,-4652,23,-87,-38,34
913,2159,1,-426,-4652,23,-87,-38,34
914,2159,2,-427,-4650,23,-87,-38,34
915,2159,1,-425,-4650,23,-86,-39,35
916,2158,1,-428,-4652,23,-87,-39,35
917,2159,2,-427,-4652,23,-87,-39,35
918,2159,3,-426,-4653,23,-87,-38,34
919,2158,3,-427,-4651,23,-88,-38,35
920,2159,2,-424,-4653,23,-88,-37,34
921,2158,2,-427,-4654,23,-88,-38,34
922,2157,2,-427,-4655,23,-88,-38,35
923,2157,1,-426,-4654,23,-88,-38,35
924,2159,2,-425,-4654,23,-88,-38,34
925,2159,1,-424,-4653,23,-88,-38,34
926,2159,2,-423,-4653,23,-88,-38,34
927,2159,3,-420,-4653,23,-87,-38,34
928,2159,3,-421,-4654,23,-87,-39,34
929,2159,1,-421,-4654,23,-87,-38,35
930,2159,1,-422,-4656,23,-87,-38,35
931,2159,1,-420,-4655,23,-87,-39,35
932,2159,1,-422,-4654,23,-87,-39,34
933,2159,1,-424,-4655,23,-87,-39,34
934,2159,3,-426,-4655,23,-87,-39,34
935,2159,3,-427,-4655,23,-87,-39,34
936,2159,2,-427,-4655,23,-87,-39,34
937,2160,0,-425,-4654,23,-87,-39,34
938,2160,1,-425,-4654,23,-86,-38,34
939,2160,0,-426,-4654,23,-87,-38,34
940,2160,1,-426,-4654,23,-87,-38,34
941,2159,1,-425,-4654,23,-87,-37,34
942,2159,2,-425,-4654,23,-87,-37,34
943,2160,2,-424,-4654,23,-87,-37,34
944,2159,4,-425,-4653,23,-87,-37,34
945,2159,3,-426,-4655,23,-86,-37,34
946,2161,4,-425,-4656,23,-86,-37,34
947,2160,3,-424,-4654,23,-86,-37,34
948,2161,4,-425,-4654,23,-87,-37,35
949,2160,3,-423,-4655,23,-87,-37,35
950,2160,2,-423,-4654,23,-87,-37,35
951,2159,2,-424,-4654,23,-87,-37,34
952,2159,2,-426,-4652,23,-88,-37,35
953,2159,1,-426,-4652,23,-88,-37,34
954,2159,1,-425,-4651,23,-88,-37,34
955,2159,1,-424,-4651,23,-87,-37,34
956,2159,0,-423,-4652,23,-88,-38,34
957,2158,1,-423,-4653,23,-88,-38,34
958,2158,1,-423,-4653,23,-88,-38,34
959,2158,1,-423,-4651,23,-87,-38,35
960,2159,1,-425,-4651,23,-87,-38,35
961,2160,1,-424,-4653,23,-87,-38,35
962,2160,1,-424,-4651,23,-87,-38,35
963,2160,1,-426,-4649,23,-87,-38,34
964,2159,1,-426,-4650,23,-87,-38,34
965,2160,2,-426,-4650,23,-87,-37,35
966,2160,2,-426,-4652,23,-87,-37,34
967,2160,3,-424,-4652,23,-87,-37,34
968,2161,2,-425,-4653,23,-87,-37,34
969,2161,2,-423,-4651,23,-87,-37,34
970,2160,3,-424,-4652,23,-87,-38,34
971,2161,3,-423,-4652,23,-86,-37,33
972,2160,4,-423,-4652,23,-87,-38,34
973,2160,4,-423,-4652,23,-87,-38,34
974,2160,4,-422,-4653,23,-87,-38,34
975,2160,3,-423,-4650,23,-86,-37,34
976,2159,2,-423,-4650,23,-86,-37,35
977,2159,2,-423,-4649,23,-86,-37,35
978,2159,0,-424,-4649,23,-87,-37,35
979,2159,0,-424,-4648,23,-87,-37,35
980,2160,1,-425,-4650,23,-87,-38,34
981,2160,1,-425,-4651,23,-87,-37,34
982,2159,1,-425,-4653,23,-87,-38,34
983,2158,2,-426,-4652,23,-87,-38,34
984,2159,1,-425,-4651,23,-87,-38,35
985,2159,1,-426,-4650,23,-87,-38,34
986,2160,2,-425,-4651,23,-87,-37,35
987,2160,2,-424,-4650,23,-87,-37,35
988,2158,2,-424,-4648,23,-87,-37,35
989,2158,0,-425,-4649,23,-86,-37,35
990,2159,0,-425,-4649,23,-87,-39,35
991,2159,1,-425,-4650,23,-87,-38,34
992,2159,0,-424,-4652,23,-87,-38,35
993,2157,0,-423,-4652,23,-87,-39,34
994,2158,0,-423,-4652,23,-87,-38,34
995,2159,0,-423,-4652,23,-87,-38,34
996,2158,0,-425,-4653,23,-87,-39,34
997,2159,1,-425,-4653,23,-87,-39,35
998,2159,1,-426,-4652,23,-87,-39,35
