,acc_X,acc_Y,acc_Z,temp,tempC,gyr_X,gyr_Y,gyr_Z
0,2158,1,-432,-4813,22,-87,-38,34
1,2158,1,-432,-4813,22,-87,-38,34
2,2159,0,-432,-4812,22,-86,-37,34
3,2160,0,-432,-4810,22,-86,-38,34
4,2160,1,-432,-4812,22,-86,-38,34
5,2159,-1,-432,-4813,22,-86,-38,34
6,2159,1,-430,-4811,22,-86,-38,34
7,2160,1,-432,-4810,22,-86,-37,34
8,2161,0,-431,-4810,22,-86,-37,34
9,2161,0,-431,-4808,22,-86,-37,35
10,2161,0,-428,-4808,22,-87,-37,35
11,2160,1,-428,-4808,22,-87,-37,34
12,2160,2,-426,-4809,22,-86,-37,34
13,2159,2,-426,-4808,22,-86,-38,35
14,2159,1,-427,-4806,22,-86,-38,34
15,2159,2,-427,-4806,22,-87,-38,35
16,2160,1,-426,-4806,22,-87,-38,35
17,2160,1,-428,-4808,22,-88,-38,34
18,2158,1,-428,-4807,22,-88,-39,34
19,2159,1,-427,-4808,22,-88,-38,34
20,2159,1,-428,-4807,22,-87,-38,34
21,2159,1,-428,-4807,22,-87,-38,34
22,2159,2,-428,-4807,22,-87,-38,34
23,2160,1,-429,-4806,22,-86,-38,35
24,2160,1,-427,-4805,22,-86,-38,35
25,2160,1,-426,-4804,22,-86,-38,35
26,2160,0,-425,-4804,22,-86,-38,35
27,2160,0,-425,-4803,22,-86,-38,35
28,2159,1,-425,-4802,22,-86,-38,35
29,2160,1,-426,-4800,22,-86,-38,35
30,2159,1,-427,-4802,22,-86,-38,35
31,2159,1,-430,-4802,22,-87,-38,34
32,2158,1,-431,-4799,22,-86,-38,35
33,2158,2,-431,-4798,22,-87,-38,34
34,2158,3,-432,-4800,22,-87,-38,34
35,2158,2,-429,-4800,22,-86,-38,34
36,2159,1,-430,-4801,22,-87,-38,34
37,2158,1,-430,-4800,22,-86,-38,34
38,2159,-1,-429,-4800,22,-86,-38,34
39,2158,-1,-428,-4801,22,-86,-38,34
40,2158,-1,-427,-4799,22,-86,-38,35
41,2158,0,-427,-4798,22,-87,-39,35
42,2159,0,-429,-4798,22,-87,-38,35
43,2159,0,-430,-4797,22,-87,-39,35
44,2160,0,-431,-4796,22,-87,-38,35
45,2159,1,-429,-4796,22,-87,-38,35
46,2159,1,-430,-4796,22,-87,-38,34
47,2158,1,-430,-4795,22,-87,-38,35
48,2158,0,-428,-4797,22,-87,-38,35
49,2158,-1,-429,-4796,22,-87,-38,35
50,2158,0,-430,-4796,22,-87,-38,35
51,2159,-1,-429,-4794,22,-86,-39,35
52,2159,1,-430,-4794,22,-86,-39,35
53,2159,3,-430,-4793,22,-86,-38,35
54,2159,2,-428,-4794,22,-86,-38,34
55,2159,3,-430,-4793,22,-86,-38,35
56,2158,2,-431,-4796,22,-86,-38,35
57,2157,2,-430,-4795,22,-86,-38,35
58,2157,3,-428,-4794,22,-86,-37,35
59,2156,2,-429,-4793,22,-86,-37,34
60,2158,1,-429,-4792,22,-86,-38,34
61,2157,1,-430,-4792,22,-86,-37,34
62,2157,1,-428,-4790,22,-86,-38,35
63,2157,-1,-429,-4790,22,-86,-38,34
64,2158,0,-429,-4789,22,-86,-38,34
65,2158,0,-429,-4790,22,-86,-38,35
66,2157,1,-430,-4788,22,-86,-37,35
67,2158,0,-430,-4788,22,-86,-37,35
68,2158,0,-428,-4789,22,-86,-38,35
69,2159,-1,-429,-4790,22,-87,-38,35
70,2158,0,-428,-4790,22,-87,-38,35
71,2159,-1,-427,-4789,22,-87,-38,35
72,2158,-2,-427,-4788,22,-86,-37,35
73,2157,-1,-428,-4788,22,-86,-37,35
74,2157,0,-428,-4788,22,-86,-37,35
75,2157,1,-428,-4787,22,-86,-38,35
76,2157,0,-427,-4787,22,-86,-38,35
77,2157,1,-427,-4787,22,-87,-38,35
78,2157,1,-428,-4787,22,-87,-38,35
79,2158,1,-427,-4785,22,-86,-38,35
80,2158,1,-427,-4785,22,-86,-38,35
81,2156,1,-428,-4786,22,-86,-38,35
82,2158,1,-427,-4785,22,-87,-38,35
83,2159,1,-428,-4786,22,-87,-38,35
84,2159,0,-430,-4785,22,-87,-38,34
85,2159,0,-431,-4784,22,-87,-38,34
86,2157,1,-430,-4783,22,-87,-38,33
87,2158,3,-429,-4785,22,-86,-38,33
88,2159,3,-429,-4783,22,-87,-38,34
89,2161,3,-428,-4784,22,-87,-38,34
90,2160,3,-428,-4785,22,-86,-39,34
91,2159,3,-428,-4785,22,-86,-39,34
92,2159,3,-427,-4785,22,-86,-40,34
93,2159,3,-427,-4786,22,-87,-39,34
94,2159,2,-427,-4786,22,-87,-39,34
95,2158,2,-429,-4784,22,-87,-38,35
96,2158,1,-429,-4783,22,-87,-38,35
97,2158,3,-429,-4784,22,-87,-38,35
98,2158,2,-431,-4783,22,-86,-39,35
99,2158,2,-432,-4785,22,-87,-39,34
100,2158,3,-431,-4784,22,-87,-38,34
101,2159,2,-431,-4784,22,-86,-38,34
102,2159,2,-430,-4783,22,-87,-38,34
103,2159,1,-432,-4782,22,-87,-38,35
104,2158,2,-431,-4783,22,-86,-38,35
105,2159,2,-431,-4782,22,-87,-39,35
106,2159,1,-430,-4782,22,-87,-39,35
107,2159,2,-429,-4782,22,-87,-38,35
108,2158,3,-427,-4779,22,-87,-38,35
109,2158,3,-428,-4780,22,-86,-38,34
110,2158,2,-429,-4779,22,-86,-38,34
111,2159,2,-429,-4779,22,-87,-38,34
112,2160,3,-428,-4778,22,-87,-38,35
113,2159,3,-426,-4777,22,-87,-38,35
114,2159,4,-424,-4780,22,-87,-38,35
115,2159,3,-425,-4782,22,-87,-39,35
116,2160,2,-426,-4781,22,-87,-38,35
117,2158,2,-427,-4782,22,-87,-39,34
118,2160,1,-428,-4781,22,-87,-39,35
119,2159,1,-426,-4781,22,-87,-38,34
120,2159,0,-426,-4781,22,-87,-38,35
121,2159,0,-425,-4783,22,-87,-38,35
122,2159,1,-428,-4782,22,-87,-39,35
123,2157,0,-429,-4780,22,-86,-39,34
124,2158,0,-428,-4781,22,-86,-39,35
125,2159,0,-430,-4779,22,-87,-38,34
126,2158,0,-431,-4778,22,-86,-38,35
127,2159,1,-430,-4778,22,-87,-38,35
128,2159,1,-430,-4780,22,-87,-38,35
129,2159,2,-430,-4778,22,-87,-38,35
130,2160,1,-430,-4778,22,-86,-38,34
131,2158,1,-429,-4778,22,-86,-38,34
132,2158,1,-429,-4776,22,-86,-38,33
133,2158,0,-428,-4776,22,-86,-38,34
134,2158,0,-428,-4775,22,-87,-38,34
135,2158,0,-428,-4776,22,-87,-38,34
136,2158,1,-428,-4775,22,-88,-37,34
137,2157,1,-428,-4774,22,-87,-38,33
138,2158,-1,-427,-4774,22,-87,-38,34
139,2159,-1,-426,-4774,22,-87,-37,34
140,2159,-1,-426,-4773,22,-87,-38,34
141,2159,0,-427,-4774,22,-87,-38,35
142,2158,0,-427,-4774,22,-88,-38,34
143,2158,0,-426,-4773,22,-87,-39,34
144,2157,1,-426,-4772,22,-88,-39,35
145,2157,1,-425,-4772,22,-87,-39,34
146,2158,0,-425,-4772,22,-87,-39,34
147,2157,1,-425,-4769,22,-87,-39,34
148,2157,1,-427,-4769,22,-86,-38,34
149,2158,1,-427,-4772,22,-87,-38,34
150,2159,3,-426,-4770,22,-87,-38,34
151,2159,2,-427,-4770,22,-86,-38,34
152,2158,2,-427,-4771,22,-86,-38,34
153,2159,2,-426,-4770,22,-86,-37,34
154,2157,2,-427,-4770,22,-87,-37,35
155,2157,1,-427,-4770,22,-87,-38,34
156,2156,1,-430,-4771,22,-87,-38,35
157,2157,0,-430,-4770,22,-87,-38,35
158,2158,1,-430,-4771,22,-87,-37,35
159,2157,1,-429,-4771,22,-87,-37,35
160,2158,0,-430,-4771,22,-87,-37,35
161,2158,1,-430,-4772,22,-87,-37,35
162,2159,2,-430,-4771,22,-87,-38,35
163,2159,1,-431,-4771,22,-87,-37,35
164,2160,2,-431,-4770,22,-87,-36,35
165,2160,2,-431,-4771,22,-87,-38,35
166,2161,2,-432,-4772,22,-86,-38,34
167,2161,3,-432,-4772,22,-87,-38,35
168,2162,2,-431,-4771,22,-86,-38,34
169,2161,3,-429,-4771,22,-86,-38,34
170,2162,2,-429,-4771,22,-86,-38,35
171,2162,1,-428,-4770,22,-85,-38,34
172,2161,1,-429,-4767,22,-86,-38,35
173,2160,2,-429,-4767,22,-86,-39,35
174,2160,3,-428,-4769,22,-86,-38,35
175,2159,2,-430,-4769,22,-86,-38,35
176,2161,2,-428,-4767,22,-86,-38,34
177,2160,2,-426,-4769,22,-86,-39,35
178,2158,1,-427,-4768,22,-87,-38,34
179,2159,1,-428,-4769,22,-87,-39,34
180,2159,0,-430,-4768,22,-87,-38,34
181,2159,1,-429,-4768,22,-87,-38,34
182,2159,2,-428,-4770,22,-87,-38,34
183,2159,1,-428,-4770,22,-87,-38,34
184,2160,2,-429,-4770,22,-87,-38,34
185,2160,1,-429,-4771,22,-87,-38,34
186,2160,2,-429,-4772,22,-87,-38,34
187,2160,3,-428,-4770,22,-86,-38,35
188,2160,2,-428,-4768,22,-87,-38,35
189,2161,2,-430,-4768,22,-87,-38,35
190,2161,2,-429,-4766,22,-86,-38,35
191,2161,2,-428,-4766,22,-87,-38,35
192,2160,2,-428,-4765,22,-87,-38,35
193,2159,1,-427,-4764,22,-87,-37,35
194,2159,1,-428,-4762,22,-87,-38,35
195,2160,2,-429,-4762,22,-87,-37,35
196,2160,2,-429,-4764,22,-86,-38,34
197,2161,2,-428,-4763,22,-87,-38,35
198,2161,1,-428,-4763,22,-87,-39,35
199,2160,2,-429,-4764,22,-87,-38,34
200,2158,2,-429,-4764,22,-87,-38,34
201,2158,2,-428,-4764,22,-87,-37,34
202,2158,1,-427,-4764,22,-87,-38,34
203,2159,0,-427,-4761,22,-87,-38,34
204,2159,-2,-426,-4763,22,-88,-38,34
205,2160,-1,-426,-4760,22,-87,-38,34
206,2160,-1,-428,-4760,22,-87,-37,34
207,2159,-1,-428,-4761,22,-87,-38,34
208,2157,-1,-428,-4761,22,-87,-38,34
209,2156,0,-428,-4761,22,-87,-38,34
210,2157,1,-427,-4763,22,-86,-38,34
211,2158,0,-428,-4762,22,-86,-39,35
212,2158,0,-429,-4761,22,-86,-39,35
213,2159,0,-428,-4760,22,-86,-39,35
214,2160,-1,-428,-4759,23,-86,-38,35
215,2157,0,-428,-4759,23,-86,-38,35
216,2156,2,-429,-4760,22,-86,-38,35
217,2156,1,-429,-4758,23,-86,-38,35
218,2157,0,-427,-4760,22,-86,-37,35
219,2158,-1,-427,-4761,22,-86,-37,34
220,2157,-1,-429,-4760,22,-87,-37,35
221,2158,-2,-427,-4760,22,-86,-37,35
222,2158,-1,-429,-4761,22,-87,-37,34
223,2158,-1,-428,-4763,22,-87,-37,34
224,2158,1,-428,-4762,22,-86,-37,34
225,2158,1,-426,-4761,22,-87,-38,34
226,2158,2,-427,-4761,22,-86,-38,34
227,2159,1,-427,-4762,22,-87,-38,33
228,2161,1,-428,-4762,22,-87,-39,34
229,2161,0,-429,-4762,22,-86,-39,34
230,2160,0,-430,-4760,22,-86,-38,34
231,2158,0,-431,-4760,22,-86,-38,34
232,2158,0,-431,-4760,22,-87,-39,34
233,2158,0,-430,-4760,22,-86,-38,35
234,2158,0,-430,-4760,22,-86,-38,35
235,2157,0,-430,-4759,23,-86,-39,34
236,2158,0,-429,-4759,23,-86,-38,34
237,2159,0,-429,-4759,23,-86,-38,34
238,2159,0,-429,-4761,22,-87,-38,33
239,2159,1,-427,-4757,23,-87,-38,34
240,2160,1,-427,-4756,23,-87,-38,34
241,2160,1,-425,-4756,23,-86,-38,35
242,2160,2,-427,-4757,23,-86,-38,34
243,2161,2,-428,-4757,23,-86,-39,34
244,2160,1,-426,-4756,23,-87,-38,35
245,2160,1,-427,-4758,23,-87,-38,35
246,2160,1,-428,-4758,23,-87,-37,35
247,2161,0,-429,-4756,23,-87,-37,35
248,2160,0,-429,-4756,23,-87,-38,35
249,2160,0,-427,-4756,23,-87,-38,35
250,2159,1,-427,-4757,23,-87,-38,35
251,2159,0,-427,-4757,23,-87,-39,35
252,2159,2,-426,-4756,23,-87,-39,36
253,2158,3,-425,-4755,23,-87,-39,35
254,2158,2,-425,-4756,23,-87,-38,35
255,2157,2,-425,-4758,23,-87,-38,35
256,2158,2,-428,-4759,23,-87,-38,35
257,2158,2,-428,-4757,23,-86,-38,35
258,2159,2,-429,-4757,23,-87,-38,35
259,2160,2,-429,-4757,23,-88,-38,34
260,2160,2,-430,-4756,23,-88,-38,35
261,2160,1,-428,-4756,23,-87,-38,34
262,2160,1,-426,-4756,23,-87,-38,34
263,2160,0,-426,-4757,23,-87,-37,34
264,2160,1,-427,-4758,23,-87,-37,34
265,2159,2,-427,-4756,23,-86,-37,34
266,2158,3,-427,-4755,23,-87,-38,34
267,2158,2,-429,-4755,23,-87,-38,34
268,2159,2,-430,-4755,23,-86,-38,34
269,2159,1,-430,-4754,23,-87,-38,34
270,2158,1,-431,-4755,23,-87,-38,34
271,2158,1,-432,-4755,23,-87,-38,35
272,2158,0,-431,-4755,23,-87,-39,35
273,2158,1,-431,-4756,23,-87,-39,35
274,2157,0,-428,-4757,23,-87,-39,34
275,2156,1,-429,-4756,23,-86,-39,34
276,2157,1,-429,-4754,23,-86,-39,34
277,2159,3,-429,-4755,23,-86,-39,34
278,2158,2,-430,-4757,23,-86,-39,34
279,2158,3,-430,-4756,23,-85,-38,34
280,2158,3,-429,-4757,23,-86,-38,34
281,2158,3,-432,-4757,23,-86,-39,34
282,2158,2,-430,-4759,23,-87,-38,34
283,2158,2,-431,-4759,23,-86,-38,35
284,2158,2,-431,-4756,23,-86,-37,35
285,2158,2,-430,-4757,23,-87,-37,35
286,2158,2,-429,-4757,23,-87,-37,34
287,2159,2,-427,-4754,23,-87,-37,34
288,2158,2,-427,-4755,23,-87,-37,34
289,2158,2,-428,-4753,23,-88,-37,34
290,2158,3,-427,-4753,23,-88,-37,34
291,2158,3,-428,-4753,23,-87,-37,34
292,2158,3,-428,-4753,23,-88,-37,35
293,2159,2,-428,-4753,23,-87,-37,35
294,2158,3,-428,-4755,23,-87,-37,35
295,2157,3,-428,-4755,23,-87,-38,35
296,2157,3,-429,-4755,23,-87,-37,35
297,2157,2,-429,-4754,23,-87,-38,35
298,2156,2,-430,-4755,23,-87,-38,35
299,2158,1,-430,-4754,23,-87,-38,35
300,2158,1,-431,-4754,23,-87,-38,35
301,2158,0,-430,-4753,23,-88,-38,35
302,2158,0,-429,-4754,23,-87,-38,35
303,2158,1,-430,-4754,23,-87,-37,35
304,2159,1,-430,-4756,23,-86,-37,35
305,2159,1,-427,-4753,23,-87,-37,35
306,2159,1,-429,-4754,23,-86,-38,35
307,2158,1,-429,-4752,23,-86,-38,35
308,2159,1,-430,-4752,23,-86,-38,34
309,2158,0,-428,-4753,23,-85,-38,34
310,2158,1,-428,-4750,23,-86,-38,34
311,2158,1,-429,-4749,23,-86,-38,35
312,2159,2,-429,-4746,23,-86,-38,35
313,2159,2,-431,-4747,23,-86,-38,34
314,2158,2,-431,-4746,23,-86,-38,34
315,2159,2,-430,-4745,23,-86,-38,34
316,2159,1,-430,-4747,23,-86,-38,35
317,2159,1,-429,-4748,23,-86,-38,35
318,2157,1,-430,-4748,23,-86,-38,35
319,2158,1,-429,-4748,23,-86,-38,35
320,2159,1,-430,-4747,23,-86,-38,34
321,2159,1,-430,-4748,23,-86,-38,34
322,2159,1,-429,-4748,23,-86,-38,34
323,2159,1,-430,-4748,23,-86,-38,35
324,2158,1,-431,-4747,23,-86,-39,35
325,2158,1,-431,-4747,23,-86,-38,35
326,2158,0,-432,-4746,23,-86,-38,35
327,2158,1,-431,-4746,23,-86,-38,35
328,2158,1,-430,-4747,23,-86,-38,34
329,2159,1,-428,-4745,23,-85,-38,34
330,2159,1,-430,-4746,23,-86,-37,34
331,2159,2,-429,-4745,23,-86,-38,35
332,2159,1,-428,-4745,23,-86,-38,35
333,2159,2,-427,-4745,23,-86,-38,35
334,2159,2,-427,-4747,23,-86,-38,35
335,2159,3,-429,-4747,23,-86,-38,34
336,2160,3,-427,-4747,23,-85,-38,34
337,2160,2,-428,-4748,23,-85,-38,35
338,2158,2,-430,-4748,23,-85,-38,35
339,2159,2,-429,-4750,23,-86,-38,35
340,2158,2,-429,-4750,23,-86,-38,35
341,2158,1,-428,-4749,23,-86,-38,35
342,2157,0,-428,-4748,23,-86,-38,35
343,2157,0,-429,-4749,23,-86,-38,35
344,2159,0,-431,-4749,23,-86,-37,35
345,2158,0,-431,-4748,23,-86,-37,34
346,2158,1,-430,-4747,23,-86,-37,35
347,2158,0,-428,-4746,23,-86,-37,35
348,2159,0,-430,-4747,23,-86,-37,35
349,2159,0,-429,-4745,23,-86,-37,35
350,2157,0,-428,-4746,23,-86,-37,35
351,2158,1,-428,-4747,23,-85,-37,34
352,2157,1,-427,-4746,23,-86,-38,34
353,2157,0,-427,-4749,23,-86,-38,35
354,2156,-1,-428,-4752,23,-86,-38,35
355,2156,0,-429,-4750,23,-86,-38,35
356,2157,0,-430,-4750,23,-86,-38,35
357,2157,0,-431,-4751,23,-86,-38,34
358,2156,0,-431,-4750,23,-86,-38,34
359,2157,0,-431,-4748,23,-86,-38,34
360,2159,0,-429,-4747,23,-86,-38,33
361,2160,1,-428,-4747,23,-85,-38,33
362,2160,1,-429,-4747,23,-85,-39,34
363,2160,2,-430,-4748,23,-86,-38,33
364,2161,3,-430,-4747,23,-86,-38,34
365,2161,3,-431,-4748,23,-87,-38,34
366,2159,3,-431,-4745,23,-87,-38,34
367,2158,3,-431,-4745,23,-87,-38,34
368,2159,3,-430,-4746,23,-86,-38,35
369,2159,2,-430,-4745,23,-86,-37,34
370,2159,2,-429,-4745,23,-86,-36,34
371,2158,1,-429,-4744,23,-86,-37,34
372,2158,0,-429,-4745,23,-86,-37,34
373,2157,0,-431,-4742,23,-87,-37,34
374,2157,1,-430,-4743,23,-87,-37,34
375,2156,1,-430,-4743,23,-87,-37,34
376,2157,1,-431,-4742,23,-87,-37,34
377,2158,1,-429,-4742,23,-86,-38,35
378,2159,3,-428,-4743,23,-86,-38,35
379,2158,2,-427,-4745,23,-87,-38,35
380,2159,3,-427,-4746,23,-87,-38,35
381,2159,3,-429,-4746,23,-87,-38,34
382,2158,3,-429,-4746,23,-87,-38,34
383,2159,3,-428,-4746,23,-86,-37,34
384,2159,3,-429,-4744,23,-87,-38,34
385,2160,2,-429,-4744,23,-87,-38,34
386,2160,2,-428,-4743,23,-87,-38,34
387,2159,2,-430,-4743,23,-86,-38,34
388,2159,3,-431,-4742,23,-86,-37,33
389,2160,3,-430,-4741,23,-86,-38,34
390,2160,3,-429,-4740,23,-86,-38,34
391,2160,3,-429,-4740,23,-87,-38,34
392,2159,3,-429,-4740,23,-87,-38,34
393,2160,2,-430,-4742,23,-87,-38,34
394,2160,2,-430,-4742,23,-87,-38,34
395,2160,0,-430,-4744,23,-87,-38,35
396,2161,-1,-430,-4744,23,-87,-38,35
397,2160,-1,-431,-4743,23,-87,-38,35
398,2159,-2,-431,-4743,23,-86,-38,35
399,2158,-2,-431,-4741,23,-86,-38,34
400,2158,-2,-431,-4741,23,-87,-38,34
401,2158,0,-431,-4742,23,-87,-38,34
402,2158,0,-432,-4740,23,-87,-38,34
403,2158,1,-430,-4739,23,-87,-38,34
404,2158,1,-428,-4739,23,-86,-39,34
405,2157,0,-429,-4740,23,-87,-39,34
406,2158,0,-431,-4739,23,-87,-39,35
407,2158,1,-431,-4739,23,-87,-39,34
408,2157,0,-430,-4741,23,-86,-39,35
409,2158,1,-428,-4741,23,-87,-38,35
410,2158,1,-428,-4742,23,-87,-37,35
411,2157,2,-430,-4740,23,-87,-38,36
412,2157,2,-431,-4741,23,-87,-38,35
413,2156,1,-429,-4744,23,-86,-38,34
414,2158,2,-429,-4745,23,-86,-38,34
415,2159,3,-428,-4745,23,-86,-38,35
416,2159,3,-427,-4745,23,-86,-39,35
417,2159,2,-427,-4746,23,-86,-38,35
418,2158,2,-428,-4745,23,-86,-38,34
419,2158,2,-428,-4745,23,-87,-38,34
420,2159,2,-428,-4746,23,-86,-38,34
421,2158,3,-427,-4745,23,-87,-37,35
422,2159,3,-428,-4744,23,-86,-37,35
423,2158,3,-429,-4744,23,-86,-37,35
424,2158,2,-428,-4744,23,-86,-37,35
425,2158,2,-429,-4745,23,-85,-37,35
426,2158,1,-429,-4743,23,-86,-38,35
427,2159,1,-429,-4743,23,-87,-38,35
428,2160,0,-427,-4741,23,-87,-38,35
429,2159,0,-428,-4740,23,-87,-38,34
430,2159,0,-428,-4742,23,-86,-38,34
431,2158,0,-429,-4743,23,-87,-39,34
432,2158,0,-430,-4742,23,-86,-39,35
433,2158,0,-431,-4743,23,-87,-39,35
434,2159,-1,-430,-4742,23,-87,-38,35
435,2159,0,-429,-4742,23,-88,-38,34
436,2158,1,-430,-4743,23,-87,-38,35
437,2159,1,-429,-4742,23,-87,-38,35
438,2158,2,-428,-4741,23,-87,-38,35
439,2157,2,-429,-4742,23,-87,-39,36
440,2158,2,-429,-4740,23,-86,-39,35
441,2159,2,-428,-4740,23,-86,-38,35
442,2158,0,-427,-4741,23,-86,-37,35
443,2158,1,-428,-4741,23,-86,-38,35
444,2158,2,-428,-4741,23,-86,-38,35
445,2160,1,-428,-4742,23,-86,-38,35
446,2159,2,-429,-4742,23,-87,-38,35
447,2158,2,-431,-4742,23,-86,-38,35
448,2158,1,-429,-4740,23,-86,-38,35
449,2158,1,-430,-4740,23,-86,-38,35
450,2158,1,-429,-4740,23,-86,-37,36
451,2158,2,-428,-4741,23,-87,-37,36
452,2160,2,-427,-4743,23,-87,-37,35
453,2159,2,-428,-4741,23,-87,-38,35
454,2159,2,-429,-4739,23,-87,-38,35
455,2158,1,-430,-4736,23,-86,-38,35
456,2159,2,-431,-4737,23,-86,-38,35
457,2160,1,-428,-4738,23,-86,-38,35
458,2159,2,-429,-4739,23,-86,-38,34
459,2159,1,-429,-4740,23,-86,-38,35
460,2159,0,-430,-4740,23,-86,-38,35
461,2159,1,-431,-4739,23,-86,-39,34
462,2159,2,-429,-4738,23,-86,-38,35
463,2159,3,-428,-4738,23,-87,-38,35
464,2159,3,-429,-4739,23,-86,-39,35
465,2159,3,-430,-4738,23,-87,-38,35
466,2159,1,-429,-4737,23,-87,-38,34
467,2158,1,-429,-4739,23,-87,-38,34
468,2158,0,-427,-4740,23,-87,-37,35
469,2158,0,-428,-4740,23,-86,-37,34
470,2158,2,-428,-4741,23,-87,-37,35
471,2158,2,-427,-4740,23,-87,-37,35
472,2158,2,-427,-4740,23,-87,-37,35
473,2158,3,-427,-4739,23,-87,-37,35
474,2159,2,-428,-4737,23,-87,-37,35
475,2159,1,-429,-4736,23,-87,-38,34
476,2159,1,-430,-4737,23,-87,-37,34
477,2159,2,-429,-4739,23,-87,-37,35
478,2160,3,-428,-4738,23,-87,-37,35
479,2160,2,-430,-4740,23,-87,-37,35
480,2159,1,-429,-4743,23,-87,-38,35
481,2158,1,-430,-4744,23,-87,-38,35
482,2159,2,-430,-4742,23,-87,-37,34
483,2159,2,-428,-4741,23,-87,-37,35
484,2159,1,-430,-4742,23,-87,-37,35
485,2158,1,-430,-4743,23,-86,-38,35
486,2158,2,-432,-4742,23,-86,-38,35
487,2158,0,-430,-4741,23,-86,-38,35
488,2158,0,-431,-4740,23,-86,-38,35
489,2159,1,-432,-4740,23,-86,-38,35
490,2159,2,-430,-4741,23,-86,-38,35
491,2159,2,-430,-4741,23,-86,-38,35
492,2160,3,-429,-4740,23,-86,-39,35
493,2159,4,-430,-4740,23,-86,-39,35
494,2160,2,-429,-4741,23,-86,-40,35
495,2160,1,-428,-4740,23,-86,-40,34
496,2160,1,-427,-4740,23,-86,-39,35
497,2159,2,-427,-4741,23,-86,-39,35
498,2159,3,-428,-4741,23,-87,-38,35
499,2159,3,-430,-4739,23,-86,-39,34
500,2160,3,-429,-4740,23,-86,-39,34
501,2161,2,-428,-4740,23,-87,-39,34
502,2161,2,-429,-4739,23,-87,-40,35
503,2160,3,-430,-4739,23,-87,-40,35
504,2160,3,-431,-4738,23,-87,-39,35
505,2159,3,-431,-4738,23,-87,-39,35
506,2158,4,-431,-4737,23,-87,-38,35
507,2158,3,-430,-4738,23,-86,-38,35
508,2158,3,-429,-4737,23,-86,-38,35
509,2158,2,-430,-4737,23,-87,-38,35
510,2158,1,-431,-4738,23,-87,-37,35
511,2158,2,-430,-4738,23,-86,-38,35
512,2158,2,-431,-4738,23,-87,-38,35
513,2160,1,-433,-4738,23,-87,-38,35
514,2159,2,-432,-4738,23,-87,-39,35
515,2159,2,-431,-4736,23,-87,-38,35
516,2159,3,-429,-4737,23,-87,-39,35
517,2159,3,-429,-4737,23,-87,-38,35
518,2158,3,-429,-4736,23,-87,-38,36
519,2159,2,-430,-4736,23,-87,-38,35
520,2160,2,-429,-4735,23,-87,-38,35
521,2159,2,-427,-4734,23,-87,-38,35
522,2158,2,-428,-4736,23,-87,-39,36
523,2159,3,-429,-4736,23,-87,-39,36
524,2159,2,-427,-4737,23,-87,-39,35
525,2159,1,-425,-4735,23,-87,-39,35
526,2158,0,-425,-4735,23,-88,-39,35
527,2158,0,-426,-4737,23,-87,-39,34
528,2159,0,-425,-4738,23,-87,-39,34
529,2160,-1,-426,-4738,23,-86,-39,34
530,2159,0,-426,-4738,23,-87,-38,34
531,2159,0,-427,-4737,23,-87,-38,34
532,2158,0,-427,-4737,23,-87,-37,34
533,2158,0,-430,-4737,23,-87,-37,34
534,2157,1,-430,-4736,23,-86,-38,34
535,2157,1,-429,-4735,23,-86,-38,35
536,2158,2,-429,-4735,23,-86,-38,35
537,2158,2,-430,-4735,23,-86,-38,34
538,2158,1,-430,-4736,23,-86,-38,34
539,2160,2,-429,-4735,23,-87,-38,35
540,2159,2,-428,-4736,23,-87,-38,34
541,2159,2,-429,-4737,23,-87,-38,35
542,2159,2,-430,-4735,23,-87,-38,35
543,2159,2,-431,-4735,23,-87,-39,35
544,2158,2,-432,-4736,23,-87,-38,35
545,2159,3,-431,-4735,23,-87,-38,35
546,2159,2,-429,-4734,23,-87,-38,34
547,2159,1,-430,-4735,23,-87,-38,34
548,2159,1,-429,-4735,23,-87,-38,34
549,2159,0,-429,-4737,23,-86,-38,34
550,2160,0,-429,-4739,23,-87,-38,35
551,2159,0,-427,-4739,23,-87,-38,35
552,2161,2,-426,-4737,23,-87,-38,35
553,2161,2,-427,-4737,23,-87,-38,35
554,2160,1,-427,-4735,23,-86,-39,35
555,2160,2,-429,-4736,23,-86,-38,35
556,2161,0,-426,-4736,23,-86,-38,35
557,2161,2,-428,-4736,23,-86,-39,35
558,2161,0,-428,-4736,23,-86,-39,35
559,2162,1,-429,-4735,23,-86,-38,35
560,2161,1,-429,-4734,23,-86,-38,35
561,2160,1,-427,-4733,23,-86,-38,35
562,2160,1,-427,-4732,23,-87,-38,35
563,2160,1,-427,-4731,23,-86,-38,35
564,2160,2,-428,-4731,23,-86,-38,35
565,2161,2,-428,-4733,23,-86,-39,35
566,2160,1,-427,-4734,23,-86,-38,34
567,2160,-1,-425,-4735,23,-86,-39,34
568,2159,0,-424,-4734,23,-86,-38,35
569,2159,0,-425,-4736,23,-86,-38,35
570,2158,0,-425,-4736,23,-87,-38,34
571,2159,0,-426,-4737,23,-86,-38,34
572,2160,1,-426,-4733,23,-86,-38,34
573,2159,1,-426,-4732,23,-86,-38,34
574,2159,0,-429,-4733,23,-87,-38,34
575,2159,0,-429,-4735,23,-87,-38,34
576,2159,1,-428,-4735,23,-86,-38,34
577,2158,1,-430,-4736,23,-87,-38,34
578,2159,2,-428,-4734,23,-87,-38,34
579,2160,0,-427,-4735,23,-87,-38,34
580,2159,0,-428,-4736,23,-86,-39,34
581,2158,1,-425,-4735,23,-87,-38,35
582,2158,1,-425,-4735,23,-86,-38,35
583,2158,1,-425,-4735,23,-86,-38,34
584,2157,2,-427,-4733,23,-86,-39,34
585,2157,2,-428,-4733,23,-86,-38,34
586,2158,2,-427,-4733,23,-86,-38,34
587,2157,3,-428,-4734,23,-86,-38,35
588,2158,3,-429,-4733,23,-86,-37,34
589,2158,3,-430,-4734,23,-86,-38,35
590,2159,3,-430,-4733,23,-87,-38,35
591,2159,2,-431,-4732,23,-87,-37,35
592,2158,2,-432,-4732,23,-87,-38,35
593,2159,2,-432,-4733,23,-86,-38,35
594,2158,2,-430,-4733,23,-86,-37,35
595,2158,2,-431,-4733,23,-86,-38,35
596,2158,3,-432,-4731,23,-87,-37,34
597,2157,3,-430,-4732,23,-86,-38,34
598,2157,3,-430,-4733,23,-85,-39,34
599,2155,2,-431,-4735,23,-85,-39,34
600,2156,3,-432,-4734,23,-86,-39,34
601,2157,3,-431,-4734,23,-87,-39,34
602,2158,2,-431,-4734,23,-87,-38,34
603,2158,1,-430,-4732,23,-86,-38,34
604,2159,0,-431,-4731,23,-86,-38,34
605,2159,0,-431,-4731,23,-86,-38,34
606,2159,0,-429,-4731,23,-86,-38,35
607,2158,2,-427,-4733,23,-86,-38,34
608,2159,0,-429,-4734,23,-87,-37,34
609,2159,0,-429,-4733,23,-87,-37,35
610,2160,0,-430,-4733,23,-87,-37,35
611,2160,1,-430,-4731,23,-86,-37,35
612,2159,2,-429,-4729,23,-86,-38,34
613,2159,2,-429,-4729,23,-87,-38,34
614,2160,2,-430,-4731,23,-86,-37,34
615,2160,1,-431,-4731,23,-86,-38,34
616,2159,2,-432,-4733,23,-85,-37,34
617,2160,2,-432,-4732,23,-86,-37,35
618,2160,2,-432,-4732,23,-86,-38,34
619,2159,2,-430,-4732,23,-86,-38,34
620,2159,2,-429,-4731,23,-87,-38,35
621,2159,2,-429,-4728,23,-87,-37,35
622,2159,3,-430,-4729,23,-87,-37,35
623,2158,2,-430,-4728,23,-87,-37,35
624,2159,2,-431,-4730,23,-87,-37,34
625,2159,3,-430,-4730,23,-86,-37,34
626,2159,3,-429,-4732,23,-86,-38,34
627,2157,2,-427,-4734,23,-86,-38,34
628,2158,1,-429,-4732,23,-86,-38,34
629,2159,2,-430,-4733,23,-86,-39,34
630,2159,1,-431,-4732,23,-86,-39,34
631,2159,1,-432,-4732,23,-86,-39,34
632,2159,2,-429,-4733,23,-85,-39,33
633,2159,1,-428,-4732,23,-86,-38,34
634,2160,1,-428,-4731,23,-86,-39,34
635,2158,2,-428,-4730,23,-86,-38,35
636,2159,2,-428,-4728,23,-86,-38,34
637,2159,1,-428,-4730,23,-86,-38,34
638,2160,2,-428,-4730,23,-86,-37,34
639,2162,2,-428,-4730,23,-86,-37,35
640,2160,3,-428,-4731,23,-86,-37,35
641,2158,1,-426,-4731,23,-86,-38,34
642,2158,-1,-427,-4730,23,-86,-38,34
643,2159,1,-427,-4730,23,-86,-38,35
644,2160,1,-428,-4731,23,-87,-38,34
645,2160,2,-428,-4730,23,-86,-38,34
646,2161,1,-429,-4730,23,-86,-38,34
647,2160,1,-427,-4727,23,-86,-38,35
648,2159,3,-428,-4729,23,-86,-38,34
649,2159,3,-431,-4731,23,-86,-38,35
650,2160,3,-431,-4733,23,-87,-38,34
651,2160,2,-430,-4732,23,-87,-38,35
652,2159,4,-431,-4732,23,-86,-39,34
653,2157,4,-432,-4730,23,-86,-39,35
654,2158,3,-431,-4729,23,-86,-38,35
655,2157,3,-431,-4730,23,-86,-39,35
656,2157,3,-431,-4730,23,-86,-38,36
657,2158,3,-431,-4729,23,-87,-38,35
658,2158,3,-430,-4729,23,-86,-38,35
659,2157,4,-431,-4729,23,-87,-38,35
660,2157,2,-430,-4729,23,-87,-38,35
661,2158,2,-430,-4728,23,-86,-38,35
662,2157,2,-428,-4729,23,-86,-38,34
663,2157,1,-428,-4728,23,-87,-38,34
664,2158,0,-429,-4728,23,-86,-38,34
665,2158,0,-429,-4729,23,-86,-38,34
666,2158,0,-430,-4731,23,-86,-37,34
667,2158,0,-430,-4731,23,-86,-37,34
668,2159,0,-430,-4731,23,-86,-38,33
669,2158,0,-430,-4731,23,-87,-38,33
670,2158,0,-429,-4732,23,-87,-38,33
671,2157,1,-430,-4732,23,-87,-38,34
672,2157,1,-429,-4732,23,-87,-38,34
673,2156,1,-429,-4733,23,-87,-38,34
674,2158,1,-430,-4733,23,-87,-38,35
675,2158,1,-430,-4732,23,-87,-39,35
676,2159,1,-431,-4732,23,-87,-38,35
677,2158,1,-430,-4732,23,-87,-38,35
678,2158,2,-430,-4730,23,-87,-38,35
679,2158,1,-429,-4732,23,-87,-38,35
680,2160,1,-431,-4731,23,-88,-38,35
681,2159,2,-430,-4730,23,-87,-38,35
682,2158,2,-429,-4732,23,-88,-38,35
683,2158,2,-429,-4732,23,-88,-38,35
684,2158,3,-428,-4732,23,-87,-38,35
685,2159,4,-427,-4731,23,-87,-38,35
686,2158,2,-426,-4735,23,-87,-38,35
687,2159,1,-429,-4737,23,-87,-38,35
688,2158,1,-428,-4735,23,-87,-38,35
689,2158,-1,-427,-4735,23,-87,-38,35
690,2158,0,-427,-4735,23,-87,-37,35
691,2158,1,-428,-4735,23,-86,-38,35
692,2159,2,-427,-4735,23,-87,-38,35
693,2159,2,-428,-4735,23,-87,-38,35
694,2159,1,-429,-4734,23,-86,-38,35
695,2158,1,-428,-4735,23,-87,-38,35
696,2158,1,-428,-4734,23,-87,-38,35
697,2159,1,-428,-4733,23,-87,-38,35
698,2158,0,-429,-4732,23,-87,-38,35
699,2159,0,-429,-4729,23,-87,-38,35
700,2160,1,-431,-4730,23,-87,-37,35
701,2159,2,-430,-4730,23,-87,-37,35
702,2158,1,-428,-4730,23,-87,-37,34
703,2158,1,-425,-4731,23,-87,-37,34
704,2158,2,-427,-4729,23,-87,-37,33
705,2157,0,-428,-4730,23,-87,-37,34
706,2157,1,-427,-4731,23,-86,-38,34
707,2159,2,-426,-4731,23,-86,-38,34
708,2160,2,-428,-4731,23,-86,-38,34
709,2160,2,-428,-4732,23,-86,-38,34
710,2158,2,-428,-4731,23,-86,-38,34
711,2157,2,-428,-4733,23,-87,-37,35
712,2159,1,-428,-4731,23,-87,-37,35
713,2160,2,-427,-4731,23,-87,-38,35
714,2159,1,-427,-4730,23,-87,-37,35
715,2160,2,-428,-4731,23,-87,-38,35
716,2160,2,-428,-4732,23,-87,-38,35
717,2159,2,-429,-4731,23,-87,-38,34
718,2159,2,-429,-4730,23,-87,-38,34
719,2159,1,-429,-4729,23,-86,-38,34
720,2159,2,-429,-4730,23,-86,-38,35
721,2159,2,-429,-4729,23,-87,-38,35
722,2158,2,-428,-4728,23,-87,-39,35
723,2158,3,-427,-4728,23,-87,-39,35
724,2158,3,-427,-4727,23,-88,-39,34
725,2159,1,-425,-4729,23,-87,-38,34
726,2159,3,-424,-4729,23,-87,-38,34
727,2159,3,-423,-4729,23,-87,-38,34
728,2159,3,-425,-4727,23,-87,-37,34
729,2159,2,-427,-4726,23,-87,-38,34
730,2159,2,-427,-4727,23,-87,-37,34
731,2159,1,-427,-4726,23,-87,-37,34
732,2159,1,-425,-4727,23,-87,-37,34
733,2157,2,-426,-4726,23,-87,-37,34
734,2159,3,-425,-4725,23,-87,-37,33
735,2159,2,-426,-4725,23,-87,-37,34
736,2160,2,-426,-4726,23,-88,-37,33
737,2160,1,-426,-4726,23,-87,-37,34
738,2160,1,-426,-4726,23,-87,-37,34
739,2159,1,-425,-4726,23,-86,-37,34
740,2158,1,-426,-4727,23,-86,-38,35
741,2159,2,-425,-4728,23,-87,-38,35
742,2160,2,-425,-4729,23,-87,-38,34
743,2160,1,-425,-4730,23,-86,-38,34
744,2160,2,-426,-4729,23,-86,-38,34
745,2159,2,-427,-4729,23,-86,-38,34
746,2159,1,-430,-4728,23,-86,-38,34
747,2159,0,-429,-4726,23,-85,-38,35
748,2158,1,-430,-4726,23,-86,-37,35
749,2158,1,-430,-4727,23,-85,-37,34
750,2158,3,-428,-4728,23,-86,-38,34
751,2159,2,-428,-4728,23,-86,-38,34
752,2158,2,-429,-4728,23,-85,-38,34
753,2158,2,-428,-4729,23,-86,-38,35
754,2158,1,-427,-4727,23,-86,-38,35
755,2158,1,-428,-4729,23,-87,-38,34
756,2159,1,-427,-4728,23,-87,-39,33
757,2159,2,-427,-4728,23,-87,-38,34
758,2160,3,-427,-4727,23,-87,-39,34
759,2160,2,-428,-4727,23,-87,-39,34
760,2158,2,-429,-4727,23,-86,-39,35
761,2159,2,-428,-4726,23,-86,-38,35
762,2159,1,-428,-4725,23,-87,-38,35
763,2160,2,-428,-4725,23,-86,-38,34
764,2159,2,-426,-4725,23,-86,-38,35
765,2159,3,-426,-4726,23,-86,-38,35
766,2159,3,-426,-4726,23,-86,-38,34
767,2159,3,-429,-4727,23,-85,-38,34
768,2157,3,-431,-4727,23,-86,-38,35
769,2158,2,-430,-4727,23,-86,-37,35
770,2158,2,-431,-4728,23,-87,-37,34
771,2158,1,-429,-4727,23,-87,-37,34
772,2159,3,-428,-4727,23,-88,-37,34
773,2160,2,-428,-4725,23,-87,-37,34
774,2159,2,-428,-4727,23,-87,-37,34
775,2158,1,-429,-4725,23,-88,-37,34
776,2158,1,-430,-4723,23,-87,-37,34
777,2158,2,-430,-4725,23,-87,-37,34
778,2158,2,-429,-4725,23,-87,-38,34
779,2159,1,-428,-4727,23,-87,-38,34
780,2160,2,-427,-4727,23,-87,-38,34
781,2159,1,-426,-4726,23,-87,-37,34
782,2160,1,-426,-4726,23,-87,-37,34
783,2160,1,-426,-4725,23,-87,-37,34
784,2160,2,-426,-4725,23,-87,-38,35
785,2160,2,-427,-4724,23,-87,-38,35
786,2160,0,-428,-4725,23,-87,-38,35
787,2161,0,-427,-4725,23,-86,-38,35
788,2160,1,-427,-4725,23,-86,-39,35
789,2160,2,-428,-4726,23,-87,-38,35
790,2159,3,-426,-4727,23,-86,-39,35
791,2160,2,-426,-4727,23,-86,-39,35
792,2159,2,-427,-4727,23,-87,-39,35
793,2159,2,-427,-4727,23,-87,-38,35
794,2160,3,-429,-4725,23,-87,-38,34
795,2161,2,-428,-4727,23,-86,-38,35
796,2161,3,-428,-4727,23,-86,-38,35
797,2161,2,-427,-4726,23,-86,-38,34
798,2161,2,-427,-4726,23,-86,-38,34
799,2160,2,-428,-4726,23,-87,-37,34
800,2160,1,-428,-4726,23,-86,-37,34
801,2159,0,-428,-4725,23,-86,-37,34
802,2158,2,-429,-4725,23,-86,-37,34
803,2157,1,-429,-4724,23,-86,-37,34
804,2159,0,-429,-4725,23,-86,-38,34
805,2159,0,-429,-4725,23,-86,-37,34
806,2159,1,-427,-4724,23,-87,-37,34
807,2160,1,-427,-4722,23,-87,-37,35
808,2160,2,-426,-4722,23,-87,-37,35
809,2158,2,-427,-4723,23,-87,-37,35
810,2158,3,-427,-4724,23,-87,-37,35
811,2157,2,-427,-4724,23,-87,-37,35
812,2157,2,-426,-4724,23,-87,-37,35
813,2157,1,-426,-4724,23,-87,-38,35
814,2158,1,-426,-4722,23,-86,-38,35
815,2158,0,-427,-4722,23,-87,-38,35
816,2159,0,-427,-4722,23,-86,-38,35
817,2159,1,-427,-4722,23,-86,-38,35
818,2159,2,-427,-4722,23,-86,-38,35
819,2159,2,-427,-4723,23,-86,-38,35
820,2159,0,-428,-4724,23,-87,-38,35
821,2158,0,-429,-4723,23,-86,-38,35
822,2159,-1,-430,-4723,23,-87,-38,35
823,2159,-1,-429,-4723,23,-87,-39,35
824,2158,0,-429,-4723,23,-87,-38,35
825,2159,1,-429,-4724,23,-87,-38,35
826,2159,1,-429,-4723,23,-86,-38,35
827,2159,2,-430,-4723,23,-86,-38,35
828,2159,2,-428,-4725,23,-86,-38,35
829,2161,3,-425,-4724,23,-86,-38,35
830,2160,2,-426,-4724,23,-86,-38,34
831,2161,1,-427,-4723,23,-86,-38,34
832,2160,1,-428,-4724,23,-87,-39,34
833,2160,1,-429,-4724,23,-86,-38,34
834,2160,0,-430,-4722,23,-86,-38,34
835,2160,-1,-427,-4722,23,-86,-38,35
836,2159,0,-427,-4723,23,-86,-38,35
837,2159,0,-428,-4723,23,-86,-38,35
838,2158,-1,-429,-4722,23,-86,-39,35
839,2157,1,-431,-4722,23,-86,-38,34
840,2157,0,-432,-4722,23,-86,-38,35
841,2157,0,-430,-4724,23,-87,-38,35
842,2156,1,-430,-4723,23,-87,-38,35
843,2156,1,-429,-4722,23,-87,-38,36
844,2157,1,-429,-4721,23,-87,-38,36
845,2156,2,-430,-4721,23,-87,-38,36
846,2156,2,-429,-4723,23,-87,-38,36
847,2158,1,-429,-4722,23,-86,-38,35
848,2158,1,-428,-4722,23,-87,-39,34
849,2157,1,-428,-4723,23,-86,-38,34
850,2157,0,-429,-4722,23,-86,-38,34
851,2158,1,-429,-4723,23,-86,-38,35
852,2159,1,-428,-4723,23,-86,-38,34
853,2160,0,-428,-4722,23,-86,-39,34
854,2159,1,-427,-4724,23,-86,-39,34
855,2160,1,-427,-4723,23,-87,-39,35
856,2158,0,-429,-4723,23,-86,-39,35
857,2158,0,-428,-4722,23,-85,-39,35
858,2157,0,-428,-4723,23,-86,-39,35
859,2157,0,-429,-4723,23,-86,-38,35
860,2158,-1,-429,-4720,23,-86,-39,35
861,2158,-1,-429,-4719,23,-86,-39,34
862,2159,-1,-428,-4722,23,-87,-38,34
863,2159,0,-429,-4725,23,-87,-38,34
864,2158,1,-429,-4725,23,-86,-38,34
865,2158,0,-428,-4724,23,-86,-38,35
866,2159,0,-426,-4723,23,-86,-38,34
867,2158,0,-427,-4722,23,-87,-38,34
868,2158,1,-428,-4722,23,-86,-37,34
869,2159,2,-430,-4724,23,-86,-38,34
870,2157,3,-430,-4724,23,-86,-38,35
871,2157,1,-433,-4724,23,-86,-38,35
872,2157,1,-430,-4723,23,-86,-39,35
873,2157,1,-429,-4723,23,-86,-38,35
874,2157,1,-430,-4723,23,-86,-38,35
875,2158,1,-429,-4724,23,-86,-38,35
876,2159,1,-427,-4724,23,-86,-38,35
877,2158,1,-427,-4725,23,-86,-38,35
878,2157,1,-429,-4725,23,-86,-38,35
879,2157,0,-429,-4725,23,-86,-38,35
880,2159,1,-427,-4725,23,-86,-38,35
881,2158,2,-426,-4725,23,-87,-38,35
882,2157,2,-427,-4726,23,-87,-38,35
883,2156,3,-428,-4725,23,-87,-38,35
884,2156,4,-429,-4725,23,-87,-38,35
885,2156,2,-431,-4726,23,-87,-38,35
886,2157,3,-428,-4723,23,-88,-38,35
887,2158,2,-427,-4724,23,-87,-38,35
888,2158,2,-427,-4725,23,-87,-38,35
889,2159,2,-428,-4726,23,-87,-39,35
890,2158,2,-426,-4726,23,-87,-38,34
891,2160,0,-426,-4725,23,-87,-39,34
892,2159,-1,-427,-4724,23,-86,-39,34
893,2158,-1,-427,-4723,23,-86,-38,34
894,2158,0,-428,-4722,23,-86,-38,34
895,2158,2,-428,-4722,23,-86,-38,34
896,2157,2,-428,-4724,23,-86,-39,34
897,2156,1,-427,-4726,23,-86,-39,34
898,2157,1,-429,-4725,23,-86,-38,35
899,2157,0,-430,-4725,23,-86,-38,35
900,2159,0,-429,-4725,23,-87,-37,34
901,2159,0,-429,-4724,23,-87,-38,35
902,2160,1,-427,-4722,23,-87,-38,35
903,2160,0,-427,-4723,23,-87,-38,35
904,2161,0,-427,-4724,23,-86,-38,35
905,2160,0,-428,-4724,23,-86,-38,35
906,2159,-1,-427,-4725,23,-86,-37,35
907,2160,0,-427,-4725,23,-86,-37,35
908,2160,0,-427,-4724,23,-86,-37,35
909,2160,0,-426,-4726,23,-87,-38,34
910,2160,-1,-426,-4726,23,-87,-38,35
911,2160,0,-428,-4724,23,-87,-38,35
912,2161,1,-430,-4723,23,-87,-38,35
913,2160,1,-430,-4723,23,-87,-38,34
914,2160,1,-430,-4724,23,-87,-38,34
915,2159,1,-432,-4723,23,-87,-39,34
916,2159,0,-431,-4723,23,-88,-38,34
917,2159,0,-432,-4723,23,-87,-38,34
918,2159,1,-432,-4723,23,-87,-38,34
919,2159,1,-431,-4724,23,-87,-38,34
920,2159,2,-432,-4723,23,-87,-38,34
921,2160,2,-431,-4722,23,-87,-38,34
922,2160,2,-433,-4722,23,-87,-38,34
923,2159,2,-431,-4723,23,-88,-39,34
924,2160,2,-430,-4724,23,-87,-39,34
925,2159,0,-431,-4724,23,-87,-39,34
926,2159,0,-429,-4724,23,-87,-39,34
927,2158,0,-429,-4723,23,-87,-38,34
928,2157,0,-429,-4724,23,-87,-38,34
929,2158,1,-428,-4723,23,-87,-38,34
930,2158,1,-428,-4725,23,-87,-38,33
931,2157,0,-428,-4725,23,-87,-38,34
932,2158,0,-429,-4726,23,-87,-38,34
933,2158,1,-429,-4724,23,-87,-38,34
934,2157,2,-428,-4724,23,-87,-38,34
935,2158,2,-427,-4725,23,-87,-38,34
936,2158,2,-426,-4724,23,-87,-38,34
937,2158,2,-427,-4724,23,-87,-38,34
938,2159,2,-429,-4724,23,-87,-38,34
939,2158,2,-428,-4723,23,-87,-37,34
940,2158,2,-429,-4725,23,-87,-38,35
941,2157,1,-429,-4725,23,-87,-37,34
942,2157,2,-430,-4726,23,-87,-37,35
943,2158,2,-429,-4727,23,-86,-38,34
944,2157,2,-430,-4723,23,-86,-38,34
945,2158,2,-429,-4722,23,-86,-39,34
946,2157,1,-427,-4721,23,-86,-39,34
947,2157,1,-429,-4720,23,-86,-38,34
948,2158,1,-430,-4720,23,-86,-38,34
949,2158,0,-430,-4720,23,-86,-38,34
950,2158,1,-432,-4720,23,-86,-38,34
951,2157,0,-431,-4721,23,-86,-38,34
952,2159,1,-432,-4720,23,-86,-38,34
953,2159,2,-431,-4720,23,-86,-38,34
954,2158,2,-430,-4720,23,-86,-38,34
955,2158,3,-432,-4721,23,-86,-38,35
956,2159,2,-431,-4720,23,-86,-39,35
957,2159,2,-431,-4721,23,-86,-39,35
958,2159,1,-431,-4721,23,-86,-38,35
959,2158,2,-430,-4720,23,-86,-38,34
960,2158,2,-429,-4722,23,-86,-38,34
961,2157,3,-430,-4722,23,-86,-38,34
962,2158,3,-428,-4722,23,-86,-38,34
963,2156,4,-426,-4721,23,-86,-38,34
964,2157,4,-426,-4719,23,-87,-38,34
965,2158,4,-429,-4720,23,-87,-38,34
966,2157,4,-429,-4720,23,-86,-38,35
967,2158,3,-429,-4720,23,-86,-38,34
968,2157,4,-427,-4718,23,-86,-39,34
969,2157,2,-429,-4719,23,-86,-39,34
970,2158,2,-429,-4717,23,-86,-39,34
971,2158,3,-429,-4718,23,-86,-39,35
972,2158,3,-428,-4717,23,-87,-39,34
973,2156,2,-428,-4719,23,-86,-38,35
974,2157,2,-427,-4719,23,-86,-38,35
975,2156,2,-427,-4718,23,-86,-38,35
976,2158,1,-427,-4720,23,-86,-38,35
977,2158,1,-426,-4718,23,-86,-38,34
978,2159,2,-427,-4717,23,-86,-38,34
979,2159,2,-427,-4718,23,-86,-37,34
980,2159,1,-426,-4719,23,-86,-37,35
981,2159,2,-427,-4718,23,-86,-38,35
982,2159,2,-427,-4718,23,-86,-38,35
983,2159,0,-428,-4717,23,-86,-38,35
984,2159,1,-429,-4716,23,-87,-38,35
985,2159,1,-428,-4717,23,-87,-38,35
986,2160,0,-427,-4717,23,-87,-38,35
987,2160,0,-427,-4718,23,-87,-38,35
988,2159,1,-428,-4719,23,-87,-38,35
989,2159,1,-428,-4719,23,-86,-38,35
990,2158,2,-428,-4717,23,-86,-38,34
991,2159,2,-428,-4720,23,-86,-39,35
992,2159,1,-428,-4719,23,-86,-38,35
993,2159,2,-430,-4718,23,-87,-39,35
994,2160,2,-429,-4718,23,-87,-38,34
995,2159,2,-428,-4718,23,-87,-37,34
