,acc_X,acc_Y,acc_Z,temp,tempC,gyr_X,gyr_Y,gyr_Z
0,2171,1,-430,-4630,23,-92,-34,38
1,2158,-4,-418,-4631,23,-87,-39,37
2,2161,-1,-415,-4634,23,-87,-37,36
3,2157,-10,-424,-4628,23,-87,-42,29
4,2162,-4,-430,-4622,23,-86,-40,36
5,2159,-5,-424,-4632,23,-84,-36,38
6,2163,-5,-412,-4627,23,-85,-39,36
7,2161,7,-419,-4630,23,-86,-40,35
8,2154,3,-415,-4627,23,-89,-40,31
9,2158,4,-418,-4623,23,-90,-40,34
10,2165,-2,-433,-4622,23,-88,-38,35
11,2162,6,-419,-4623,23,-89,-39,34
12,2161,-2,-434,-4629,23,-85,-37,36
13,2156,2,-421,-4629,23,-89,-35,38
14,2157,2,-430,-4626,23,-87,-37,33
15,2165,-3,-423,-4623,23,-88,-37,30
16,2159,-8,-426,-4629,23,-86,-37,37
17,2159,0,-435,-4621,23,-88,-38,31
18,2157,-3,-427,-4633,23,-86,-38,34
19,2160,-5,-432,-4634,23,-86,-40,35
20,2162,1,-421,-4634,23,-89,-42,33
21,2155,-2,-422,-4627,23,-85,-40,35
22,2162,5,-427,-4634,23,-88,-35,33
23,2156,0,-417,-4626,23,-87,-36,33
24,2157,3,-414,-4631,23,-84,-36,38
25,2156,-3,-416,-4637,23,-89,-39,34
26,2161,-1,-424,-4629,23,-87,-38,34
27,2163,0,-426,-4629,23,-90,-38,36
28,2153,-3,-417,-4627,23,-91,-39,35
29,2156,-3,-424,-4619,23,-88,-38,33
30,2158,-5,-426,-4630,23,-90,-37,34
31,2157,8,-427,-4629,23,-87,-35,32
32,2167,-8,-433,-4635,23,-88,-37,36
33,2158,5,-428,-4635,23,-85,-38,34
34,2162,2,-430,-4630,23,-88,-40,35
35,2162,7,-426,-4615,23,-90,-38,34
36,2152,-6,-419,-4623,23,-87,-39,34
37,2158,2,-421,-4639,23,-87,-41,36
38,2161,6,-419,-4637,23,-88,-36,35
39,2164,-3,-427,-4635,23,-88,-38,37
40,2160,0,-431,-4624,23,-90,-39,34
41,2165,-10,-418,-4622,23,-87,-39,36
42,2153,-2,-431,-4636,23,-90,-40,37
43,2162,-5,-424,-4628,23,-89,-41,33
44,2165,-5,-412,-4622,23,-89,-41,30
45,2153,3,-420,-4630,23,-86,-38,36
46,2159,3,-420,-4625,23,-88,-38,37
47,2152,2,-426,-4627,23,-88,-37,36
48,2159,2,-420,-4630,23,-88,-40,35
49,2164,-5,-425,-4622,23,-89,-38,34
50,2159,-5,-423,-4618,23,-87,-39,36
51,2162,-2,-418,-4636,23,-89,-40,36
52,2159,6,-427,-4628,23,-87,-36,34
53,2160,-7,-417,-4636,23,-86,-40,36
54,2163,-8,-441,-4628,23,-88,-36,37
55,2166,-1,-424,-4636,23,-86,-37,34
56,2155,2,-429,-4630,23,-90,-38,34
57,2164,-5,-419,-4628,23,-85,-38,34
58,2155,12,-417,-4616,23,-91,-41,34
59,2157,-6,-418,-4623,23,-87,-39,36
60,2159,2,-426,-4630,23,-86,-39,33
61,2154,-3,-416,-4620,23,-89,-35,31
62,2153,-3,-425,-4626,23,-90,-34,37
63,2164,3,-419,-4636,23,-90,-36,34
64,2161,-1,-429,-4629,23,-86,-37,36
65,2157,-3,-422,-4629,23,-88,-37,37
66,2153,-2,-433,-4644,23,-87,-39,34
67,2164,4,-428,-4628,23,-87,-37,35
68,2151,-4,-426,-4631,23,-88,-39,36
69,2165,5,-419,-4618,23,-89,-37,32
70,2162,-5,-431,-4624,23,-87,-38,33
71,2163,1,-421,-4636,23,-89,-36,35
72,2156,-2,-424,-4630,23,-87,-36,34
73,2166,3,-422,-4627,23,-87,-39,34
74,2159,-3,-423,-4623,23,-88,-36,35
75,2158,3,-420,-4630,23,-90,-38,34
76,2160,7,-426,-4630,23,-90,-37,35
77,2155,6,-432,-4624,23,-86,-37,33
78,2155,-2,-423,-4638,23,-86,-40,35
79,2161,2,-424,-4636,23,-89,-38,33
80,2156,-2,-430,-4626,23,-88,-39,35
81,2163,-7,-416,-4625,23,-86,-37,32
82,2160,2,-423,-4623,23,-88,-34,36
83,2161,6,-432,-4631,23,-89,-36,37
84,2159,3,-427,-4626,23,-83,-35,36
85,2154,-6,-424,-4621,23,-87,-39,33
86,2158,5,-429,-4631,23,-87,-37,33
87,2159,-5,-427,-4628,23,-89,-39,35
88,2155,3,-412,-4622,23,-86,-39,32
89,2161,-2,-419,-4631,23,-89,-38,34
90,2162,-9,-433,-4637,23,-87,-36,34
91,2160,5,-417,-4625,23,-87,-41,36
92,2161,0,-436,-4625,23,-83,-41,33
93,2165,-4,-418,-4625,23,-87,-40,34
94,2157,7,-422,-4627,23,-88,-35,36
95,2161,-3,-426,-4638,23,-88,-37,34
96,2150,2,-422,-4628,23,-88,-40,37
97,2164,-5,-425,-4626,23,-86,-40,35
98,2149,6,-431,-4625,23,-85,-37,36
99,2161,4,-427,-4624,23,-84,-35,33
100,2168,6,-433,-4634,23,-91,-34,35
101,2164,-3,-434,-4631,23,-89,-39,35
102,2161,0,-413,-4640,23,-85,-39,37
103,2159,2,-432,-4621,23,-87,-37,31
104,2157,2,-419,-4636,23,-89,-38,33
105,2164,4,-424,-4620,23,-91,-39,35
106,2156,1,-420,-4646,23,-91,-39,31
107,2161,7,-427,-4639,23,-90,-39,36
108,2166,4,-424,-4630,23,-85,-38,36
109,2161,10,-430,-4636,23,-86,-38,36
110,2162,-1,-426,-4626,23,-85,-43,37
111,2163,0,-417,-4627,23,-87,-37,36
112,2156,5,-425,-4632,23,-89,-39,35
113,2158,6,-420,-4612,23,-87,-35,33
114,2162,2,-429,-4630,23,-85,-37,34
115,2153,4,-429,-4633,23,-87,-43,36
116,2164,6,-423,-4629,23,-88,-42,34
117,2159,2,-429,-4631,23,-87,-39,33
118,2161,0,-421,-4622,23,-85,-36,33
119,2152,7,-414,-4623,23,-87,-38,32
120,2156,1,-431,-4628,23,-87,-41,38
121,2160,-5,-425,-4633,23,-89,-40,34
122,2163,-1,-430,-4630,23,-88,-37,36
123,2164,4,-430,-4630,23,-86,-39,36
124,2163,3,-419,-4629,23,-90,-40,35
125,2154,10,-420,-4629,23,-86,-33,34
126,2161,0,-425,-4639,23,-88,-43,35
127,2157,2,-417,-4625,23,-88,-38,36
128,2163,2,-421,-4640,23,-88,-38,34
129,2162,-6,-413,-4630,23,-88,-38,33
130,2163,1,-426,-4624,23,-89,-37,35
131,2164,-3,-424,-4632,23,-87,-37,36
132,2162,3,-425,-4626,23,-87,-36,36
133,2155,2,-432,-4622,23,-91,-38,37
134,2161,3,-422,-4620,23,-86,-36,34
135,2149,2,-431,-4623,23,-88,-36,34
136,2164,0,-429,-4622,23,-87,-37,35
137,2164,-3,-425,-4621,23,-89,-36,36
138,2167,-1,-421,-4619,23,-89,-40,36
139,2164,5,-424,-4629,23,-88,-38,32
140,2165,-5,-435,-4631,23,-85,-36,34
141,2154,0,-426,-4617,23,-86,-34,36
142,2151,-3,-418,-4623,23,-85,-38,35
143,2161,4,-417,-4624,23,-87,-39,34
144,2150,-4,-419,-4626,23,-85,-37,32
145,2161,1,-430,-4632,23,-86,-37,31
146,2160,8,-433,-4640,23,-87,-39,32
147,2161,2,-431,-4625,23,-86,-38,34
148,2162,-4,-429,-4626,23,-88,-35,34
149,2163,-4,-423,-4631,23,-90,-39,32
150,2155,-7,-425,-4635,23,-87,-36,29
151,2158,-1,-425,-4628,23,-86,-39,34
152,2162,1,-417,-4621,23,-86,-39,37
153,2158,5,-425,-4625,23,-86,-36,34
154,2158,1,-413,-4620,23,-88,-38,36
155,2157,1,-420,-4626,23,-88,-41,32
156,2162,-1,-430,-4638,23,-87,-36,33
157,2163,3,-417,-4629,23,-88,-38,33
158,2154,-1,-422,-4642,23,-87,-39,32
159,2161,8,-428,-4626,23,-89,-35,35
160,2161,5,-427,-4630,23,-88,-40,33
161,2156,-2,-437,-4624,23,-85,-38,34
162,2152,-6,-419,-4622,23,-84,-36,34
163,2158,4,-437,-4618,23,-87,-37,32
164,2156,-1,-420,-4622,23,-86,-40,34
165,2167,5,-423,-4631,23,-90,-39,35
166,2158,5,-433,-4629,23,-89,-41,38
167,2159,1,-411,-4632,23,-84,-40,38
168,2161,-3,-425,-4629,23,-86,-36,33
169,2162,5,-420,-4630,23,-90,-35,36
170,2157,0,-406,-4638,23,-87,-42,32
171,2159,5,-420,-4636,23,-86,-37,35
172,2157,6,-418,-4633,23,-84,-38,34
173,2160,1,-429,-4630,23,-87,-39,33
174,2165,1,-419,-4622,23,-89,-38,35
175,2157,4,-421,-4631,23,-86,-38,36
176,2159,3,-420,-4631,23,-88,-35,32
177,2159,4,-424,-4627,23,-84,-38,36
178,2159,-3,-414,-4630,23,-88,-37,38
179,2160,-5,-424,-4627,23,-85,-36,36
180,2161,-9,-417,-4628,23,-87,-37,39
181,2151,0,-417,-4632,23,-86,-37,34
182,2161,8,-429,-4629,23,-91,-38,35
183,2166,5,-420,-4620,23,-88,-36,35
184,2161,-6,-423,-4624,23,-89,-37,36
185,2154,-1,-419,-4625,23,-85,-39,35
186,2155,-3,-419,-4632,23,-89,-36,35
187,2161,0,-430,-4624,23,-86,-40,34
188,2167,5,-426,-4621,23,-87,-36,33
189,2155,-4,-430,-4629,23,-88,-41,34
190,2162,4,-430,-4625,23,-89,-39,39
191,2167,3,-411,-4625,23,-87,-36,34
192,2151,2,-432,-4628,23,-89,-37,34
193,2160,5,-421,-4631,23,-88,-41,35
194,2166,-9,-425,-4631,23,-86,-40,35
195,2158,7,-422,-4628,23,-87,-39,34
196,2157,1,-425,-4621,23,-87,-42,33
197,2154,4,-425,-4637,23,-90,-37,33
198,2154,-5,-419,-4633,23,-89,-40,36
199,2157,5,-421,-4632,23,-88,-34,37
200,2164,-3,-432,-4622,23,-85,-40,31
201,2165,-3,-429,-4628,23,-88,-41,36
202,2160,4,-423,-4627,23,-85,-41,34
203,2156,9,-423,-4627,23,-91,-42,33
204,2164,4,-410,-4633,23,-84,-38,35
205,2161,-7,-423,-4619,23,-89,-35,38
206,2156,3,-416,-4627,23,-88,-38,37
207,2161,6,-428,-4635,23,-88,-42,31
208,2156,4,-429,-4634,23,-89,-36,31
209,2160,-2,-414,-4627,23,-88,-37,36
210,2159,2,-430,-4623,23,-86,-39,34
211,2155,1,-440,-4624,23,-85,-41,33
212,2163,-8,-417,-4616,23,-88,-37,32
213,2157,9,-430,-4621,23,-88,-36,35
214,2160,1,-412,-4614,23,-88,-35,36
215,2159,0,-416,-4617,23,-89,-39,34
216,2150,-1,-438,-4636,23,-87,-39,36
217,2162,-4,-431,-4632,23,-86,-37,33
218,2162,0,-426,-4619,23,-87,-37,35
219,2161,4,-433,-4624,23,-87,-39,36
220,2159,0,-428,-4638,23,-89,-39,35
221,2156,2,-431,-4617,23,-92,-36,37
222,2163,-3,-418,-4618,23,-84,-39,33
223,2155,-5,-437,-4625,23,-89,-36,32
224,2167,-2,-419,-4628,23,-91,-36,32
225,2155,-4,-427,-4624,23,-90,-43,38
226,2166,1,-425,-4631,23,-87,-39,32
227,2155,-2,-436,-4611,23,-85,-39,35
228,2157,10,-436,-4628,23,-87,-37,32
229,2157,2,-425,-4620,23,-85,-42,31
230,2161,5,-414,-4622,23,-88,-38,35
231,2162,11,-430,-4627,23,-87,-39,33
232,2165,4,-423,-4622,23,-88,-39,34
233,2159,1,-429,-4621,23,-89,-39,31
234,2158,-1,-423,-4626,23,-86,-42,36
235,2156,-5,-429,-4624,23,-89,-38,38
236,2160,-2,-422,-4631,23,-87,-40,36
237,2156,5,-434,-4626,23,-88,-41,35
238,2158,3,-427,-4626,23,-85,-38,36
239,2149,-3,-416,-4627,23,-89,-39,35
240,2159,11,-421,-4628,23,-88,-38,37
241,2151,0,-429,-4624,23,-89,-39,37
242,2168,1,-417,-4624,23,-88,-35,34
243,2160,-2,-425,-4630,23,-84,-40,33
244,2158,7,-426,-4635,23,-88,-36,36
245,2165,3,-438,-4622,23,-87,-37,36
246,2167,-3,-426,-4631,23,-89,-35,37
247,2159,-6,-425,-4628,23,-87,-36,39
248,2160,4,-420,-4635,23,-91,-37,34
249,2166,-4,-407,-4632,23,-87,-38,37
250,2159,6,-443,-4622,23,-87,-39,35
251,2160,-6,-427,-4621,23,-88,-38,33
252,2152,9,-431,-4628,23,-86,-38,29
253,2164,-1,-420,-4624,23,-84,-35,36
254,2165,-3,-426,-4620,23,-85,-36,39
255,2167,2,-429,-4624,23,-88,-36,36
256,2164,-9,-418,-4623,23,-83,-39,35
257,2161,7,-413,-4623,23,-88,-37,33
258,2161,2,-424,-4616,23,-89,-41,36
259,2171,4,-425,-4623,23,-86,-39,36
260,2159,0,-433,-4630,23,-90,-41,38
261,2165,5,-426,-4625,23,-87,-38,37
262,2152,1,-433,-4625,23,-87,-32,36
263,2168,4,-418,-4629,23,-84,-36,34
264,2150,-4,-427,-4632,23,-91,-37,36
265,2148,-1,-418,-4625,23,-87,-42,33
266,2157,1,-427,-4623,23,-87,-36,36
267,2160,-5,-427,-4626,23,-89,-37,31
268,2155,-3,-418,-4621,23,-88,-40,31
269,2164,-3,-415,-4623,23,-88,-37,35
270,2158,-1,-421,-4628,23,-90,-36,35
271,2154,6,-423,-4620,23,-87,-38,34
272,2156,3,-427,-4629,23,-87,-38,31
273,2156,-3,-421,-4624,23,-86,-39,34
274,2161,-2,-429,-4620,23,-85,-37,33
275,2151,1,-423,-4621,23,-87,-37,35
276,2162,-6,-413,-4623,23,-84,-39,36
277,2158,1,-420,-4628,23,-84,-37,37
278,2153,3,-424,-4625,23,-86,-36,35
279,2163,9,-427,-4626,23,-88,-38,35
280,2157,-6,-426,-4629,23,-91,-36,35
281,2161,-3,-431,-4624,23,-86,-36,35
282,2157,3,-430,-4622,23,-87,-36,32
283,2158,6,-419,-4629,23,-86,-38,34
284,2167,5,-417,-4635,23,-91,-39,32
285,2159,1,-421,-4640,23,-84,-40,33
286,2158,3,-425,-4637,23,-85,-38,32
287,2153,-3,-420,-4624,23,-89,-39,35
288,2157,1,-437,-4629,23,-87,-37,35
289,2160,0,-428,-4630,23,-89,-35,34
290,2165,5,-422,-4621,23,-89,-36,33
291,2162,-2,-422,-4615,23,-87,-39,37
292,2154,-4,-427,-4628,23,-87,-37,36
293,2155,0,-417,-4632,23,-85,-35,36
294,2163,-3,-424,-4622,23,-85,-37,37
295,2166,1,-418,-4644,23,-87,-37,36
296,2161,-5,-422,-4623,23,-90,-40,35
297,2159,5,-429,-4627,23,-86,-39,36
298,2161,4,-422,-4633,23,-90,-40,33
299,2164,5,-428,-4627,23,-90,-36,36
300,2155,-2,-427,-4623,23,-87,-40,36
301,2161,-2,-424,-4624,23,-81,-37,35
302,2155,3,-430,-4613,23,-87,-39,35
303,2164,7,-429,-4623,23,-89,-35,34
304,2158,0,-426,-4631,23,-86,-37,33
305,2155,-9,-412,-4620,23,-88,-37,36
306,2157,6,-428,-4623,23,-88,-37,33
307,2160,2,-425,-4617,23,-88,-37,32
308,2157,0,-427,-4618,23,-89,-38,36
309,2164,2,-420,-4633,23,-88,-37,35
310,2151,-1,-413,-4621,23,-89,-36,36
311,2159,-4,-423,-4633,23,-87,-41,35
312,2165,-9,-423,-4620,23,-86,-36,33
313,2161,-5,-421,-4617,23,-87,-36,38
314,2162,4,-434,-4619,23,-86,-41,34
315,2161,-6,-412,-4624,23,-87,-38,35
316,2152,3,-413,-4631,23,-88,-36,33
317,2163,-11,-427,-4630,23,-87,-37,35
318,2160,1,-435,-4629,23,-86,-35,35
319,2159,5,-421,-4622,23,-87,-37,33
320,2168,5,-418,-4629,23,-86,-36,32
321,2162,1,-432,-4620,23,-88,-35,34
322,2169,3,-424,-4627,23,-86,-36,37
323,2157,-3,-428,-4635,23,-85,-37,35
324,2160,1,-431,-4630,23,-91,-36,35
325,2162,-2,-422,-4627,23,-88,-36,33
326,2161,3,-425,-4632,23,-87,-35,30
327,2156,-1,-432,-4623,23,-87,-34,35
328,2159,3,-428,-4624,23,-88,-38,38
329,2160,-11,-429,-4628,23,-87,-37,33
330,2164,5,-417,-4635,23,-91,-41,36
331,2159,6,-431,-4624,23,-90,-34,36
332,2159,-4,-427,-4624,23,-91,-37,33
333,2159,0,-420,-4634,23,-86,-38,33
334,2166,5,-415,-4624,23,-87,-39,34
335,2166,1,-422,-4627,23,-89,-37,37
336,2162,-6,-422,-4622,23,-86,-37,34
337,2153,0,-426,-4624,23,-85,-38,35
338,2155,3,-427,-4621,23,-88,-38,34
339,2163,7,-423,-4636,23,-88,-36,32
340,2162,-4,-444,-4627,23,-90,-36,33
341,2159,-2,-412,-4621,23,-90,-36,34
342,2163,4,-429,-4633,23,-92,-37,35
343,2159,-4,-428,-4633,23,-89,-39,36
344,2158,-2,-423,-4639,23,-87,-40,34
345,2151,1,-431,-4630,23,-85,-37,34
346,2158,6,-423,-4617,23,-86,-37,33
347,2160,1,-424,-4624,23,-84,-39,36
348,2149,0,-419,-4623,23,-86,-34,34
349,2153,-1,-428,-4626,23,-91,-39,36
350,2159,1,-419,-4630,23,-86,-38,36
351,2161,-7,-415,-4633,23,-88,-38,35
352,2162,0,-416,-4631,23,-88,-36,36
353,2162,-4,-419,-4625,23,-88,-38,37
354,2163,-1,-435,-4620,23,-86,-40,35
355,2153,-1,-423,-4621,23,-86,-37,33
356,2155,1,-421,-4627,23,-90,-39,37
357,2164,1,-419,-4623,23,-86,-43,33
358,2162,-2,-426,-4626,23,-86,-37,32
359,2158,8,-425,-4634,23,-89,-39,35
360,2164,3,-433,-4634,23,-88,-37,37
361,2152,7,-429,-4629,23,-87,-39,33
362,2164,5,-432,-4630,23,-84,-36,33
363,2168,3,-424,-4620,23,-89,-37,32
364,2158,-4,-424,-4628,23,-91,-39,33
365,2156,-1,-419,-4611,23,-87,-38,32
366,2156,2,-430,-4630,23,-86,-37,33
367,2154,4,-417,-4614,23,-90,-37,33
368,2158,7,-431,-4613,23,-89,-41,33
369,2154,1,-416,-4633,23,-88,-38,36
370,2159,7,-419,-4632,23,-90,-38,35
371,2159,-3,-429,-4612,23,-91,-37,36
372,2162,2,-428,-4622,23,-85,-41,34
373,2160,3,-434,-4634,23,-86,-42,35
374,2149,0,-422,-4625,23,-87,-36,37
375,2164,1,-426,-4623,23,-90,-35,38
376,2148,3,-420,-4636,23,-90,-42,34
377,2156,1,-416,-4631,23,-86,-35,32
378,2161,4,-420,-4620,23,-87,-40,33
379,2157,0,-430,-4631,23,-88,-37,35
380,2159,0,-425,-4628,23,-84,-38,36
381,2158,-2,-417,-4619,23,-89,-36,34
382,2154,8,-415,-4623,23,-88,-40,35
383,2161,1,-419,-4631,23,-86,-38,34
384,2159,0,-427,-4618,23,-88,-39,36
385,2158,-1,-425,-4626,23,-87,-37,34
386,2164,7,-415,-4620,23,-87,-37,34
387,2163,3,-435,-4619,23,-87,-39,36
388,2162,6,-424,-4632,23,-87,-37,32
389,2156,0,-430,-4623,23,-85,-39,36
390,2154,-5,-420,-4631,23,-87,-37,33
391,2160,6,-427,-4628,23,-88,-36,38
392,2159,-5,-422,-4616,23,-85,-38,33
393,2154,7,-418,-4625,23,-87,-37,34
394,2162,-3,-427,-4627,23,-87,-36,35
395,2162,1,-424,-4625,23,-86,-38,37
396,2161,-8,-432,-4623,23,-85,-35,35
397,2162,6,-427,-4622,23,-86,-35,37
398,2162,5,-420,-4624,23,-85,-40,36
399,2163,0,-429,-4630,23,-87,-36,35
400,2157,0,-427,-4631,23,-87,-39,36
401,2161,-3,-426,-4635,23,-88,-37,34
402,2160,-2,-430,-4627,23,-89,-38,33
403,2158,-2,-429,-4625,23,-91,-43,31
404,2158,1,-426,-4628,23,-87,-38,36
405,2164,-2,-419,-4629,23,-86,-38,35
406,2157,-5,-426,-4617,23,-86,-39,33
407,2163,3,-422,-4621,23,-87,-37,37
408,2166,-4,-414,-4620,23,-88,-40,34
409,2157,-3,-420,-4623,23,-86,-34,35
410,2163,0,-427,-4624,23,-87,-39,36
411,2165,-4,-426,-4625,23,-86,-39,35
412,2151,-3,-423,-4625,23,-88,-40,35
413,2163,5,-440,-4618,23,-88,-36,37
414,2159,-2,-431,-4632,23,-90,-35,32
415,2160,2,-424,-4628,23,-86,-37,35
416,2161,8,-425,-4624,23,-87,-40,35
417,2160,1,-427,-4626,23,-86,-37,37
418,2159,9,-418,-4632,23,-86,-38,32
419,2153,-1,-428,-4630,23,-87,-38,30
420,2157,0,-425,-4624,23,-86,-38,33
421,2163,-1,-422,-4618,23,-87,-40,33
422,2159,-3,-419,-4627,23,-89,-38,36
423,2162,3,-424,-4626,23,-90,-40,32
424,2161,-1,-425,-4613,23,-87,-37,33
425,2158,3,-421,-4624,23,-86,-39,36
426,2160,4,-419,-4631,23,-85,-37,35
427,2166,2,-432,-4626,23,-90,-42,34
428,2159,-1,-429,-4632,23,-89,-39,34
429,2153,-1,-424,-4627,23,-85,-35,36
430,2154,-1,-423,-4622,23,-85,-34,35
431,2158,4,-418,-4629,23,-86,-41,38
432,2154,2,-422,-4619,23,-86,-39,36
433,2154,4,-425,-4638,23,-86,-35,34
434,2153,2,-425,-4624,23,-84,-38,35
435,2164,5,-421,-4631,23,-85,-41,35
436,2165,-1,-429,-4628,23,-89,-42,33
437,2161,-4,-422,-4618,23,-88,-37,33
438,2159,7,-424,-4616,23,-88,-40,34
439,2158,2,-426,-4623,23,-86,-43,34
440,2163,-7,-419,-4629,23,-87,-35,31
441,2159,3,-421,-4618,23,-88,-40,33
442,2163,0,-413,-4628,23,-89,-38,34
443,2161,-2,-424,-4624,23,-87,-39,38
444,2162,5,-438,-4627,23,-88,-38,40
445,2157,-4,-425,-4617,23,-87,-35,37
446,2151,3,-408,-4617,23,-82,-40,37
447,2159,1,-417,-4627,23,-88,-42,32
448,2162,2,-420,-4639,23,-89,-38,36
449,2159,2,-417,-4628,23,-83,-39,35
450,2161,-1,-432,-4627,23,-89,-35,34
451,2161,2,-422,-4634,23,-84,-39,35
452,2163,-5,-425,-4623,23,-87,-37,34
453,2160,-3,-424,-4624,23,-89,-39,34
454,2154,-4,-419,-4620,23,-85,-38,33
455,2154,3,-419,-4617,23,-82,-39,36
456,2163,3,-416,-4629,23,-85,-37,34
457,2160,0,-438,-4636,23,-89,-43,34
458,2157,2,-433,-4627,23,-94,-38,36
459,2158,-6,-422,-4630,23,-88,-36,33
460,2161,-1,-429,-4626,23,-85,-34,35
461,2154,5,-421,-4626,23,-87,-38,34
462,2163,3,-420,-4618,23,-90,-37,34
463,2153,-2,-418,-4620,23,-90,-38,33
464,2161,2,-432,-4626,23,-88,-38,35
465,2168,0,-428,-4633,23,-85,-34,31
466,2163,2,-422,-4630,23,-88,-38,35
467,2161,-1,-424,-4625,23,-88,-39,34
468,2158,-1,-416,-4616,23,-86,-39,37
469,2156,2,-428,-4619,23,-86,-35,36
470,2160,-3,-423,-4624,23,-86,-38,36
471,2170,8,-415,-4621,23,-88,-42,36
472,2155,1,-424,-4622,23,-85,-39,33
473,2161,4,-419,-4625,23,-87,-36,35
474,2156,1,-426,-4623,23,-88,-34,33
475,2158,-5,-421,-4612,23,-88,-33,34
476,2152,4,-419,-4626,23,-86,-40,33
477,2152,-1,-427,-4616,23,-85,-36,34
478,2158,3,-430,-4637,23,-86,-37,36
479,2161,-2,-431,-4628,23,-86,-42,35
480,2159,-4,-423,-4626,23,-83,-37,37
481,2166,1,-420,-4624,23,-83,-43,34
482,2157,-1,-427,-4627,23,-89,-35,34
483,2160,-3,-429,-4626,23,-90,-36,36
484,2165,4,-423,-4626,23,-84,-40,31
485,2157,0,-418,-4629,23,-88,-43,32
486,2157,5,-421,-4632,23,-86,-38,35
487,2161,0,-426,-4623,23,-87,-38,33
488,2162,4,-421,-4631,23,-83,-39,38
489,2150,-5,-420,-4623,23,-89,-34,38
490,2161,1,-431,-4632,23,-88,-40,37
491,2157,1,-429,-4619,23,-90,-43,37
492,2156,-3,-415,-4620,23,-86,-38,33
493,2158,1,-419,-4629,23,-88,-36,36
494,2162,4,-427,-4612,23,-91,-36,34
495,2160,-1,-426,-4628,23,-91,-38,34
496,2154,3,-437,-4624,23,-85,-37,34
497,2159,0,-419,-4630,23,-88,-39,35
498,2163,7,-429,-4630,23,-89,-39,33
499,2168,0,-421,-4622,23,-86,-40,34
500,2163,8,-427,-4628,23,-89,-37,35
501,2156,5,-420,-4624,23,-85,-39,34
502,2158,-2,-415,-4632,23,-89,-37,36
503,2170,5,-422,-4628,23,-88,-41,32
504,2157,6,-423,-4627,23,-84,-39,35
505,2163,4,-424,-4631,23,-88,-37,34
506,2155,-2,-425,-4629,23,-88,-37,34
507,2156,7,-428,-4624,23,-88,-36,36
508,2159,2,-420,-4617,23,-86,-35,31
509,2155,-1,-426,-4625,23,-88,-36,34
510,2152,2,-424,-4627,23,-89,-40,33
511,2154,4,-408,-4616,23,-88,-39,34
512,2156,-2,-416,-4626,23,-89,-40,35
513,2159,1,-412,-4626,23,-86,-36,36
514,2154,4,-433,-4627,23,-88,-38,35
515,2157,1,-415,-4631,23,-87,-39,39
516,2152,4,-425,-4625,23,-86,-39,34
517,2160,-2,-422,-4628,23,-84,-36,34
518,2158,-8,-428,-4628,23,-83,-37,37
519,2162,-2,-423,-4629,23,-87,-39,32
520,2162,-1,-429,-4635,23,-87,-36,36
521,2157,4,-426,-4612,23,-90,-37,35
522,2166,4,-425,-4629,23,-89,-39,33
523,2153,1,-422,-4634,23,-88,-34,34
524,2161,2,-428,-4634,23,-87,-35,35
525,2161,0,-432,-4627,23,-89,-34,34
526,2162,5,-424,-4629,23,-86,-37,36
527,2159,-1,-429,-4628,23,-85,-39,36
528,2158,1,-428,-4628,23,-85,-37,37
529,2158,1,-421,-4632,23,-89,-38,35
530,2164,5,-421,-4630,23,-86,-33,36
531,2160,-6,-429,-4634,23,-87,-39,36
532,2159,-8,-421,-4628,23,-88,-41,36
533,2162,1,-420,-4632,23,-90,-36,35
534,2166,2,-431,-4628,23,-85,-36,33
535,2157,-1,-425,-4631,23,-89,-37,35
536,2156,-2,-423,-4619,23,-90,-38,37
537,2165,-4,-425,-4628,23,-84,-36,39
538,2158,6,-417,-4629,23,-86,-39,34
539,2163,-2,-412,-4622,23,-86,-36,37
540,2161,-3,-419,-4626,23,-86,-37,33
541,2157,2,-432,-4626,23,-87,-39,33
542,2165,-2,-433,-4631,23,-87,-41,33
543,2157,-6,-421,-4624,23,-88,-39,35
544,2161,0,-421,-4630,23,-88,-37,33
545,2158,-4,-433,-4621,23,-85,-40,32
546,2161,3,-425,-4621,23,-86,-37,34
547,2162,2,-430,-4635,23,-88,-40,34
548,2163,-3,-435,-4627,23,-87,-36,39
549,2154,-5,-416,-4633,23,-88,-40,36
550,2162,5,-424,-4622,23,-87,-38,34
551,2163,-7,-429,-4620,23,-91,-40,33
552,2158,3,-428,-4619,23,-87,-39,33
553,2163,1,-427,-4609,23,-89,-38,36
554,2152,3,-430,-4626,23,-86,-40,35
555,2149,2,-430,-4618,23,-85,-40,33
556,2160,-2,-421,-4627,23,-83,-35,35
557,2160,1,-426,-4629,23,-88,-37,33
558,2163,1,-416,-4623,23,-87,-38,35
559,2159,-4,-417,-4632,23,-86,-41,34
560,2162,-2,-422,-4625,23,-87,-40,36
561,2162,-6,-424,-4621,23,-86,-33,34
562,2161,10,-433,-4622,23,-92,-39,33
563,2163,-4,-419,-4616,23,-86,-36,35
564,2160,1,-423,-4626,23,-87,-35,33
565,2155,0,-416,-4626,23,-88,-37,33
566,2160,-2,-419,-4627,23,-85,-36,37
567,2172,2,-418,-4628,23,-87,-38,35
568,2155,1,-428,-4627,23,-88,-37,34
569,2162,0,-416,-4619,23,-85,-40,34
570,2167,4,-419,-4623,23,-91,-35,39
571,2166,4,-421,-4620,23,-88,-37,33
572,2158,1,-431,-4628,23,-91,-40,33
573,2162,-2,-421,-4619,23,-88,-38,34
574,2162,-2,-421,-4619,23,-86,-40,34
575,2160,4,-425,-4630,23,-89,-37,36
576,2158,3,-416,-4635,23,-86,-38,33
577,2160,5,-415,-4629,23,-84,-40,33
578,2159,2,-423,-4623,23,-85,-35,35
579,2156,3,-416,-4626,23,-86,-40,36
580,2159,1,-424,-4634,23,-89,-37,36
581,2158,-2,-425,-4620,23,-88,-36,37
582,2155,0,-420,-4610,23,-86,-38,35
583,2155,2,-416,-4626,23,-88,-37,34
584,2149,3,-427,-4612,23,-89,-40,36
585,2163,0,-416,-4630,23,-90,-37,34
586,2154,4,-433,-4623,23,-86,-39,35
587,2156,0,-434,-4629,23,-88,-36,36
588,2151,-3,-416,-4625,23,-86,-36,35
589,2156,-3,-427,-4618,23,-84,-38,38
590,2163,1,-428,-4627,23,-88,-35,35
591,2166,3,-422,-4625,23,-88,-37,32
592,2155,-8,-433,-4626,23,-86,-35,34
593,2156,-2,-427,-4628,23,-91,-39,31
594,2159,0,-416,-4631,23,-90,-38,32
595,2156,-7,-424,-4624,23,-89,-35,35
596,2162,-4,-423,-4620,23,-87,-37,35
597,2156,-2,-428,-4636,23,-87,-39,34
598,2160,-5,-422,-4620,23,-87,-35,34
599,2159,0,-428,-4615,23,-89,-40,34
600,2155,-6,-416,-4621,23,-89,-34,33
601,2163,4,-436,-4620,23,-86,-37,34
602,2166,-2,-425,-4629,23,-88,-41,33
603,2162,-1,-419,-4629,23,-85,-39,37
604,2165,-3,-423,-4623,23,-85,-37,34
605,2163,-5,-429,-4632,23,-86,-37,38
606,2164,5,-423,-4624,23,-87,-37,34
607,2163,-3,-418,-4637,23,-82,-37,37
608,2156,4,-419,-4628,23,-87,-42,35
609,2154,-5,-421,-4627,23,-86,-39,33
610,2161,-4,-423,-4628,23,-89,-37,38
611,2157,1,-416,-4627,23,-88,-41,34
612,2164,-3,-428,-4627,23,-90,-36,34
613,2160,-2,-425,-4629,23,-90,-39,35
614,2156,-8,-419,-4632,23,-90,-37,34
615,2167,-3,-428,-4622,23,-89,-40,35
616,2157,1,-420,-4627,23,-89,-38,35
617,2157,5,-424,-4624,23,-88,-35,34
618,2165,4,-426,-4635,23,-89,-37,34
619,2167,-1,-426,-4636,23,-90,-42,36
620,2162,5,-421,-4627,23,-87,-35,36
621,2162,0,-422,-4627,23,-88,-38,35
622,2159,-6,-421,-4624,23,-87,-42,36
623,2163,0,-421,-4625,23,-86,-35,38
624,2162,-3,-432,-4626,23,-86,-36,36
625,2161,-1,-426,-4625,23,-86,-38,36
626,2163,2,-412,-4627,23,-87,-39,33
627,2162,-2,-420,-4624,23,-89,-37,35
628,2162,2,-426,-4620,23,-84,-40,34
629,2156,-2,-426,-4636,23,-87,-36,35
630,2159,12,-432,-4627,23,-90,-33,36
631,2165,4,-430,-4630,23,-89,-37,35
632,2163,1,-427,-4629,23,-86,-35,35
633,2163,-4,-432,-4625,23,-86,-35,32
634,2154,0,-422,-4634,23,-85,-35,33
635,2168,-1,-431,-4631,23,-86,-37,34
636,2155,2,-422,-4631,23,-89,-41,35
637,2147,-3,-418,-4625,23,-86,-36,36
638,2158,-1,-428,-4627,23,-89,-36,37
639,2157,-11,-424,-4628,23,-89,-40,37
640,2166,-3,-423,-4625,23,-88,-39,38
641,2163,8,-416,-4624,23,-87,-39,33
642,2165,0,-418,-4617,23,-88,-41,37
643,2153,3,-426,-4626,23,-90,-38,36
644,2161,1,-425,-4627,23,-88,-40,35
645,2158,4,-422,-4624,23,-88,-35,32
646,2167,3,-416,-4631,23,-88,-43,34
647,2153,1,-420,-4626,23,-83,-38,37
648,2156,-5,-416,-4618,23,-86,-35,36
649,2163,-3,-421,-4631,23,-84,-42,35
650,2162,2,-429,-4638,23,-89,-41,36
651,2160,-3,-432,-4631,23,-85,-39,32
652,2156,3,-422,-4628,23,-85,-41,36
653,2160,7,-428,-4621,23,-88,-38,35
654,2159,3,-419,-4630,23,-85,-36,34
655,2159,2,-418,-4620,23,-91,-40,37
656,2152,-4,-426,-4635,23,-88,-39,36
657,2159,-1,-435,-4626,23,-87,-40,33
658,2159,0,-423,-4624,23,-88,-41,38
659,2164,7,-416,-4625,23,-88,-37,33
660,2160,-4,-435,-4617,23,-88,-35,37
661,2158,0,-422,-4626,23,-87,-36,37
662,2161,3,-422,-4624,23,-89,-36,35
663,2156,-5,-426,-4626,23,-84,-40,33
664,2162,-8,-432,-4626,23,-86,-35,35
665,2159,3,-432,-4625,23,-89,-38,36
666,2163,-3,-427,-4639,23,-89,-39,39
667,2156,6,-429,-4635,23,-88,-38,36
668,2159,0,-436,-4622,23,-87,-39,34
669,2161,5,-426,-4635,23,-88,-39,34
670,2160,1,-428,-4631,23,-88,-40,31
671,2161,2,-426,-4620,23,-87,-39,36
672,2157,-4,-421,-4628,23,-86,-36,33
673,2166,1,-433,-4632,23,-88,-39,34
674,2162,2,-421,-4636,23,-87,-39,36
675,2160,6,-432,-4627,23,-87,-39,38
676,2161,1,-425,-4625,23,-88,-37,35
677,2159,1,-429,-4614,23,-90,-38,35
678,2145,2,-431,-4627,23,-86,-36,34
679,2157,1,-417,-4626,23,-86,-35,34
680,2155,4,-433,-4637,23,-86,-41,34
681,2161,-2,-431,-4627,23,-90,-39,37
682,2165,-1,-438,-4622,23,-89,-39,35
683,2155,5,-432,-4628,23,-89,-40,35
684,2150,1,-415,-4617,23,-87,-38,35
685,2166,-4,-419,-4612,23,-84,-38,34
686,2158,-3,-424,-4627,23,-87,-37,32
687,2156,7,-423,-4638,23,-88,-36,35
688,2165,-5,-424,-4629,23,-88,-37,34
689,2156,-2,-430,-4626,23,-85,-38,35
690,2163,2,-428,-4627,23,-87,-42,39
691,2167,0,-426,-4625,23,-87,-39,33
692,2158,3,-421,-4623,23,-87,-37,33
693,2148,-6,-435,-4628,23,-87,-38,33
694,2159,-3,-413,-4618,23,-84,-41,35
695,2157,-3,-426,-4630,23,-89,-38,34
696,2162,-1,-436,-4616,23,-86,-37,35
697,2158,4,-418,-4625,23,-86,-35,34
698,2159,-1,-427,-4617,23,-87,-41,34
699,2161,0,-419,-4614,23,-86,-38,32
700,2158,0,-423,-4626,23,-90,-37,35
701,2158,2,-415,-4616,23,-86,-35,35
702,2160,2,-418,-4625,23,-89,-38,36
703,2162,-1,-430,-4629,23,-89,-39,34
704,2164,2,-429,-4617,23,-89,-40,36
705,2160,-6,-427,-4627,23,-86,-38,33
706,2166,3,-419,-4627,23,-88,-41,34
707,2161,2,-433,-4627,23,-90,-37,36
708,2162,-5,-415,-4621,23,-87,-38,37
709,2162,-1,-429,-4614,23,-86,-38,35
710,2162,0,-439,-4623,23,-89,-40,36
711,2165,-1,-421,-4631,23,-90,-37,36
712,2152,5,-426,-4634,23,-89,-33,36
713,2160,3,-419,-4620,23,-86,-39,34
714,2160,-3,-426,-4624,23,-87,-38,36
715,2161,2,-416,-4606,23,-89,-40,35
716,2159,1,-413,-4629,23,-89,-37,33
717,2166,5,-428,-4618,23,-87,-38,33
718,2159,2,-431,-4622,23,-87,-34,32
719,2157,2,-414,-4622,23,-86,-36,33
720,2153,3,-432,-4619,23,-86,-37,34
721,2163,0,-424,-4630,23,-90,-42,35
722,2154,3,-430,-4620,23,-86,-44,35
723,2163,2,-424,-4618,23,-87,-35,36
724,2159,11,-428,-4624,23,-89,-37,33
725,2166,-4,-426,-4618,23,-87,-37,37
726,2160,4,-417,-4622,23,-85,-38,37
727,2161,2,-421,-4631,23,-89,-38,36
728,2163,8,-421,-4625,23,-86,-36,33
729,2160,4,-441,-4625,23,-88,-37,33
730,2159,0,-435,-4625,23,-86,-37,35
731,2163,-3,-410,-4619,23,-86,-40,37
732,2159,-4,-422,-4620,23,-87,-40,34
733,2162,0,-431,-4623,23,-87,-39,36
734,2155,-2,-411,-4633,23,-87,-36,35
735,2160,-5,-426,-4625,23,-88,-38,34
736,2164,0,-423,-4621,23,-88,-39,36
737,2156,3,-422,-4621,23,-89,-38,34
738,2166,0,-414,-4624,23,-86,-38,36
739,2165,2,-424,-4628,23,-86,-35,34
740,2164,-7,-421,-4620,23,-81,-35,31
741,2158,-1,-423,-4628,23,-91,-38,32
742,2163,2,-423,-4623,23,-85,-37,34
743,2166,0,-431,-4621,23,-86,-40,36
744,2157,-3,-421,-4628,23,-88,-34,35
745,2160,-2,-426,-4636,23,-87,-36,33
746,2159,0,-425,-4619,23,-86,-37,36
747,2156,-4,-426,-4608,23,-87,-41,32
748,2157,-8,-427,-4616,23,-89,-36,35
749,2162,5,-427,-4625,23,-89,-36,35
750,2155,-5,-419,-4615,23,-89,-41,36
751,2153,-2,-428,-4625,23,-88,-38,34
752,2160,6,-408,-4629,23,-86,-40,34
753,2156,-2,-437,-4621,23,-87,-35,36
754,2165,2,-427,-4628,23,-87,-39,36
755,2166,-1,-420,-4632,23,-90,-36,35
756,2160,3,-411,-4622,23,-84,-40,37
757,2164,-3,-425,-4623,23,-91,-40,40
758,2163,6,-414,-4625,23,-86,-39,35
759,2159,7,-422,-4620,23,-87,-36,36
760,2155,0,-426,-4620,23,-87,-36,34
761,2153,1,-421,-4628,23,-85,-37,35
762,2156,-1,-424,-4618,23,-89,-37,34
763,2160,1,-417,-4621,23,-89,-38,35
764,2162,-2,-418,-4632,23,-88,-41,36
765,2160,-1,-422,-4630,23,-90,-41,34
766,2160,0,-429,-4623,23,-88,-40,34
767,2160,-3,-422,-4623,23,-89,-38,34
768,2161,5,-427,-4632,23,-86,-41,35
769,2160,7,-427,-4622,23,-88,-36,34
770,2163,0,-424,-4624,23,-87,-38,38
771,2153,-5,-413,-4621,23,-87,-35,34
772,2165,-2,-417,-4628,23,-88,-38,35
773,2164,1,-431,-4628,23,-86,-39,35
774,2162,-1,-432,-4629,23,-91,-37,39
775,2159,-10,-431,-4629,23,-88,-43,34
776,2158,2,-432,-4633,23,-88,-38,34
777,2162,0,-426,-4628,23,-88,-37,33
778,2164,0,-422,-4638,23,-89,-40,35
779,2157,4,-427,-4627,23,-89,-38,37
780,2159,-2,-434,-4629,23,-88,-36,37
781,2155,-6,-428,-4611,23,-85,-38,33
782,2161,-4,-422,-4630,23,-88,-37,36
783,2154,-4,-437,-4629,23,-88,-39,34
784,2165,-2,-428,-4624,23,-85,-38,33
785,2155,-3,-427,-4617,23,-90,-39,34
786,2160,2,-431,-4615,23,-86,-39,34
787,2154,-3,-426,-4622,23,-91,-35,37
788,2151,7,-431,-4619,23,-89,-35,33
789,2158,7,-414,-4631,23,-90,-41,37
790,2167,-3,-421,-4623,23,-84,-37,33
791,2156,-3,-427,-4627,23,-90,-38,32
792,2161,8,-416,-4624,23,-90,-37,38
793,2158,2,-433,-4627,23,-88,-37,34
794,2155,5,-422,-4629,23,-88,-38,37
795,2158,-4,-427,-4637,23,-89,-37,34
796,2155,-3,-418,-4625,23,-88,-37,37
797,2161,-1,-420,-4628,23,-85,-38,38
798,2155,2,-438,-4625,23,-87,-35,33
799,2166,10,-425,-4621,23,-87,-36,35
800,2164,1,-420,-4625,23,-89,-39,34
801,2157,-7,-421,-4626,23,-91,-37,37
802,2168,2,-427,-4624,23,-86,-40,35
803,2159,-2,-423,-4624,23,-90,-35,35
804,2163,-1,-420,-4624,23,-88,-39,36
805,2164,-4,-423,-4616,23,-84,-39,36
806,2154,0,-426,-4623,23,-85,-39,35
807,2160,8,-430,-4622,23,-88,-37,34
808,2167,1,-430,-4624,23,-89,-36,34
809,2159,-4,-422,-4627,23,-84,-38,34
810,2157,-1,-430,-4626,23,-87,-38,33
811,2159,3,-423,-4641,23,-87,-40,34
812,2157,1,-437,-4626,23,-86,-39,34
813,2164,-6,-426,-4636,23,-87,-37,38
814,2156,-2,-422,-4631,23,-89,-41,37
815,2166,-4,-431,-4627,23,-84,-36,39
816,2159,6,-420,-4622,23,-85,-37,35
817,2168,-2,-424,-4616,23,-85,-37,34
818,2161,-3,-422,-4617,23,-88,-36,31
819,2166,-1,-419,-4632,23,-87,-40,35
820,2156,3,-418,-4619,23,-88,-35,34
821,2155,-6,-427,-4628,23,-86,-38,33
822,2167,3,-426,-4634,23,-88,-40,32
823,2164,-6,-435,-4615,23,-85,-38,32
824,2164,4,-432,-4634,23,-88,-37,37
825,2155,-6,-417,-4627,23,-85,-40,34
826,2161,5,-409,-4624,23,-87,-36,35
827,2151,0,-425,-4630,23,-87,-37,34
828,2160,5,-428,-4633,23,-88,-36,35
829,2155,-6,-425,-4632,23,-88,-39,36
830,2153,2,-418,-4632,23,-88,-36,34
831,2158,0,-411,-4636,23,-85,-37,34
832,2163,6,-423,-4623,23,-86,-39,35
833,2160,0,-432,-4623,23,-86,-35,35
834,2153,9,-424,-4624,23,-88,-41,36
835,2155,-1,-428,-4618,23,-87,-36,37
836,2159,-2,-434,-4630,23,-84,-39,35
837,2154,-4,-426,-4630,23,-87,-41,34
838,2160,7,-431,-4617,23,-91,-37,37
839,2165,0,-426,-4623,23,-87,-40,33
840,2162,-9,-429,-4620,23,-89,-39,35
841,2150,4,-429,-4618,23,-84,-37,37
842,2164,0,-436,-4637,23,-87,-39,35
843,2158,-4,-426,-4624,23,-86,-42,37
844,2156,-4,-425,-4629,23,-89,-40,34
845,2163,5,-429,-4628,23,-86,-37,34
846,2164,-1,-422,-4627,23,-88,-40,35
847,2156,4,-422,-4626,23,-86,-36,34
848,2155,0,-419,-4631,23,-88,-38,31
849,2157,0,-416,-4629,23,-89,-37,34
850,2155,-2,-425,-4628,23,-87,-39,37
851,2166,-2,-429,-4627,23,-88,-39,35
852,2164,-1,-431,-4624,23,-89,-37,38
853,2168,-6,-428,-4624,23,-85,-38,34
854,2150,1,-424,-4623,23,-84,-42,30
855,2148,-5,-426,-4632,23,-88,-35,32
856,2151,3,-422,-4640,23,-87,-38,35
857,2159,-2,-425,-4624,23,-86,-39,34
858,2158,-5,-420,-4624,23,-86,-40,33
859,2168,0,-419,-4626,23,-88,-41,35
860,2163,5,-423,-4622,23,-87,-37,36
861,2152,4,-423,-4626,23,-89,-38,35
862,2157,1,-438,-4628,23,-89,-36,32
863,2158,0,-425,-4625,23,-87,-35,37
864,2157,-1,-425,-4616,23,-88,-35,34
865,2156,-3,-426,-4631,23,-87,-35,34
866,2164,-2,-417,-4628,23,-86,-40,34
867,2157,0,-429,-4620,23,-88,-40,35
868,2154,0,-430,-4630,23,-88,-40,33
869,2160,-10,-428,-4619,23,-87,-37,36
870,2157,-4,-439,-4628,23,-87,-33,37
871,2161,10,-419,-4620,23,-88,-37,35
872,2158,0,-421,-4625,23,-88,-36,39
873,2157,0,-419,-4627,23,-86,-41,36
874,2167,-1,-423,-4630,23,-87,-35,31
875,2165,-5,-430,-4631,23,-87,-37,35
876,2154,1,-417,-4629,23,-87,-38,33
877,2151,-2,-421,-4617,23,-86,-35,34
878,2161,-3,-423,-4623,23,-85,-37,33
879,2164,4,-427,-4624,23,-91,-36,31
880,2163,3,-424,-4618,23,-87,-37,37
881,2167,1,-419,-4625,23,-89,-35,33
882,2160,6,-424,-4618,23,-90,-37,34
883,2159,0,-425,-4625,23,-89,-40,33
884,2153,0,-416,-4632,23,-88,-40,32
885,2158,3,-421,-4624,23,-87,-39,35
886,2156,-3,-434,-4620,23,-90,-35,35
887,2161,5,-425,-4617,23,-86,-36,36
888,2159,2,-421,-4630,23,-88,-39,32
889,2160,2,-423,-4627,23,-86,-37,34
890,2159,-5,-423,-4628,23,-88,-34,38
891,2160,-6,-433,-4634,23,-90,-36,34
892,2156,1,-422,-4623,23,-88,-39,35
893,2163,-1,-421,-4615,23,-86,-40,34
894,2160,3,-433,-4619,23,-89,-45,32
895,2158,-4,-430,-4623,23,-86,-40,33
896,2156,2,-423,-4627,23,-86,-38,37
897,2157,-2,-416,-4627,23,-86,-36,32
898,2159,5,-421,-4629,23,-86,-40,35
899,2157,0,-417,-4628,23,-87,-39,32
900,2155,8,-428,-4617,23,-87,-36,35
901,2161,6,-421,-4633,23,-88,-39,35
902,2162,-4,-426,-4628,23,-87,-38,36
903,2156,7,-424,-4621,23,-93,-36,35
904,2165,-3,-413,-4623,23,-89,-39,32
905,2158,-6,-423,-4622,23,-90,-40,33
906,2161,-6,-428,-4626,23,-84,-37,38
907,2161,-3,-429,-4628,23,-88,-39,32
908,2161,0,-430,-4625,23,-90,-35,34
909,2160,-1,-416,-4623,23,-86,-35,38
910,2163,-1,-418,-4625,23,-87,-39,36
911,2160,0,-436,-4630,23,-87,-37,35
912,2162,6,-422,-4626,23,-87,-38,34
913,2165,-7,-425,-4624,23,-85,-40,39
914,2154,2,-426,-4627,23,-89,-33,37
915,2158,2,-423,-4620,23,-88,-36,39
916,2151,6,-424,-4616,23,-87,-38,34
917,2158,6,-420,-4619,23,-86,-40,36
918,2158,0,-428,-4612,23,-87,-37,36
919,2161,-5,-425,-4621,23,-88,-38,31
920,2155,-4,-416,-4613,23,-88,-42,35
921,2166,8,-420,-4622,23,-87,-38,31
922,2159,-3,-425,-4618,23,-90,-39,36
923,2155,-2,-423,-4619,23,-86,-42,38
924,2156,3,-419,-4631,23,-85,-39,36
925,2156,8,-431,-4626,23,-89,-36,38
926,2157,7,-419,-4622,23,-88,-42,34
927,2161,-1,-427,-4630,23,-88,-39,36
928,2161,4,-414,-4629,23,-89,-38,32
929,2159,4,-425,-4616,23,-86,-40,34
930,2157,0,-422,-4628,23,-87,-37,35
931,2160,4,-424,-4616,23,-91,-39,38
932,2161,-6,-420,-4627,23,-90,-36,34
933,2161,-1,-418,-4626,23,-88,-42,37
934,2158,2,-419,-4619,23,-91,-39,35
935,2171,6,-428,-4624,23,-90,-40,34
936,2157,-3,-427,-4633,23,-90,-35,36
937,2157,-1,-423,-4621,23,-87,-38,37
938,2158,0,-427,-4625,23,-89,-36,34
939,2159,2,-423,-4619,23,-86,-36,35
940,2159,-1,-426,-4639,23,-88,-34,35
941,2159,-5,-423,-4626,23,-91,-38,34
942,2161,-2,-425,-4627,23,-87,-38,38
943,2155,3,-442,-4624,23,-89,-39,31
944,2166,-1,-425,-4625,23,-86,-36,33
945,2156,0,-418,-4628,23,-86,-39,33
946,2161,-7,-425,-4618,23,-91,-38,36
947,2158,-1,-424,-4633,23,-86,-38,35
948,2163,-3,-427,-4634,23,-85,-38,30
949,2161,2,-428,-4629,23,-88,-39,33
950,2156,1,-431,-4617,23,-86,-36,31
951,2154,-6,-422,-4619,23,-86,-39,33
952,2161,-1,-424,-4626,23,-88,-36,36
953,2160,-1,-431,-4622,23,-87,-39,33
954,2156,-5,-426,-4616,23,-86,-38,34
955,2157,0,-429,-4631,23,-86,-40,33
956,2158,0,-422,-4630,23,-87,-38,38
957,2159,3,-418,-4621,23,-87,-39,31
958,2153,-5,-426,-4625,23,-90,-42,32
959,2154,2,-429,-4621,23,-86,-37,34
960,2163,-2,-426,-4625,23,-85,-38,34
961,2154,-5,-435,-4628,23,-87,-39,36
962,2155,1,-422,-4609,23,-87,-39,33
963,2163,-2,-436,-4628,23,-87,-41,38
964,2152,-1,-424,-4631,23,-87,-39,32
965,2163,6,-419,-4620,23,-87,-42,34
966,2159,-1,-418,-4621,23,-87,-38,34
967,2161,2,-426,-4635,23,-87,-40,35
968,2163,0,-424,-4617,23,-88,-36,39
969,2159,8,-420,-4635,23,-85,-34,35
970,2157,4,-425,-4631,23,-86,-40,35
971,2159,-4,-425,-4625,23,-87,-36,34
972,2161,6,-428,-4623,23,-87,-37,35
973,2160,-1,-429,-4636,23,-84,-38,36
974,2153,3,-417,-4613,23,-91,-40,34
975,2166,-8,-420,-4626,23,-91,-37,35
976,2158,4,-424,-4619,23,-84,-40,33
977,2160,-5,-419,-4617,23,-89,-38,35
978,2158,2,-418,-4624,23,-88,-41,36
979,2161,1,-425,-4627,23,-86,-39,33
980,2158,3,-423,-4617,23,-89,-39,35
981,2156,1,-421,-4618,23,-86,-37,37
982,2155,1,-421,-4622,23,-88,-39,34
983,2161,4,-417,-4621,23,-86,-38,34
984,2158,2,-419,-4620,23,-87,-37,34
985,2161,-2,-434,-4627,23,-89,-37,34
986,2163,-1,-429,-4621,23,-91,-38,33
987,2168,-1,-420,-4632,23,-88,-37,36
988,2167,2,-427,-4625,23,-85,-36,32
989,2164,0,-440,-4614,23,-87,-38,34
990,2158,3,-420,-4626,23,-88,-36,34
991,2157,1,-424,-4626,23,-89,-37,33
992,2159,1,-428,-4620,23,-90,-36,31
993,2154,5,-431,-4618,23,-86,-39,34
994,2159,3,-426,-4632,23,-87,-37,36
995,2160,2,-433,-4614,23,-85,-38,33
996,2164,-4,-421,-4618,23,-86,-41,32
997,2159,6,-421,-4632,23,-88,-35,34
998,2155,1,-435,-4619,23,-86,-41,34
