,acc_X,acc_Y,acc_Z,temp,tempC,gyr_X,gyr_Y,gyr_Z
0,4317,5,-855,-4633,23,-90,-34,32
1,4329,14,-836,-4641,23,-86,-37,35
2,4317,0,-850,-4637,23,-88,-39,33
3,4317,9,-845,-4637,23,-89,-38,36
4,4327,-1,-867,-4640,23,-87,-41,35
5,4318,-8,-850,-4637,23,-89,-38,36
6,4322,-12,-835,-4646,23,-94,-35,35
7,4323,14,-827,-4645,23,-87,-33,35
8,4301,-2,-847,-4641,23,-88,-36,33
9,4314,12,-860,-4638,23,-86,-41,35
10,4318,-5,-850,-4643,23,-87,-37,37
11,4322,13,-853,-4630,23,-89,-40,35
12,4319,9,-851,-4625,23,-89,-41,32
13,4310,0,-837,-4631,23,-89,-40,34
14,4327,8,-830,-4632,23,-87,-33,36
15,4314,2,-835,-4631,23,-89,-37,36
16,4324,14,-865,-4643,23,-85,-37,32
17,4309,9,-853,-4634,23,-87,-39,32
18,4300,-5,-820,-4644,23,-89,-34,32
19,4315,-17,-856,-4637,23,-87,-40,37
20,4319,26,-848,-4637,23,-86,-40,36
21,4311,4,-835,-4639,23,-91,-35,35
22,4314,-4,-839,-4639,23,-89,-36,35
23,4326,4,-844,-4647,23,-91,-34,35
24,4316,-1,-849,-4648,23,-86,-36,33
25,4326,7,-844,-4634,23,-86,-44,35
26,4312,1,-845,-4633,23,-89,-39,34
27,4313,6,-871,-4636,23,-87,-39,35
28,4317,-1,-858,-4637,23,-89,-40,35
29,4333,-17,-841,-4635,23,-89,-41,34
30,4329,-2,-839,-4646,23,-85,-39,35
31,4318,10,-831,-4648,23,-94,-40,31
32,4319,1,-856,-4631,23,-84,-38,36
33,4334,-9,-861,-4645,23,-89,-38,37
34,4321,14,-842,-4645,23,-89,-38,36
35,4300,-4,-849,-4633,23,-90,-37,29
36,4311,7,-849,-4632,23,-88,-37,34
37,4317,-4,-841,-4637,23,-86,-39,35
38,4335,-9,-845,-4650,23,-87,-35,36
39,4318,7,-850,-4639,23,-87,-40,34
40,4342,15,-838,-4651,23,-87,-38,38
41,4322,1,-837,-4639,23,-88,-37,33
42,4314,-1,-832,-4635,23,-87,-39,33
43,4321,4,-843,-4633,23,-87,-33,36
44,4319,17,-864,-4645,23,-88,-36,35
45,4310,-9,-853,-4633,23,-86,-38,36
46,4314,-4,-850,-4634,23,-87,-40,37
47,4307,1,-832,-4646,23,-88,-37,35
48,4317,-1,-832,-4636,23,-88,-40,31
49,4317,-13,-840,-4631,23,-89,-36,35
50,4330,-8,-836,-4629,23,-89,-37,37
51,4325,-7,-839,-4641,23,-86,-39,35
52,4308,-9,-860,-4629,23,-89,-38,34
53,4314,17,-842,-4640,23,-87,-39,35
54,4329,1,-863,-4639,23,-88,-36,37
55,4323,0,-833,-4631,23,-86,-35,33
56,4313,-15,-868,-4635,23,-89,-38,35
57,4322,-2,-849,-4634,23,-87,-37,36
58,4324,-1,-858,-4631,23,-87,-39,36
59,4322,-8,-834,-4639,23,-89,-33,34
60,4322,5,-851,-4635,23,-89,-38,32
61,4315,6,-853,-4638,23,-88,-38,36
62,4325,6,-855,-4637,23,-89,-41,35
63,4328,-6,-854,-4646,23,-87,-36,35
64,4330,6,-866,-4627,23,-86,-40,34
65,4315,-2,-856,-4640,23,-86,-35,32
66,4315,-2,-853,-4633,23,-87,-39,35
67,4328,0,-839,-4639,23,-86,-36,36
68,4309,-5,-842,-4634,23,-89,-37,34
69,4319,-5,-850,-4643,23,-90,-38,32
70,4320,15,-853,-4639,23,-89,-39,31
71,4310,5,-859,-4640,23,-90,-39,35
72,4314,7,-843,-4648,23,-84,-39,33
73,4327,12,-852,-4644,23,-90,-37,34
74,4330,-1,-853,-4634,23,-84,-38,34
75,4316,3,-842,-4632,23,-87,-33,34
76,4310,-7,-825,-4636,23,-91,-38,34
77,4317,5,-846,-4650,23,-90,-41,33
78,4320,-4,-847,-4634,23,-86,-36,32
79,4323,-8,-863,-4648,23,-86,-38,35
80,4312,-3,-853,-4644,23,-86,-38,34
81,4326,-6,-846,-4643,23,-89,-37,36
82,4314,-4,-825,-4649,23,-87,-36,34
83,4335,-2,-865,-4637,23,-86,-39,35
84,4320,-1,-839,-4633,23,-86,-38,35
85,4321,2,-855,-4645,23,-88,-37,33
86,4315,2,-838,-4642,23,-90,-36,37
87,4323,-14,-859,-4639,23,-90,-35,35
88,4329,5,-837,-4633,23,-88,-38,31
89,4317,-2,-828,-4640,23,-87,-37,36
90,4320,10,-854,-4643,23,-85,-38,33
91,4317,-6,-872,-4641,23,-88,-37,38
92,4322,18,-838,-4623,23,-87,-38,36
93,4326,-4,-860,-4633,23,-88,-40,35
94,4313,3,-853,-4632,23,-89,-40,33
95,4333,-4,-848,-4633,23,-85,-42,37
96,4317,-12,-868,-4639,23,-87,-38,33
97,4328,-7,-850,-4640,23,-84,-41,34
98,4309,19,-848,-4639,23,-87,-36,35
99,4318,-1,-828,-4631,23,-89,-37,35
100,4308,6,-842,-4632,23,-84,-39,35
101,4322,-8,-857,-4627,23,-89,-37,32
102,4308,17,-851,-4641,23,-86,-37,38
103,4313,12,-839,-4640,23,-85,-40,35
104,4314,-2,-835,-4635,23,-87,-37,36
105,4328,9,-845,-4635,23,-86,-39,40
106,4324,12,-868,-4637,23,-87,-40,35
107,4313,-4,-867,-4629,23,-89,-39,35
108,4337,-7,-826,-4634,23,-90,-37,32
109,4333,8,-856,-4640,23,-86,-36,31
110,4298,3,-851,-4635,23,-89,-38,35
111,4302,-17,-857,-4640,23,-87,-40,35
112,4306,2,-853,-4630,23,-86,-36,34
113,4318,-7,-837,-4619,23,-86,-36,31
114,4317,2,-832,-4630,23,-89,-37,35
115,4326,-10,-854,-4628,23,-88,-37,35
116,4327,5,-852,-4632,23,-89,-40,33
117,4315,9,-860,-4637,23,-86,-35,34
118,4326,7,-844,-4640,23,-85,-37,35
119,4321,-2,-843,-4627,23,-88,-38,33
120,4325,-10,-858,-4634,23,-88,-37,33
121,4336,-5,-857,-4636,23,-89,-37,33
122,4301,-13,-851,-4633,23,-86,-38,36
123,4324,9,-845,-4634,23,-86,-38,34
124,4320,1,-862,-4633,23,-90,-36,35
125,4320,1,-846,-4651,23,-86,-35,38
126,4316,3,-835,-4636,23,-86,-41,34
127,4340,11,-859,-4621,23,-91,-40,33
128,4309,-8,-839,-4640,23,-93,-38,33
129,4316,5,-840,-4630,23,-88,-39,34
130,4324,12,-854,-4629,23,-90,-38,34
131,4328,-14,-827,-4639,23,-86,-36,34
132,4314,-7,-849,-4640,23,-90,-39,32
133,4318,-2,-838,-4644,23,-90,-39,37
134,4313,6,-855,-4633,23,-88,-40,34
135,4320,17,-856,-4628,23,-89,-39,37
136,4311,8,-848,-4629,23,-88,-36,33
137,4319,15,-882,-4639,23,-85,-37,35
138,4320,2,-826,-4638,23,-88,-36,35
139,4321,-8,-835,-4644,23,-86,-38,37
140,4324,8,-851,-4642,23,-87,-37,36
141,4312,-8,-843,-4637,23,-88,-37,35
142,4304,-1,-842,-4645,23,-88,-40,35
143,4320,-2,-847,-4634,23,-87,-36,37
144,4316,15,-847,-4639,23,-91,-41,36
145,4330,4,-845,-4645,23,-84,-38,34
146,4321,5,-858,-4631,23,-89,-37,33
147,4310,-9,-840,-4629,23,-87,-38,36
148,4324,20,-836,-4636,23,-89,-39,29
149,4308,3,-850,-4642,23,-85,-37,33
150,4305,-5,-843,-4638,23,-90,-35,35
151,4322,8,-847,-4637,23,-88,-35,35
152,4319,5,-850,-4645,23,-89,-38,37
153,4322,-7,-843,-4635,23,-86,-42,33
154,4321,-2,-874,-4639,23,-86,-37,36
155,4322,2,-816,-4634,23,-85,-38,37
156,4325,3,-873,-4640,23,-86,-39,35
157,4321,24,-845,-4638,23,-88,-39,34
158,4312,-8,-834,-4635,23,-88,-39,34
159,4314,-18,-843,-4641,23,-87,-37,37
160,4319,4,-814,-4632,23,-88,-42,34
161,4315,12,-848,-4629,23,-84,-40,35
162,4308,14,-840,-4629,23,-87,-35,33
163,4333,9,-841,-4639,23,-91,-37,36
164,4322,4,-833,-4628,23,-87,-41,34
165,4325,7,-837,-4638,23,-87,-38,35
166,4323,-3,-837,-4638,23,-90,-37,35
167,4326,-3,-845,-4634,23,-87,-41,37
168,4310,6,-837,-4641,23,-86,-36,35
169,4299,6,-845,-4643,23,-87,-40,34
170,4317,0,-852,-4632,23,-89,-36,34
171,4331,14,-838,-4637,23,-85,-38,34
172,4317,-2,-829,-4643,23,-86,-38,34
173,4314,-14,-844,-4632,23,-90,-38,34
174,4309,-13,-857,-4643,23,-88,-37,33
175,4319,4,-833,-4642,23,-87,-39,35
176,4309,-12,-837,-4632,23,-89,-36,34
177,4324,9,-859,-4638,23,-89,-39,34
178,4322,7,-852,-4627,23,-90,-41,36
179,4318,-3,-844,-4632,23,-84,-37,30
180,4337,9,-855,-4627,23,-88,-36,31
181,4317,4,-857,-4632,23,-90,-37,34
182,4312,-8,-860,-4646,23,-87,-36,36
183,4309,-14,-850,-4640,23,-89,-40,35
184,4321,-6,-836,-4636,23,-91,-37,35
185,4308,-3,-845,-4643,23,-91,-37,36
186,4310,8,-839,-4641,23,-86,-37,35
187,4318,12,-831,-4632,23,-87,-39,34
188,4314,13,-829,-4633,23,-90,-42,36
189,4316,-4,-859,-4636,23,-85,-39,35
190,4322,7,-831,-4635,23,-85,-36,35
191,4332,-2,-862,-4636,23,-88,-41,33
192,4312,8,-839,-4642,23,-90,-40,36
193,4319,-13,-843,-4642,23,-88,-37,33
194,4321,13,-827,-4643,23,-89,-37,33
195,4308,8,-863,-4637,23,-87,-38,38
196,4319,1,-853,-4639,23,-89,-37,35
197,4323,-7,-861,-4636,23,-88,-37,32
198,4320,1,-842,-4639,23,-87,-37,35
199,4326,13,-864,-4638,23,-87,-38,35
200,4309,6,-832,-4644,23,-87,-34,35
201,4318,12,-851,-4636,23,-88,-36,31
202,4319,-2,-847,-4644,23,-86,-40,32
203,4320,2,-833,-4634,23,-90,-37,32
204,4310,10,-845,-4636,23,-85,-38,36
205,4325,3,-834,-4638,23,-85,-41,37
206,4319,1,-842,-4635,23,-85,-39,36
207,4322,4,-842,-4633,23,-91,-35,35
208,4317,-2,-862,-4635,23,-87,-38,35
209,4329,-12,-859,-4645,23,-86,-42,37
210,4306,3,-834,-4632,23,-85,-38,35
211,4336,-1,-823,-4638,23,-85,-39,34
212,4322,3,-834,-4633,23,-89,-38,35
213,4334,-8,-846,-4626,23,-90,-36,37
214,4311,-2,-851,-4631,23,-89,-39,35
215,4326,-13,-850,-4631,23,-88,-38,34
216,4322,4,-850,-4626,23,-87,-40,33
217,4330,8,-860,-4632,23,-90,-38,36
218,4333,-5,-868,-4632,23,-87,-37,37
219,4307,16,-834,-4634,23,-88,-37,35
220,4316,-4,-844,-4630,23,-88,-36,32
221,4328,8,-850,-4640,23,-89,-35,33
222,4326,1,-843,-4637,23,-90,-42,33
223,4326,3,-815,-4631,23,-89,-36,35
224,4314,8,-846,-4636,23,-86,-37,35
225,4317,22,-858,-4628,23,-89,-38,33
226,4313,-11,-857,-4623,23,-92,-42,33
227,4311,11,-858,-4633,23,-87,-38,36
228,4327,6,-851,-4631,23,-90,-38,35
229,4321,-8,-855,-4637,23,-87,-36,34
230,4316,8,-838,-4637,23,-85,-37,35
231,4307,3,-850,-4628,23,-84,-41,36
232,4311,-1,-857,-4636,23,-90,-36,33
233,4324,0,-866,-4641,23,-90,-39,35
234,4316,1,-837,-4636,23,-85,-37,34
235,4321,-10,-834,-4631,23,-88,-35,34
236,4336,7,-856,-4633,23,-90,-40,36
237,4325,4,-852,-4639,23,-92,-37,33
238,4319,20,-839,-4633,23,-88,-39,36
239,4324,-3,-836,-4641,23,-88,-36,34
240,4309,6,-847,-4631,23,-86,-40,35
241,4311,2,-862,-4633,23,-84,-39,35
242,4319,-1,-840,-4633,23,-86,-36,34
243,4318,3,-851,-4647,23,-90,-38,36
244,4320,-16,-843,-4632,23,-86,-39,36
245,4312,0,-838,-4630,23,-85,-36,36
246,4321,10,-877,-4641,23,-86,-37,37
247,4322,10,-832,-4631,23,-87,-37,36
248,4310,-9,-849,-4632,23,-83,-37,36
249,4321,0,-827,-4628,23,-87,-36,35
250,4305,12,-842,-4629,23,-88,-37,36
251,4311,-1,-855,-4641,23,-91,-36,35
252,4319,-6,-844,-4638,23,-89,-39,35
253,4322,16,-861,-4628,23,-87,-41,33
254,4317,11,-852,-4635,23,-88,-38,38
255,4317,-6,-849,-4636,23,-90,-36,36
256,4341,6,-861,-4629,23,-87,-36,34
257,4323,-1,-857,-4634,23,-89,-36,32
258,4328,5,-851,-4621,23,-87,-36,34
259,4316,-1,-839,-4632,23,-87,-39,29
260,4313,-3,-833,-4634,23,-86,-38,35
261,4313,-10,-869,-4639,23,-92,-37,34
262,4319,3,-871,-4632,23,-86,-40,36
263,4313,0,-853,-4639,23,-87,-38,38
264,4318,-5,-858,-4628,23,-87,-40,36
265,4318,-1,-850,-4632,23,-88,-39,36
266,4308,-2,-846,-4631,23,-87,-41,36
267,4304,18,-828,-4625,23,-87,-36,34
268,4326,7,-846,-4633,23,-85,-36,31
269,4323,3,-865,-4630,23,-86,-35,32
270,4313,12,-835,-4635,23,-89,-39,34
271,4323,-6,-843,-4624,23,-86,-38,33
272,4332,-12,-850,-4633,23,-83,-37,32
273,4323,-10,-832,-4631,23,-87,-41,34
274,4325,4,-835,-4639,23,-85,-40,33
275,4330,3,-864,-4630,23,-85,-37,34
276,4332,-2,-850,-4637,23,-91,-39,34
277,4322,8,-850,-4626,23,-88,-39,38
278,4317,-4,-831,-4626,23,-89,-38,34
279,4306,-4,-864,-4632,23,-89,-37,35
280,4323,-3,-832,-4630,23,-87,-36,36
281,4307,8,-872,-4631,23,-84,-39,34
282,4320,1,-847,-4628,23,-85,-39,33
283,4315,19,-846,-4627,23,-88,-36,36
284,4308,6,-861,-4630,23,-86,-38,38
285,4312,11,-849,-4624,23,-88,-36,35
286,4302,6,-867,-4624,23,-88,-38,33
287,4330,13,-819,-4631,23,-87,-43,36
288,4315,4,-847,-4626,23,-89,-35,31
289,4320,18,-850,-4630,23,-91,-38,31
290,4311,-5,-859,-4630,23,-86,-37,33
291,4323,4,-845,-4627,23,-87,-41,38
292,4328,7,-859,-4629,23,-84,-36,34
293,4303,-4,-867,-4628,23,-90,-34,35
294,4304,4,-848,-4626,23,-87,-35,34
295,4305,11,-843,-4633,23,-87,-35,32
296,4317,-7,-859,-4630,23,-86,-40,35
297,4313,2,-854,-4627,23,-85,-38,36
298,4318,5,-853,-4631,23,-86,-35,34
299,4320,-2,-856,-4634,23,-87,-36,38
300,4332,10,-853,-4627,23,-87,-42,34
301,4305,12,-866,-4629,23,-83,-38,32
302,4321,14,-834,-4628,23,-90,-35,36
303,4318,-2,-865,-4634,23,-89,-36,34
304,4316,-4,-830,-4634,23,-88,-41,35
305,4332,-3,-828,-4635,23,-91,-37,32
306,4314,-7,-839,-4626,23,-86,-38,35
307,4313,5,-855,-4627,23,-90,-41,34
308,4310,11,-877,-4618,23,-88,-38,35
309,4314,-12,-849,-4633,23,-87,-36,36
310,4306,8,-847,-4636,23,-85,-37,36
311,4328,5,-846,-4635,23,-85,-39,32
312,4320,-4,-853,-4626,23,-86,-37,37
313,4321,6,-850,-4628,23,-87,-41,35
314,4329,0,-837,-4631,23,-90,-36,36
315,4318,6,-849,-4633,23,-85,-39,36
316,4331,-9,-833,-4631,23,-89,-39,33
317,4316,3,-853,-4616,23,-90,-37,34
318,4333,19,-860,-4630,23,-87,-42,35
319,4310,-1,-860,-4638,23,-88,-37,32
320,4335,-12,-849,-4638,23,-89,-39,36
321,4334,-1,-847,-4623,23,-86,-37,36
322,4345,8,-867,-4633,23,-86,-42,32
323,4329,7,-842,-4625,23,-86,-37,36
324,4324,16,-829,-4637,23,-88,-40,35
325,4336,-4,-851,-4634,23,-86,-38,32
326,4312,-17,-845,-4623,23,-86,-37,34
327,4307,3,-857,-4622,23,-90,-36,36
328,4327,-7,-855,-4630,23,-88,-37,35
329,4322,-9,-837,-4637,23,-87,-37,38
330,4306,14,-844,-4633,23,-88,-39,34
331,4314,15,-846,-4624,23,-88,-41,35
332,4334,1,-867,-4630,23,-88,-37,35
333,4314,5,-842,-4632,23,-89,-40,36
334,4328,12,-842,-4628,23,-87,-35,35
335,4306,7,-849,-4627,23,-88,-38,36
336,4317,4,-867,-4622,23,-85,-38,35
337,4313,-7,-834,-4625,23,-87,-39,35
338,4325,-18,-849,-4624,23,-89,-37,34
339,4314,7,-845,-4624,23,-87,-42,38
340,4321,7,-842,-4629,23,-85,-40,35
341,4330,1,-833,-4636,23,-83,-37,37
342,4321,-1,-841,-4636,23,-85,-37,31
343,4325,-1,-831,-4643,23,-88,-36,32
344,4320,2,-862,-4629,23,-87,-36,33
345,4315,-2,-861,-4622,23,-81,-40,33
346,4309,-17,-852,-4621,23,-87,-35,35
347,4327,-6,-842,-4633,23,-90,-40,34
348,4315,-9,-852,-4626,23,-89,-36,35
349,4322,-5,-843,-4624,23,-87,-37,38
350,4322,11,-857,-4637,23,-89,-38,34
351,4317,2,-854,-4619,23,-87,-39,33
352,4302,-6,-859,-4632,23,-93,-40,34
353,4314,3,-853,-4634,23,-89,-36,31
354,4337,2,-875,-4630,23,-87,-37,34
355,4337,2,-840,-4619,23,-88,-39,36
356,4318,-1,-866,-4636,23,-89,-37,33
357,4315,6,-858,-4639,23,-88,-41,35
358,4326,-4,-854,-4630,23,-87,-36,33
359,4311,-5,-858,-4631,23,-84,-37,35
360,4314,14,-850,-4626,23,-86,-36,34
361,4299,3,-834,-4631,23,-90,-37,34
362,4313,7,-866,-4638,23,-87,-37,36
363,4309,-2,-847,-4637,23,-87,-38,34
364,4313,-7,-840,-4631,23,-87,-37,36
365,4320,4,-851,-4631,23,-86,-39,37
366,4326,4,-843,-4633,23,-89,-39,36
367,4305,4,-846,-4631,23,-91,-38,35
368,4303,5,-850,-4634,23,-88,-38,36
369,4321,6,-845,-4631,23,-84,-41,36
370,4303,3,-863,-4629,23,-90,-39,34
371,4302,13,-851,-4626,23,-88,-38,36
372,4314,-12,-834,-4628,23,-88,-40,35
373,4329,-5,-828,-4629,23,-88,-38,35
374,4313,7,-856,-4627,23,-86,-36,33
375,4320,3,-846,-4633,23,-88,-37,34
376,4311,0,-842,-4626,23,-91,-38,35
377,4323,-8,-850,-4625,23,-88,-40,33
378,4315,9,-860,-4626,23,-83,-41,36
379,4305,-2,-843,-4629,23,-84,-41,35
380,4307,6,-844,-4636,23,-87,-36,34
381,4327,-13,-848,-4631,23,-85,-35,34
382,4325,1,-858,-4626,23,-85,-34,40
383,4318,5,-856,-4628,23,-87,-40,34
384,4316,-6,-859,-4636,23,-89,-42,33
385,4328,-5,-858,-4629,23,-86,-37,33
386,4321,-4,-863,-4629,23,-85,-41,35
387,4328,-1,-848,-4622,23,-88,-37,37
388,4328,-1,-873,-4633,23,-85,-39,32
389,4317,4,-841,-4632,23,-88,-41,34
390,4309,7,-847,-4633,23,-86,-38,31
391,4298,-2,-833,-4622,23,-87,-37,32
392,4312,-7,-880,-4626,23,-90,-36,40
393,4337,-13,-869,-4632,23,-87,-38,35
394,4318,8,-856,-4623,23,-87,-36,35
395,4330,14,-836,-4637,23,-88,-36,38
396,4319,-6,-873,-4630,23,-87,-37,35
397,4317,3,-847,-4628,23,-87,-37,32
398,4308,19,-867,-4627,23,-86,-37,37
399,4316,-9,-840,-4626,23,-88,-36,35
400,4313,-4,-842,-4628,23,-89,-35,35
401,4327,-15,-827,-4627,23,-87,-40,36
402,4317,-4,-851,-4626,23,-87,-37,35
403,4321,4,-834,-4629,23,-88,-39,34
404,4317,5,-848,-4624,23,-85,-40,34
405,4312,11,-846,-4627,23,-86,-37,36
406,4306,2,-848,-4629,23,-87,-42,36
407,4317,-9,-838,-4626,23,-85,-40,37
408,4334,-10,-845,-4635,23,-90,-39,37
409,4333,-12,-852,-4632,23,-88,-37,32
410,4326,11,-846,-4640,23,-88,-39,31
411,4310,-11,-837,-4633,23,-87,-38,33
412,4319,6,-845,-4638,23,-86,-39,34
413,4327,-1,-845,-4634,23,-87,-39,35
414,4314,-3,-866,-4631,23,-89,-38,38
415,4306,-10,-851,-4634,23,-84,-37,32
416,4311,-7,-832,-4630,23,-89,-40,35
417,4319,2,-825,-4634,23,-89,-36,33
418,4326,14,-859,-4624,23,-89,-38,36
419,4330,-5,-842,-4631,23,-89,-37,36
420,4319,16,-846,-4619,23,-88,-37,32
421,4304,13,-863,-4624,23,-91,-35,35
422,4309,7,-832,-4626,23,-85,-39,31
423,4327,-2,-815,-4628,23,-88,-40,31
424,4322,6,-846,-4621,23,-87,-38,36
425,4311,4,-853,-4644,23,-87,-37,37
426,4326,1,-849,-4623,23,-88,-37,37
427,4319,-21,-839,-4633,23,-91,-38,31
428,4323,1,-848,-4622,23,-88,-37,34
429,4317,-3,-852,-4619,23,-89,-35,33
430,4317,5,-842,-4625,23,-86,-39,36
431,4327,4,-843,-4629,23,-87,-35,35
432,4310,-9,-835,-4622,23,-87,-37,33
433,4328,5,-861,-4634,23,-85,-41,34
434,4301,3,-843,-4626,23,-88,-39,35
435,4316,14,-847,-4633,23,-84,-35,36
436,4327,-4,-833,-4631,23,-85,-40,38
437,4324,-2,-833,-4628,23,-88,-36,31
438,4316,-8,-852,-4636,23,-90,-42,36
439,4307,6,-831,-4628,23,-85,-36,35
440,4318,-1,-831,-4626,23,-89,-37,36
441,4318,-11,-864,-4631,23,-86,-38,34
442,4316,1,-841,-4625,23,-89,-39,34
443,4301,-10,-847,-4629,23,-87,-37,33
444,4317,-1,-855,-4632,23,-87,-36,33
445,4313,13,-842,-4631,23,-88,-39,35
446,4319,10,-846,-4626,23,-88,-35,36
447,4316,8,-847,-4628,23,-87,-39,35
448,4319,-9,-871,-4635,23,-85,-39,33
449,4308,4,-826,-4619,23,-90,-37,35
450,4315,3,-830,-4628,23,-86,-37,34
451,4317,17,-853,-4628,23,-85,-37,34
452,4315,4,-846,-4635,23,-88,-41,34
453,4303,-1,-846,-4631,23,-86,-37,35
454,4307,-1,-848,-4627,23,-87,-37,34
455,4318,1,-856,-4630,23,-83,-42,33
456,4315,5,-831,-4624,23,-87,-40,33
457,4321,1,-860,-4618,23,-91,-36,34
458,4308,-12,-850,-4623,23,-87,-38,33
459,4337,1,-870,-4624,23,-87,-36,34
460,4316,1,-830,-4630,23,-87,-37,39
461,4314,2,-834,-4626,23,-87,-38,34
462,4322,4,-843,-4631,23,-88,-41,33
463,4309,5,-856,-4627,23,-85,-37,35
464,4319,10,-850,-4639,23,-85,-42,33
465,4322,1,-837,-4628,23,-87,-39,34
466,4311,2,-863,-4626,23,-87,-38,33
467,4314,3,-854,-4622,23,-90,-39,32
468,4321,-4,-847,-4617,23,-85,-37,36
469,4330,-3,-836,-4635,23,-89,-38,35
470,4314,-4,-862,-4631,23,-85,-34,34
471,4325,-16,-851,-4630,23,-90,-39,35
472,4319,1,-843,-4630,23,-87,-42,37
473,4315,0,-881,-4636,23,-90,-39,36
474,4309,-1,-852,-4620,23,-91,-38,37
475,4310,10,-844,-4623,23,-88,-36,37
476,4336,6,-851,-4626,23,-91,-40,36
477,4336,4,-841,-4616,23,-90,-40,34
478,4326,-2,-834,-4620,23,-87,-37,35
479,4310,-17,-858,-4628,23,-89,-39,34
480,4315,4,-861,-4621,23,-84,-38,33
481,4323,10,-859,-4631,23,-87,-39,34
482,4297,-14,-818,-4622,23,-88,-38,33
483,4325,5,-860,-4622,23,-89,-37,33
484,4309,12,-838,-4637,23,-86,-36,33
485,4316,11,-851,-4633,23,-86,-39,33
486,4322,7,-864,-4618,23,-90,-41,38
487,4328,-7,-852,-4633,23,-85,-38,34
488,4318,-3,-829,-4617,23,-88,-37,32
489,4316,-6,-844,-4634,23,-89,-40,35
490,4318,-1,-866,-4615,23,-86,-36,34
491,4290,10,-859,-4622,23,-87,-38,36
492,4318,7,-850,-4626,23,-86,-37,35
493,4321,-21,-844,-4639,23,-91,-37,33
494,4320,-12,-845,-4627,23,-94,-34,36
495,4312,1,-831,-4631,23,-85,-40,36
496,4317,1,-833,-4620,23,-90,-36,33
497,4309,9,-855,-4629,23,-87,-39,36
498,4317,5,-861,-4625,23,-86,-38,35
499,4321,11,-860,-4633,23,-88,-38,33
500,4314,6,-859,-4629,23,-84,-38,32
501,4317,-7,-842,-4616,23,-87,-35,32
502,4330,6,-843,-4636,23,-86,-38,34
503,4322,1,-838,-4610,23,-90,-39,33
504,4326,-8,-867,-4614,23,-88,-38,35
505,4323,-11,-839,-4623,23,-86,-35,37
506,4321,-14,-831,-4624,23,-86,-38,35
507,4322,-8,-854,-4635,23,-84,-33,37
508,4309,3,-850,-4616,23,-90,-37,34
509,4318,10,-840,-4627,23,-87,-42,34
510,4307,21,-858,-4634,23,-85,-37,35
511,4326,9,-847,-4619,23,-87,-37,35
512,4311,7,-851,-4629,23,-87,-34,35
513,4323,18,-848,-4627,23,-88,-39,34
514,4307,-4,-854,-4623,23,-90,-40,35
515,4319,16,-846,-4626,23,-82,-37,36
516,4319,5,-857,-4629,23,-88,-37,35
517,4322,-12,-876,-4627,23,-89,-37,33
518,4317,0,-847,-4627,23,-88,-40,34
519,4325,-10,-830,-4627,23,-87,-35,35
520,4325,-2,-846,-4622,23,-84,-38,32
521,4312,7,-865,-4625,23,-87,-35,35
522,4317,0,-864,-4632,23,-86,-40,36
523,4308,1,-860,-4633,23,-86,-37,34
524,4334,12,-859,-4635,23,-84,-38,36
525,4319,-8,-866,-4617,23,-88,-39,36
526,4310,7,-864,-4610,23,-88,-40,34
527,4311,-6,-852,-4623,23,-88,-38,31
528,4333,6,-853,-4625,23,-91,-35,34
529,4330,-6,-841,-4624,23,-89,-36,35
530,4308,-14,-844,-4625,23,-86,-41,36
531,4316,2,-839,-4631,23,-83,-42,37
532,4317,-1,-830,-4632,23,-85,-39,35
533,4308,1,-840,-4628,23,-85,-39,33
534,4314,-12,-865,-4624,23,-91,-40,36
535,4330,4,-838,-4627,23,-88,-42,34
536,4312,6,-847,-4635,23,-87,-37,34
537,4310,-1,-837,-4621,23,-86,-34,36
538,4332,3,-843,-4622,23,-88,-39,33
539,4321,9,-837,-4623,23,-85,-37,35
540,4303,-1,-840,-4628,23,-88,-37,37
541,4321,12,-850,-4625,23,-91,-35,36
542,4330,-1,-851,-4628,23,-87,-40,32
543,4313,0,-853,-4612,23,-90,-36,35
544,4340,4,-847,-4623,23,-85,-39,34
545,4322,3,-835,-4624,23,-83,-39,36
546,4317,0,-846,-4627,23,-84,-36,34
547,4333,4,-826,-4627,23,-88,-38,35
548,4326,5,-857,-4626,23,-89,-41,33
549,4308,-3,-864,-4620,23,-87,-34,38
550,4309,-5,-843,-4628,23,-87,-38,33
551,4325,9,-839,-4623,23,-88,-37,34
552,4317,1,-838,-4636,23,-89,-36,37
553,4316,12,-841,-4623,23,-85,-36,30
554,4326,11,-842,-4622,23,-84,-38,36
555,4314,9,-866,-4624,23,-91,-37,32
556,4315,-3,-858,-4626,23,-90,-34,31
557,4330,-1,-866,-4616,23,-89,-40,35
558,4302,3,-864,-4623,23,-88,-36,36
559,4307,-7,-844,-4631,23,-86,-36,36
560,4315,-9,-853,-4634,23,-85,-40,34
561,4316,0,-850,-4633,23,-85,-37,34
562,4328,8,-874,-4620,23,-88,-37,34
563,4307,-2,-845,-4628,23,-88,-41,33
564,4327,3,-845,-4622,23,-89,-39,33
565,4320,1,-854,-4630,23,-86,-39,34
566,4320,-3,-821,-4627,23,-88,-36,35
567,4324,6,-847,-4624,23,-85,-38,36
568,4331,-9,-834,-4634,23,-89,-35,34
569,4333,1,-841,-4612,23,-88,-38,37
570,4318,6,-844,-4635,23,-84,-39,37
571,4334,7,-848,-4624,23,-84,-39,36
572,4306,-6,-852,-4627,23,-86,-38,32
573,4318,-4,-850,-4628,23,-87,-41,35
574,4322,-1,-833,-4629,23,-86,-40,32
575,4337,5,-855,-4621,23,-84,-35,33
576,4321,-14,-851,-4614,23,-88,-33,36
577,4322,2,-845,-4627,23,-89,-35,34
578,4315,9,-860,-4621,23,-83,-38,32
579,4320,-2,-854,-4626,23,-83,-40,32
580,4330,-12,-839,-4618,23,-88,-38,35
581,4326,1,-863,-4628,23,-89,-36,34
582,4323,1,-864,-4631,23,-87,-43,37
583,4307,-4,-832,-4617,23,-86,-38,35
584,4310,8,-852,-4637,23,-88,-37,35
585,4330,-5,-846,-4623,23,-88,-38,34
586,4323,11,-869,-4623,23,-89,-37,36
587,4313,8,-838,-4616,23,-85,-38,35
588,4318,7,-849,-4632,23,-89,-38,37
589,4310,-1,-853,-4625,23,-86,-38,37
590,4320,2,-845,-4624,23,-86,-38,33
591,4319,-6,-850,-4618,23,-85,-36,37
592,4321,7,-872,-4618,23,-89,-37,34
593,4311,-3,-846,-4631,23,-88,-37,35
594,4325,-15,-869,-4630,23,-86,-34,34
595,4328,-2,-842,-4630,23,-90,-34,36
596,4304,6,-863,-4631,23,-86,-37,36
597,4312,2,-849,-4629,23,-86,-37,33
598,4317,7,-830,-4625,23,-88,-38,36
599,4302,0,-842,-4623,23,-90,-41,35
600,4315,-7,-850,-4618,23,-87,-37,32
601,4308,-4,-861,-4630,23,-89,-38,32
602,4320,5,-850,-4619,23,-89,-37,33
603,4322,-8,-859,-4628,23,-88,-35,34
604,4321,-9,-825,-4629,23,-88,-40,33
605,4342,2,-855,-4626,23,-86,-40,35
606,4326,-2,-833,-4630,23,-85,-39,33
607,4338,10,-838,-4618,23,-87,-38,32
608,4309,22,-847,-4633,23,-88,-38,33
609,4317,2,-833,-4637,23,-89,-37,34
610,4340,9,-836,-4630,23,-88,-36,32
611,4322,-1,-853,-4630,23,-85,-38,36
612,4304,-12,-850,-4631,23,-86,-36,35
613,4326,0,-846,-4623,23,-83,-36,36
614,4314,-3,-862,-4622,23,-87,-42,32
615,4321,-2,-866,-4628,23,-87,-41,35
616,4333,6,-861,-4629,23,-89,-36,37
617,4329,-12,-869,-4626,23,-91,-36,32
618,4321,-5,-862,-4626,23,-90,-40,35
619,4316,-12,-836,-4634,23,-88,-39,34
620,4329,4,-843,-4623,23,-89,-40,33
621,4316,1,-838,-4623,23,-92,-41,33
622,4316,-3,-852,-4626,23,-86,-39,34
623,4308,5,-842,-4626,23,-90,-41,35
624,4309,11,-848,-4635,23,-91,-36,37
625,4323,-4,-838,-4627,23,-89,-40,32
626,4332,4,-850,-4624,23,-91,-36,35
627,4319,15,-835,-4618,23,-89,-34,35
628,4319,9,-859,-4636,23,-91,-37,38
629,4317,2,-839,-4631,23,-89,-39,32
630,4303,10,-874,-4629,23,-90,-39,35
631,4332,-9,-832,-4628,23,-86,-38,36
632,4320,-1,-850,-4623,23,-88,-38,34
633,4310,11,-838,-4621,23,-89,-40,35
634,4321,13,-844,-4627,23,-87,-34,35
635,4309,-6,-851,-4628,23,-89,-36,35
636,4321,7,-861,-4624,23,-88,-38,36
637,4305,4,-849,-4628,23,-88,-39,32
638,4317,6,-864,-4627,23,-88,-38,35
639,4332,17,-847,-4632,23,-87,-39,35
640,4333,9,-859,-4624,23,-87,-35,35
641,4332,-1,-846,-4619,23,-84,-37,39
642,4310,4,-848,-4620,23,-90,-36,35
643,4322,12,-848,-4628,23,-85,-41,35
644,4323,-6,-833,-4630,23,-90,-39,38
645,4330,7,-845,-4624,23,-86,-36,34
646,4318,22,-854,-4626,23,-83,-40,33
647,4320,0,-850,-4634,23,-89,-37,37
648,4319,8,-858,-4628,23,-88,-37,35
649,4309,-10,-851,-4630,23,-89,-37,34
650,4324,-6,-869,-4630,23,-87,-36,38
651,4335,-16,-847,-4623,23,-88,-39,32
652,4325,0,-856,-4625,23,-86,-39,36
653,4306,12,-842,-4626,23,-88,-39,35
654,4321,7,-855,-4629,23,-87,-40,34
655,4316,1,-845,-4618,23,-86,-38,31
656,4318,1,-858,-4625,23,-86,-36,34
657,4317,11,-856,-4611,23,-87,-35,34
658,4316,-4,-842,-4625,23,-88,-37,34
659,4325,-1,-861,-4617,23,-86,-37,33
660,4324,2,-821,-4624,23,-89,-35,34
661,4324,13,-853,-4628,23,-91,-36,35
662,4317,2,-826,-4620,23,-87,-37,35
663,4312,6,-847,-4619,23,-86,-41,34
664,4328,-4,-828,-4620,23,-84,-38,32
665,4313,-8,-840,-4621,23,-85,-41,33
666,4326,3,-848,-4616,23,-87,-37,33
667,4312,-5,-847,-4624,23,-89,-35,35
668,4321,-5,-862,-4612,23,-91,-38,34
669,4301,6,-814,-4631,23,-91,-41,33
670,4318,-9,-874,-4635,23,-88,-40,35
671,4316,-4,-858,-4628,23,-84,-41,32
672,4325,3,-869,-4628,23,-85,-39,35
673,4322,-7,-857,-4624,23,-90,-37,34
674,4320,-12,-846,-4622,23,-87,-36,38
675,4321,-3,-860,-4625,23,-87,-35,35
676,4332,-8,-841,-4622,23,-88,-36,34
677,4315,-4,-870,-4615,23,-89,-38,36
678,4322,6,-846,-4626,23,-87,-36,34
679,4318,-2,-838,-4626,23,-85,-36,34
680,4323,7,-869,-4623,23,-92,-38,33
681,4305,-1,-838,-4630,23,-90,-38,35
682,4319,15,-838,-4632,23,-86,-39,35
683,4311,-1,-848,-4626,23,-88,-37,36
684,4323,0,-839,-4631,23,-89,-40,34
685,4333,3,-850,-4633,23,-86,-41,35
686,4331,-20,-842,-4624,23,-87,-41,33
687,4315,6,-844,-4625,23,-86,-40,34
688,4315,6,-860,-4627,23,-85,-37,36
689,4309,1,-860,-4627,23,-86,-39,37
690,4317,3,-834,-4620,23,-82,-38,35
691,4315,7,-882,-4632,23,-87,-37,36
692,4323,0,-872,-4635,23,-89,-41,34
693,4319,-6,-850,-4625,23,-89,-44,33
694,4319,-1,-822,-4633,23,-87,-38,36
695,4322,-7,-864,-4633,23,-91,-35,34
696,4316,4,-852,-4626,23,-88,-34,36
697,4331,-10,-832,-4630,23,-88,-36,32
698,4309,8,-817,-4623,23,-90,-39,33
699,4315,1,-846,-4626,23,-91,-37,34
700,4293,2,-834,-4625,23,-90,-37,33
701,4326,14,-859,-4622,23,-87,-36,34
702,4321,-4,-843,-4624,23,-86,-37,36
703,4329,3,-866,-4624,23,-86,-36,33
704,4325,10,-854,-4628,23,-87,-38,35
705,4324,-6,-858,-4626,23,-86,-38,36
706,4302,9,-859,-4615,23,-88,-37,33
707,4319,20,-826,-4625,23,-86,-42,35
708,4335,-12,-844,-4626,23,-87,-38,33
709,4313,3,-837,-4637,23,-91,-37,34
710,4321,0,-838,-4636,23,-91,-37,33
711,4332,8,-858,-4631,23,-86,-37,34
712,4312,-10,-855,-4625,23,-87,-37,35
713,4311,-3,-852,-4628,23,-86,-38,33
714,4326,12,-853,-4627,23,-93,-36,37
715,4316,5,-842,-4625,23,-89,-35,36
716,4317,3,-854,-4629,23,-87,-38,37
717,4314,0,-860,-4625,23,-88,-36,34
718,4296,2,-847,-4636,23,-86,-39,35
719,4303,-4,-859,-4613,23,-84,-37,37
720,4299,2,-844,-4624,23,-90,-35,35
721,4328,1,-839,-4627,23,-87,-36,34
722,4328,-5,-837,-4631,23,-86,-37,33
723,4327,5,-838,-4625,23,-90,-38,35
724,4311,9,-845,-4640,23,-88,-39,36
725,4319,-6,-858,-4625,23,-88,-39,34
726,4332,-2,-856,-4629,23,-88,-37,35
727,4311,-12,-836,-4627,23,-89,-38,36
728,4317,6,-841,-4623,23,-89,-41,35
729,4314,-12,-858,-4628,23,-85,-35,34
730,4308,14,-828,-4631,23,-88,-39,33
731,4318,-8,-817,-4621,23,-88,-36,37
732,4336,1,-849,-4626,23,-86,-36,31
733,4316,10,-857,-4624,23,-84,-38,35
734,4334,14,-861,-4626,23,-86,-39,34
735,4323,-4,-843,-4621,23,-90,-36,32
736,4331,7,-864,-4624,23,-88,-41,35
737,4318,8,-857,-4625,23,-85,-41,32
738,4313,-1,-843,-4616,23,-86,-39,40
739,4314,9,-851,-4619,23,-85,-39,35
740,4305,-5,-843,-4623,23,-87,-42,32
741,4309,-2,-850,-4615,23,-89,-43,30
742,4320,8,-835,-4619,23,-88,-38,33
743,4311,-4,-853,-4629,23,-86,-34,38
744,4326,-16,-826,-4622,23,-87,-42,36
745,4321,5,-856,-4630,23,-89,-39,37
746,4319,13,-852,-4623,23,-89,-34,37
747,4312,13,-856,-4618,23,-88,-43,34
748,4328,11,-859,-4622,23,-88,-37,38
749,4326,-3,-858,-4629,23,-89,-39,34
750,4325,12,-848,-4623,23,-88,-35,34
751,4311,-2,-827,-4627,23,-88,-41,36
752,4316,6,-854,-4624,23,-88,-37,37
753,4322,14,-855,-4630,23,-91,-37,35
754,4311,-10,-826,-4629,23,-86,-39,34
755,4313,10,-855,-4621,23,-89,-39,34
756,4323,24,-830,-4625,23,-81,-38,34
757,4320,7,-870,-4625,23,-88,-34,32
758,4317,4,-840,-4619,23,-87,-35,35
759,4312,-13,-860,-4622,23,-86,-39,36
760,4325,-3,-833,-4632,23,-89,-41,34
761,4315,-9,-874,-4623,23,-89,-31,36
762,4317,6,-836,-4627,23,-86,-39,37
763,4301,2,-861,-4625,23,-88,-35,34
764,4329,10,-848,-4624,23,-88,-38,35
765,4315,-9,-869,-4628,23,-85,-39,32
766,4312,-6,-832,-4625,23,-88,-43,33
767,4325,3,-842,-4625,23,-88,-36,35
768,4330,-8,-858,-4626,23,-86,-37,35
769,4326,-2,-843,-4618,23,-88,-37,34
770,4329,-2,-846,-4623,23,-86,-38,34
771,4324,-8,-831,-4616,23,-87,-34,36
772,4316,1,-867,-4623,23,-90,-37,33
773,4332,7,-835,-4620,23,-89,-41,33
774,4320,2,-839,-4615,23,-87,-40,34
775,4314,8,-834,-4624,23,-85,-32,36
776,4322,-7,-839,-4622,23,-87,-36,31
777,4315,-1,-856,-4608,23,-87,-37,34
778,4317,-9,-845,-4624,23,-87,-40,34
779,4315,8,-842,-4612,23,-86,-42,34
780,4306,12,-862,-4623,23,-83,-37,38
781,4322,1,-856,-4622,23,-87,-39,36
782,4311,-9,-839,-4621,23,-86,-34,39
783,4317,15,-860,-4624,23,-87,-33,36
784,4320,20,-865,-4627,23,-89,-39,36
785,4316,-5,-851,-4626,23,-89,-38,37
786,4311,17,-851,-4621,23,-89,-40,34
787,4318,6,-866,-4621,23,-90,-38,33
788,4306,2,-872,-4613,23,-89,-40,33
789,4319,1,-834,-4634,23,-92,-38,31
790,4310,-17,-854,-4626,23,-88,-40,34
791,4323,-8,-857,-4623,23,-82,-38,30
792,4326,-9,-863,-4631,23,-90,-37,36
793,4337,-11,-840,-4629,23,-84,-37,35
794,4330,-6,-852,-4625,23,-88,-40,34
795,4320,6,-846,-4627,23,-88,-39,34
796,4307,-16,-850,-4618,23,-86,-38,34
797,4315,14,-843,-4633,23,-87,-36,35
798,4314,2,-838,-4631,23,-91,-36,34
799,4304,17,-873,-4633,23,-88,-38,33
800,4325,6,-849,-4630,23,-88,-37,32
801,4313,2,-831,-4633,23,-89,-36,33
802,4303,12,-831,-4633,23,-87,-35,36
803,4311,8,-842,-4630,23,-84,-39,37
804,4321,8,-854,-4620,23,-85,-36,34
805,4324,4,-849,-4625,23,-88,-37,36
806,4318,-17,-844,-4631,23,-88,-38,34
807,4316,10,-854,-4621,23,-85,-39,35
808,4323,4,-865,-4620,23,-90,-37,36
809,4295,-7,-830,-4623,23,-87,-35,33
810,4333,-4,-839,-4634,23,-88,-36,31
811,4320,6,-841,-4629,23,-85,-37,35
812,4322,-8,-831,-4616,23,-88,-36,35
813,4317,-2,-861,-4630,23,-88,-38,33
814,4334,10,-856,-4640,23,-87,-38,32
815,4311,5,-841,-4632,23,-89,-38,35
816,4307,1,-867,-4624,23,-90,-40,36
817,4308,-4,-835,-4628,23,-88,-40,37
818,4321,6,-871,-4627,23,-84,-39,33
819,4310,-9,-853,-4614,23,-89,-36,29
820,4315,-7,-852,-4638,23,-86,-35,35
821,4323,-7,-857,-4632,23,-87,-35,36
822,4314,6,-858,-4617,23,-84,-40,34
823,4329,2,-851,-4630,23,-87,-38,35
824,4327,-1,-848,-4608,23,-90,-41,33
825,4320,5,-843,-4624,23,-89,-37,34
826,4313,-9,-851,-4625,23,-88,-40,36
827,4325,7,-843,-4622,23,-91,-38,35
828,4313,-1,-853,-4613,23,-87,-36,37
829,4322,4,-845,-4632,23,-87,-36,33
830,4309,-1,-864,-4633,23,-90,-37,33
831,4325,1,-820,-4614,23,-90,-36,34
832,4329,5,-823,-4616,23,-88,-37,37
833,4310,-5,-832,-4633,23,-86,-34,35
834,4320,2,-844,-4616,23,-88,-38,33
835,4307,9,-856,-4631,23,-84,-38,38
836,4312,8,-841,-4619,23,-89,-39,35
837,4307,2,-836,-4625,23,-88,-36,34
838,4317,5,-833,-4634,23,-91,-37,35
839,4305,8,-837,-4627,23,-87,-33,34
840,4324,12,-846,-4629,23,-89,-39,32
841,4325,6,-853,-4625,23,-85,-37,37
842,4317,-1,-866,-4621,23,-87,-40,34
843,4323,3,-844,-4625,23,-88,-39,36
844,4310,7,-844,-4617,23,-87,-40,33
845,4321,-2,-846,-4623,23,-89,-40,35
846,4337,13,-866,-4631,23,-90,-36,36
847,4319,18,-839,-4629,23,-88,-37,34
848,4322,8,-822,-4625,23,-83,-36,30
849,4313,-3,-877,-4625,23,-87,-37,32
850,4314,-10,-859,-4631,23,-86,-37,35
851,4307,3,-842,-4628,23,-85,-38,34
852,4306,20,-845,-4627,23,-84,-36,31
853,4322,5,-852,-4623,23,-87,-36,37
854,4328,-3,-861,-4618,23,-88,-36,32
855,4311,-1,-842,-4617,23,-89,-39,31
856,4317,-3,-870,-4630,23,-87,-41,34
857,4302,-11,-846,-4615,23,-88,-40,35
858,4334,6,-826,-4628,23,-88,-37,33
859,4318,2,-877,-4623,23,-89,-40,35
860,4310,-2,-839,-4615,23,-91,-40,34
861,4314,-5,-844,-4626,23,-92,-39,35
862,4315,0,-864,-4623,23,-85,-39,36
863,4327,1,-854,-4634,23,-86,-35,35
864,4321,-1,-867,-4618,23,-92,-36,36
865,4328,7,-854,-4622,23,-89,-36,36
866,4336,5,-824,-4611,23,-89,-35,34
867,4307,7,-819,-4618,23,-84,-38,34
868,4314,-13,-827,-4617,23,-87,-40,34
869,4320,1,-856,-4622,23,-92,-36,36
870,4314,-5,-839,-4613,23,-87,-38,32
871,4311,6,-859,-4616,23,-86,-40,32
872,4313,6,-857,-4628,23,-88,-39,35
873,4316,6,-835,-4626,23,-86,-39,33
874,4318,-6,-855,-4625,23,-86,-36,34
875,4318,-1,-840,-4624,23,-92,-40,35
876,4322,12,-843,-4607,23,-90,-38,35
877,4331,-9,-851,-4622,23,-89,-35,35
878,4316,7,-827,-4611,23,-87,-41,35
879,4313,-2,-869,-4627,23,-88,-35,37
880,4307,6,-828,-4628,23,-91,-36,33
881,4305,5,-855,-4627,23,-85,-38,35
882,4309,4,-871,-4621,23,-83,-41,34
883,4324,17,-847,-4624,23,-89,-39,35
884,4332,11,-853,-4617,23,-88,-39,38
885,4329,3,-831,-4627,23,-88,-36,36
886,4312,-4,-852,-4615,23,-88,-39,36
887,4311,-3,-843,-4613,23,-88,-39,34
888,4312,-4,-852,-4626,23,-85,-36,35
889,4320,6,-841,-4628,23,-89,-39,37
890,4325,1,-842,-4618,23,-90,-39,34
891,4328,3,-830,-4622,23,-87,-39,37
892,4314,-3,-819,-4625,23,-88,-34,35
893,4336,-7,-848,-4628,23,-88,-38,36
894,4320,0,-868,-4625,23,-88,-38,32
895,4329,7,-844,-4631,23,-85,-37,34
896,4313,1,-849,-4618,23,-88,-39,34
897,4323,5,-849,-4623,23,-88,-40,32
898,4322,-11,-849,-4624,23,-88,-36,37
899,4327,-8,-840,-4622,23,-87,-37,34
900,4331,-7,-823,-4618,23,-91,-38,35
901,4315,-12,-842,-4617,23,-90,-40,34
902,4317,1,-848,-4627,23,-88,-38,34
903,4318,-8,-857,-4608,23,-86,-39,36
904,4328,19,-841,-4623,23,-86,-38,32
905,4312,-5,-863,-4626,23,-87,-36,34
906,4313,13,-858,-4616,23,-89,-39,38
907,4315,3,-843,-4624,23,-88,-37,35
908,4333,-16,-866,-4622,23,-90,-37,36
909,4317,2,-843,-4618,23,-88,-40,35
910,4311,27,-842,-4617,23,-89,-35,36
911,4321,-5,-833,-4626,23,-84,-34,34
912,4316,5,-854,-4623,23,-86,-38,35
913,4317,1,-841,-4622,23,-86,-38,35
914,4317,-10,-828,-4618,23,-87,-41,34
915,4329,0,-837,-4625,23,-86,-41,31
916,4325,-4,-870,-4615,23,-92,-35,33
917,4327,-20,-846,-4614,23,-92,-40,35
918,4343,8,-833,-4625,23,-88,-38,30
919,4320,-17,-864,-4631,23,-89,-35,35
920,4314,2,-868,-4606,23,-85,-35,35
921,4333,-2,-844,-4623,23,-87,-37,35
922,4308,10,-831,-4616,23,-84,-39,33
923,4323,15,-857,-4616,23,-88,-36,36
924,4320,10,-857,-4624,23,-91,-39,37
925,4321,3,-853,-4616,23,-91,-42,33
926,4322,-5,-843,-4619,23,-91,-37,36
927,4309,4,-843,-4619,23,-88,-38,36
928,4323,5,-826,-4620,23,-89,-41,35
929,4318,2,-853,-4626,23,-86,-39,34
930,4315,7,-837,-4630,23,-91,-36,37
931,4319,0,-856,-4631,23,-81,-37,34
932,4322,-9,-845,-4618,23,-87,-37,33
933,4310,5,-871,-4630,23,-91,-41,35
934,4328,9,-845,-4628,23,-90,-37,35
935,4323,9,-844,-4619,23,-89,-33,35
936,4325,9,-852,-4616,23,-88,-39,35
937,4321,-6,-836,-4621,23,-87,-36,35
938,4319,-5,-857,-4627,23,-91,-40,37
939,4325,1,-838,-4625,23,-86,-41,35
940,4320,8,-848,-4607,23,-87,-37,33
941,4322,3,-852,-4611,23,-85,-40,36
942,4317,4,-847,-4623,23,-89,-36,37
943,4314,-2,-821,-4624,23,-84,-36,33
944,4317,6,-857,-4619,23,-87,-37,35
945,4322,1,-836,-4628,23,-87,-35,36
946,4317,8,-819,-4623,23,-85,-35,36
947,4306,6,-829,-4623,23,-89,-41,36
948,4318,9,-839,-4612,23,-87,-38,34
949,4316,-11,-846,-4618,23,-89,-41,33
950,4331,5,-840,-4619,23,-88,-39,37
951,4321,11,-857,-4624,23,-86,-34,33
952,4316,11,-837,-4623,23,-92,-35,35
953,4309,3,-869,-4608,23,-87,-36,36
954,4307,2,-844,-4625,23,-89,-39,34
955,4312,-2,-863,-4628,23,-88,-38,32
956,4323,-17,-854,-4604,23,-87,-38,35
957,4305,18,-835,-4631,23,-92,-39,34
958,4313,2,-837,-4629,23,-92,-39,34
959,4313,-1,-844,-4629,23,-87,-37,35
960,4338,-4,-860,-4615,23,-86,-35,33
961,4312,-17,-855,-4621,23,-87,-41,33
962,4315,-2,-858,-4617,23,-90,-43,36
963,4311,-10,-888,-4612,23,-88,-38,34
964,4316,1,-872,-4632,23,-86,-38,34
965,4324,7,-845,-4615,23,-88,-37,35
966,4314,-11,-846,-4616,23,-90,-38,35
967,4330,1,-853,-4614,23,-88,-40,34
968,4312,-1,-859,-4631,23,-84,-38,33
969,4311,5,-843,-4621,23,-85,-36,34
970,4312,0,-830,-4619,23,-85,-38,34
971,4320,-12,-837,-4626,23,-92,-39,34
972,4314,6,-830,-4619,23,-89,-36,32
973,4327,-2,-854,-4621,23,-84,-41,36
974,4312,-4,-860,-4629,23,-89,-42,34
975,4330,-9,-836,-4621,23,-86,-38,38
976,4308,3,-857,-4630,23,-87,-38,36
977,4313,10,-859,-4615,23,-89,-37,37
978,4317,-7,-837,-4624,23,-89,-36,31
979,4320,2,-835,-4617,23,-89,-42,33
980,4328,-6,-851,-4628,23,-86,-37,35
981,4312,21,-839,-4621,23,-87,-39,35
982,4319,-12,-856,-4633,23,-87,-37,35
983,4327,1,-853,-4618,23,-87,-38,33
984,4327,-5,-859,-4617,23,-85,-42,33
985,4308,-2,-853,-4620,23,-89,-36,32
986,4320,2,-847,-4623,23,-90,-36,34
987,4310,7,-861,-4624,23,-88,-38,34
988,4333,7,-855,-4621,23,-88,-38,33
989,4312,3,-877,-4626,23,-89,-38,35
990,4299,-5,-828,-4634,23,-89,-39,35
991,4317,-9,-825,-4610,23,-86,-39,35
992,4311,4,-835,-4620,23,-89,-38,36
993,4323,-3,-852,-4622,23,-86,-43,32
994,4312,2,-855,-4628,23,-92,-38,35
995,4311,0,-862,-4621,23,-83,-37,34
996,4323,0,-851,-4621,23,-87,-37,34
997,4325,11,-855,-4612,23,-88,-38,36
998,4319,19,-839,-4625,23,-89,-38,33
