,acc_X,acc_Y,acc_Z,temp,tempC,gyr_X,gyr_Y,gyr_Z
0,2160,1,-434,-4651,23,-44,-18,16
1,2164,5,-429,-4656,23,-44,-19,16
2,2160,0,-432,-4655,23,-43,-19,17
3,2167,2,-424,-4651,23,-44,-19,17
4,2159,1,-427,-4654,23,-44,-19,19
5,2160,1,-430,-4652,23,-44,-19,18
6,2160,1,-420,-4653,23,-43,-20,18
7,2158,-3,-428,-4655,23,-44,-20,16
8,2162,0,-416,-4651,23,-44,-20,17
9,2155,-2,-424,-4656,23,-43,-20,17
10,2156,0,-425,-4656,23,-44,-21,16
11,2160,0,-423,-4655,23,-43,-20,17
12,2160,1,-426,-4654,23,-44,-19,16
13,2162,-8,-422,-4653,23,-44,-19,17
14,2159,0,-428,-4652,23,-44,-20,17
15,2159,-2,-422,-4651,23,-45,-21,16
16,2160,-3,-425,-4658,23,-44,-20,17
17,2158,-4,-424,-4656,23,-44,-19,16
18,2163,-3,-430,-4657,23,-44,-19,16
19,2158,1,-423,-4655,23,-45,-20,16
20,2160,0,-426,-4664,23,-44,-19,17
21,2159,2,-424,-4650,23,-44,-20,16
22,2164,3,-421,-4648,23,-44,-19,17
23,2151,-1,-436,-4643,23,-43,-19,15
24,2160,5,-422,-4649,23,-42,-19,17
25,2155,4,-426,-4658,23,-44,-20,17
26,2153,4,-417,-4657,23,-43,-20,16
27,2152,-2,-424,-4653,23,-44,-19,17
28,2160,-1,-423,-4657,23,-43,-20,17
29,2158,9,-435,-4657,23,-44,-18,16
30,2154,2,-428,-4648,23,-45,-18,18
31,2155,0,-425,-4655,23,-45,-20,18
32,2158,-1,-417,-4658,23,-44,-19,16
33,2159,2,-430,-4650,23,-44,-19,18
34,2160,-2,-426,-4653,23,-44,-18,18
35,2163,0,-431,-4652,23,-44,-20,17
36,2159,-4,-426,-4658,23,-45,-19,18
37,2164,4,-424,-4657,23,-43,-20,18
38,2164,5,-422,-4658,23,-45,-19,17
39,2166,2,-428,-4660,23,-43,-20,18
40,2163,2,-427,-4652,23,-43,-18,17
41,2165,5,-419,-4653,23,-44,-19,18
42,2159,0,-420,-4649,23,-45,-19,17
43,2156,-1,-420,-4659,23,-43,-19,17
44,2157,2,-425,-4654,23,-43,-19,16
45,2161,3,-422,-4654,23,-44,-19,17
46,2162,0,-421,-4660,23,-44,-19,17
47,2155,3,-421,-4656,23,-43,-19,16
48,2160,2,-431,-4648,23,-43,-20,17
49,2162,1,-427,-4652,23,-43,-21,17
50,2156,3,-423,-4656,23,-45,-19,18
51,2149,-3,-423,-4645,23,-44,-19,16
52,2157,-1,-431,-4651,23,-43,-20,16
53,2164,0,-426,-4651,23,-43,-20,17
54,2161,6,-429,-4656,23,-45,-19,16
55,2161,0,-428,-4649,23,-43,-20,17
56,2165,-4,-421,-4655,23,-44,-18,17
57,2157,-2,-422,-4657,23,-43,-20,18
58,2159,-3,-422,-4654,23,-43,-19,18
59,2164,4,-433,-4649,23,-43,-19,17
60,2154,6,-425,-4651,23,-43,-19,16
61,2159,2,-425,-4655,23,-45,-19,16
62,2162,4,-434,-4647,23,-43,-19,18
63,2157,6,-423,-4655,23,-45,-19,16
64,2155,2,-424,-4649,23,-45,-18,17
65,2162,6,-420,-4649,23,-43,-18,16
66,2161,1,-424,-4652,23,-44,-19,17
67,2156,1,-423,-4651,23,-44,-19,18
68,2156,-2,-429,-4647,23,-45,-20,16
69,2159,1,-428,-4645,23,-45,-19,17
70,2160,1,-424,-4655,23,-46,-19,17
71,2158,0,-418,-4644,23,-44,-20,17
72,2153,-4,-423,-4644,23,-44,-20,18
73,2156,-1,-420,-4656,23,-44,-20,17
74,2155,-2,-433,-4656,23,-44,-20,17
75,2161,-4,-420,-4647,23,-44,-19,17
76,2163,0,-430,-4651,23,-44,-19,17
77,2161,3,-429,-4647,23,-44,-20,17
78,2157,5,-426,-4656,23,-44,-18,18
79,2154,-1,-426,-4650,23,-44,-20,18
80,2163,1,-424,-4655,23,-45,-21,17
81,2159,0,-421,-4656,23,-45,-19,17
82,2158,1,-415,-4654,23,-44,-20,17
83,2155,-2,-426,-4663,23,-43,-20,18
84,2158,6,-427,-4653,23,-44,-19,17
85,2160,0,-427,-4649,23,-45,-18,17
86,2159,-1,-426,-4657,23,-43,-19,17
87,2162,0,-425,-4653,23,-44,-18,17
88,2155,-1,-424,-4656,23,-43,-20,17
89,2155,1,-425,-4651,23,-45,-19,16
90,2160,3,-421,-4656,23,-45,-17,17
91,2157,0,-422,-4645,23,-44,-20,17
92,2160,5,-421,-4651,23,-43,-21,17
93,2157,6,-424,-4651,23,-44,-19,17
94,2160,4,-423,-4649,23,-44,-20,17
95,2157,1,-428,-4645,23,-44,-19,17
96,2162,5,-431,-4650,23,-43,-20,17
97,2162,0,-430,-4651,23,-44,-19,16
98,2165,6,-426,-4652,23,-44,-18,16
99,2158,-4,-422,-4655,23,-44,-18,18
100,2162,-2,-425,-4647,23,-44,-18,17
101,2157,-4,-419,-4650,23,-46,-19,18
102,2155,-5,-426,-4650,23,-45,-19,17
103,2157,-2,-419,-4658,23,-45,-18,17
104,2163,1,-418,-4651,23,-45,-20,16
105,2158,-1,-423,-4651,23,-44,-19,16
106,2159,-1,-428,-4651,23,-45,-19,16
107,2164,2,-428,-4647,23,-44,-19,17
108,2155,1,-420,-4643,23,-44,-18,17
109,2157,4,-429,-4651,23,-44,-20,17
110,2160,6,-423,-4650,23,-45,-21,17
111,2162,9,-428,-4645,23,-44,-20,16
112,2158,4,-431,-4651,23,-44,-19,17
113,2159,0,-416,-4644,23,-44,-19,17
114,2157,-3,-423,-4650,23,-45,-19,18
115,2158,-6,-419,-4661,23,-45,-18,17
116,2160,1,-423,-4650,23,-44,-19,16
117,2158,4,-419,-4648,23,-43,-18,17
118,2164,2,-427,-4655,23,-44,-19,17
119,2156,-3,-422,-4651,23,-44,-19,17
120,2161,1,-432,-4647,23,-44,-19,17
121,2161,2,-432,-4650,23,-46,-19,17
122,2160,0,-436,-4656,23,-46,-19,15
123,2158,5,-426,-4651,23,-43,-19,17
124,2161,-4,-421,-4652,23,-44,-19,18
125,2160,-1,-420,-4658,23,-45,-19,17
126,2161,-4,-423,-4650,23,-43,-22,17
127,2159,-1,-410,-4646,23,-44,-19,17
128,2157,2,-422,-4653,23,-44,-20,18
129,2160,0,-425,-4645,23,-43,-19,17
130,2163,-3,-426,-4648,23,-44,-20,16
131,2157,-2,-426,-4656,23,-43,-20,16
132,2157,7,-432,-4655,23,-44,-21,17
133,2161,1,-424,-4655,23,-44,-20,17
134,2160,-1,-422,-4656,23,-44,-18,18
135,2152,6,-419,-4645,23,-44,-18,17
136,2153,4,-420,-4648,23,-43,-18,18
137,2165,2,-424,-4651,23,-43,-20,17
138,2158,3,-414,-4643,23,-45,-18,17
139,2165,5,-426,-4649,23,-43,-20,16
140,2159,-1,-424,-4648,23,-43,-20,17
141,2159,8,-425,-4647,23,-44,-20,16
142,2159,5,-418,-4651,23,-44,-19,17
143,2156,7,-421,-4643,23,-43,-19,17
144,2157,4,-425,-4657,23,-44,-19,16
145,2156,0,-426,-4652,23,-44,-21,18
146,2165,8,-429,-4651,23,-44,-19,18
147,2161,5,-420,-4658,23,-44,-20,18
148,2157,1,-420,-4645,23,-44,-19,17
149,2156,2,-417,-4645,23,-43,-20,18
150,2156,3,-430,-4647,23,-44,-21,18
151,2162,2,-431,-4645,23,-44,-18,18
152,2159,4,-418,-4650,23,-45,-19,18
153,2155,4,-421,-4648,23,-44,-20,16
154,2162,-6,-419,-4647,23,-44,-19,18
155,2158,1,-428,-4656,23,-44,-18,18
156,2154,-1,-425,-4654,23,-44,-18,17
157,2164,2,-423,-4648,23,-45,-19,16
158,2157,-1,-421,-4652,23,-43,-19,17
159,2159,4,-428,-4645,23,-44,-19,19
160,2161,0,-421,-4651,23,-44,-20,17
161,2161,0,-425,-4653,23,-43,-20,17
162,2155,2,-423,-4655,23,-44,-19,16
163,2159,-2,-428,-4649,23,-44,-20,17
164,2156,2,-430,-4654,23,-44,-18,18
165,2159,2,-426,-4654,23,-45,-19,16
166,2155,-5,-425,-4649,23,-44,-18,17
167,2163,-3,-427,-4650,23,-44,-20,17
168,2159,1,-416,-4644,23,-44,-19,18
169,2156,-2,-413,-4643,23,-44,-19,17
170,2162,2,-427,-4650,23,-44,-19,17
171,2158,3,-424,-4658,23,-43,-21,16
172,2155,-1,-425,-4651,23,-44,-19,17
173,2159,-2,-424,-4653,23,-43,-21,17
174,2155,1,-419,-4653,23,-44,-21,16
175,2160,-3,-423,-4644,23,-44,-21,16
176,2157,2,-427,-4646,23,-44,-20,15
177,2155,-1,-431,-4646,23,-44,-19,17
178,2157,5,-431,-4649,23,-45,-19,17
179,2161,-1,-422,-4647,23,-44,-19,17
180,2157,1,-431,-4655,23,-44,-19,17
181,2155,-2,-428,-4642,23,-44,-19,17
182,2157,-1,-421,-4652,23,-45,-19,17
183,2158,2,-422,-4645,23,-45,-19,17
184,2160,-1,-425,-4649,23,-44,-18,17
185,2158,-4,-418,-4651,23,-44,-20,16
186,2156,-2,-422,-4644,23,-44,-20,16
187,2159,-3,-420,-4652,23,-42,-20,16
188,2156,-4,-426,-4649,23,-44,-19,17
189,2158,-4,-428,-4656,23,-44,-19,18
190,2160,0,-428,-4649,23,-43,-19,17
191,2157,-2,-420,-4649,23,-43,-18,16
192,2157,0,-423,-4648,23,-43,-19,16
193,2161,4,-424,-4653,23,-44,-18,17
194,2156,-1,-423,-4652,23,-44,-18,17
195,2160,-2,-423,-4649,23,-43,-20,18
196,2164,-4,-427,-4655,23,-43,-20,18
197,2156,-1,-424,-4652,23,-44,-20,17
198,2159,-1,-422,-4655,23,-43,-19,17
199,2158,3,-436,-4652,23,-44,-19,18
200,2159,-1,-431,-4648,23,-45,-19,18
201,2164,-3,-430,-4649,23,-44,-19,17
202,2157,0,-427,-4653,23,-43,-18,17
203,2163,-2,-423,-4647,23,-44,-20,17
204,2158,-4,-417,-4645,23,-45,-18,17
205,2157,-1,-424,-4650,23,-44,-18,15
206,2158,1,-429,-4653,23,-44,-20,17
207,2154,4,-422,-4652,23,-42,-19,16
208,2154,-2,-434,-4646,23,-44,-19,17
209,2158,5,-423,-4652,23,-44,-21,18
210,2155,-1,-428,-4645,23,-45,-19,18
211,2159,-1,-427,-4648,23,-44,-19,17
212,2155,-2,-428,-4651,23,-45,-20,16
213,2164,3,-423,-4640,23,-44,-20,17
214,2154,-2,-425,-4648,23,-43,-20,17
215,2160,2,-427,-4644,23,-43,-20,18
216,2153,1,-410,-4650,23,-43,-20,18
217,2158,0,-425,-4644,23,-44,-20,18
218,2161,-4,-417,-4650,23,-44,-19,18
219,2164,0,-418,-4649,23,-44,-19,16
220,2164,3,-417,-4650,23,-44,-20,18
221,2163,-2,-417,-4652,23,-43,-19,19
222,2168,2,-428,-4643,23,-44,-19,17
223,2163,1,-424,-4648,23,-43,-18,18
224,2160,1,-423,-4643,23,-43,-20,19
225,2156,1,-430,-4645,23,-44,-19,18
226,2154,2,-435,-4648,23,-45,-19,17
227,2156,2,-434,-4646,23,-44,-18,17
228,2159,2,-429,-4646,23,-44,-18,18
229,2165,0,-422,-4647,23,-43,-18,18
230,2159,0,-429,-4654,23,-44,-18,19
231,2155,4,-431,-4647,23,-44,-19,18
232,2164,6,-427,-4653,23,-45,-19,18
233,2161,3,-421,-4640,23,-43,-20,17
234,2154,3,-429,-4648,23,-42,-19,18
235,2152,4,-424,-4647,23,-44,-19,17
236,2163,2,-421,-4646,23,-45,-18,18
237,2161,4,-429,-4650,23,-44,-18,19
238,2154,5,-427,-4653,23,-44,-19,19
239,2161,3,-420,-4641,23,-44,-18,17
240,2155,-4,-412,-4651,23,-44,-19,18
241,2161,4,-417,-4644,23,-43,-19,17
242,2159,-1,-426,-4637,23,-45,-19,17
243,2157,0,-418,-4645,23,-45,-19,18
244,2156,-1,-415,-4641,23,-44,-19,17
245,2159,0,-424,-4649,23,-45,-19,17
246,2161,-1,-426,-4651,23,-44,-17,17
247,2161,2,-417,-4648,23,-44,-19,17
248,2163,-2,-418,-4646,23,-43,-19,18
249,2159,2,-419,-4646,23,-43,-19,17
250,2158,-9,-417,-4644,23,-43,-19,18
251,2160,-3,-425,-4642,23,-43,-21,17
252,2156,-1,-428,-4648,23,-44,-19,17
253,2161,-3,-422,-4646,23,-44,-20,17
254,2158,4,-421,-4640,23,-44,-20,18
255,2162,0,-431,-4650,23,-43,-19,17
256,2159,1,-423,-4644,23,-45,-20,17
257,2160,-1,-420,-4645,23,-44,-19,15
258,2157,-5,-423,-4644,23,-44,-21,16
259,2155,-5,-420,-4653,23,-44,-19,16
260,2165,-1,-423,-4642,23,-44,-20,16
261,2158,-1,-418,-4640,23,-44,-20,17
262,2154,-1,-424,-4644,23,-44,-19,18
263,2156,3,-416,-4644,23,-45,-19,17
264,2163,-1,-422,-4643,23,-44,-19,18
265,2159,5,-423,-4653,23,-45,-20,17
266,2161,1,-422,-4647,23,-43,-20,18
267,2162,1,-422,-4650,23,-43,-19,18
268,2162,3,-428,-4644,23,-44,-21,16
269,2161,0,-426,-4652,23,-43,-20,15
270,2161,2,-427,-4650,23,-45,-18,16
271,2161,2,-426,-4643,23,-45,-19,17
272,2155,-4,-429,-4641,23,-44,-19,18
273,2155,-3,-427,-4645,23,-43,-20,17
274,2152,1,-429,-4650,23,-43,-18,17
275,2158,2,-424,-4645,23,-45,-20,17
276,2163,2,-424,-4653,23,-45,-19,16
277,2160,8,-420,-4639,23,-44,-19,16
278,2159,3,-426,-4640,23,-43,-18,16
279,2161,4,-420,-4642,23,-44,-18,16
280,2157,-4,-434,-4644,23,-43,-18,17
281,2156,-5,-425,-4645,23,-44,-20,17
282,2158,5,-430,-4643,23,-43,-19,17
283,2160,2,-429,-4639,23,-43,-19,17
284,2155,5,-423,-4651,23,-44,-20,17
285,2164,0,-423,-4651,23,-44,-19,17
286,2165,5,-423,-4641,23,-44,-18,19
287,2159,-1,-423,-4638,23,-44,-18,17
288,2155,-3,-426,-4639,23,-43,-18,17
289,2156,-1,-420,-4642,23,-44,-18,16
290,2156,-3,-425,-4652,23,-43,-18,17
291,2158,-3,-418,-4643,23,-45,-20,18
292,2159,2,-421,-4646,23,-44,-20,17
293,2163,2,-430,-4643,23,-43,-19,17
294,2163,-2,-429,-4647,23,-43,-19,17
295,2161,-2,-416,-4651,23,-44,-18,16
296,2156,-3,-431,-4646,23,-44,-19,18
297,2157,-3,-422,-4654,23,-43,-19,17
298,2157,2,-418,-4640,23,-43,-20,17
299,2155,-3,-418,-4643,23,-43,-19,17
300,2162,-1,-419,-4649,23,-44,-20,17
301,2163,0,-423,-4651,23,-44,-19,16
302,2159,-3,-424,-4645,23,-44,-19,17
303,2155,2,-426,-4645,23,-44,-21,18
304,2161,-2,-422,-4643,23,-43,-21,17
305,2159,-2,-434,-4646,23,-43,-19,18
306,2156,-1,-423,-4641,23,-44,-21,17
307,2162,5,-429,-4650,23,-46,-19,16
308,2159,-2,-434,-4649,23,-44,-19,16
309,2160,5,-424,-4643,23,-44,-19,17
310,2157,3,-427,-4646,23,-44,-19,17
311,2162,0,-420,-4651,23,-43,-19,16
312,2153,0,-423,-4652,23,-44,-19,17
313,2157,5,-425,-4651,23,-44,-20,16
314,2155,1,-425,-4647,23,-44,-18,16
315,2157,5,-428,-4648,23,-44,-19,17
316,2162,2,-421,-4642,23,-44,-18,18
317,2162,5,-432,-4644,23,-44,-20,18
318,2153,2,-421,-4637,23,-43,-19,16
319,2162,6,-419,-4646,23,-45,-19,16
320,2159,2,-418,-4645,23,-44,-19,17
321,2161,5,-428,-4644,23,-44,-19,18
322,2158,3,-440,-4642,23,-44,-19,18
323,2157,-1,-427,-4642,23,-43,-20,17
324,2156,-2,-434,-4646,23,-42,-19,17
325,2157,0,-425,-4647,23,-43,-21,18
326,2158,3,-422,-4646,23,-43,-18,17
327,2155,4,-424,-4654,23,-43,-19,17
328,2164,3,-426,-4641,23,-45,-19,17
329,2162,0,-434,-4652,23,-44,-19,18
330,2158,1,-426,-4646,23,-43,-18,16
331,2160,0,-427,-4650,23,-44,-17,18
332,2160,-5,-418,-4643,23,-44,-18,17
333,2154,0,-426,-4645,23,-43,-19,17
334,2161,-3,-421,-4647,23,-42,-19,17
335,2161,-5,-425,-4646,23,-44,-19,17
336,2164,-1,-428,-4648,23,-44,-19,17
337,2163,-3,-427,-4643,23,-44,-20,17
338,2161,2,-422,-4641,23,-45,-20,17
339,2156,1,-419,-4649,23,-44,-19,17
340,2160,3,-421,-4650,23,-43,-19,17
341,2159,4,-425,-4646,23,-45,-18,17
342,2162,0,-416,-4638,23,-44,-19,16
343,2158,1,-420,-4653,23,-44,-20,16
344,2162,7,-427,-4648,23,-43,-20,16
345,2160,-1,-430,-4647,23,-44,-19,16
346,2158,-1,-426,-4644,23,-43,-20,17
347,2161,1,-422,-4643,23,-44,-20,16
348,2162,-2,-416,-4649,23,-45,-19,16
349,2161,3,-429,-4653,23,-43,-20,17
350,2162,2,-423,-4640,23,-43,-18,17
351,2161,1,-426,-4648,23,-43,-20,17
352,2155,-3,-427,-4647,23,-42,-20,17
353,2161,-4,-436,-4642,23,-44,-20,17
354,2160,0,-431,-4651,23,-44,-19,16
355,2159,5,-425,-4644,23,-43,-20,17
356,2147,0,-424,-4647,23,-44,-20,18
357,2159,3,-428,-4650,23,-45,-19,17
358,2154,7,-424,-4647,23,-45,-20,17
359,2160,-3,-425,-4644,23,-44,-21,17
360,2165,5,-421,-4640,23,-43,-19,17
361,2161,2,-427,-4644,23,-45,-19,16
362,2163,3,-428,-4656,23,-44,-20,16
363,2159,3,-430,-4654,23,-43,-19,18
364,2162,3,-419,-4650,23,-44,-19,17
365,2159,-2,-421,-4647,23,-44,-19,17
366,2156,2,-430,-4648,23,-44,-19,17
367,2159,8,-422,-4648,23,-44,-19,18
368,2158,-4,-428,-4643,23,-43,-20,17
369,2162,0,-419,-4636,23,-44,-19,16
370,2158,-1,-426,-4651,23,-43,-19,18
371,2164,4,-429,-4647,23,-44,-18,17
372,2162,-3,-419,-4638,23,-44,-19,18
373,2156,0,-429,-4648,23,-43,-19,17
374,2163,-4,-420,-4649,23,-44,-19,17
375,2156,-2,-419,-4647,23,-44,-19,16
376,2158,2,-425,-4651,23,-44,-20,17
377,2158,4,-427,-4645,23,-44,-21,17
378,2161,-1,-422,-4649,23,-43,-19,18
379,2156,0,-424,-4650,23,-44,-20,17
380,2156,1,-422,-4647,23,-43,-19,18
381,2157,4,-409,-4650,23,-44,-19,18
382,2159,-7,-427,-4647,23,-43,-19,17
383,2161,-1,-426,-4641,23,-44,-20,16
384,2154,-2,-412,-4640,23,-45,-20,17
385,2163,0,-432,-4645,23,-44,-17,18
386,2160,3,-422,-4647,23,-43,-17,16
387,2159,-1,-425,-4635,23,-44,-21,17
388,2159,-1,-424,-4647,23,-43,-19,17
389,2161,1,-419,-4649,23,-45,-19,16
390,2160,-1,-417,-4642,23,-45,-18,17
391,2161,0,-427,-4645,23,-45,-20,17
392,2160,2,-425,-4642,23,-44,-19,18
393,2158,-4,-423,-4650,23,-44,-19,16
394,2163,-4,-433,-4642,23,-44,-19,17
395,2159,0,-431,-4652,23,-44,-19,17
396,2151,4,-423,-4637,23,-44,-19,17
397,2160,5,-424,-4643,23,-44,-19,17
398,2156,3,-424,-4638,23,-44,-19,16
399,2156,-1,-423,-4649,23,-44,-20,16
400,2153,-3,-420,-4645,23,-42,-19,17
401,2158,1,-429,-4641,23,-43,-19,18
402,2156,2,-426,-4647,23,-43,-20,16
403,2154,-1,-429,-4649,23,-44,-20,16
404,2153,3,-422,-4643,23,-44,-19,18
405,2158,1,-426,-4640,23,-43,-19,18
406,2167,1,-423,-4644,23,-43,-20,18
407,2159,5,-431,-4643,23,-43,-19,18
408,2160,6,-427,-4648,23,-44,-18,17
409,2161,2,-431,-4647,23,-45,-18,17
410,2154,-1,-425,-4642,23,-45,-19,18
411,2156,-3,-421,-4642,23,-44,-19,18
412,2163,-2,-420,-4644,23,-43,-19,17
413,2159,-3,-428,-4646,23,-45,-19,17
414,2160,1,-421,-4647,23,-45,-19,17
415,2156,-1,-422,-4652,23,-43,-19,16
416,2161,-6,-429,-4640,23,-44,-20,16
417,2161,0,-426,-4646,23,-44,-20,17
418,2163,6,-420,-4643,23,-44,-20,17
419,2169,2,-423,-4648,23,-45,-20,17
420,2160,-1,-422,-4645,23,-44,-19,17
421,2158,-5,-421,-4643,23,-44,-19,18
422,2159,2,-423,-4642,23,-44,-18,17
423,2162,-2,-425,-4643,23,-43,-19,18
424,2157,-1,-424,-4642,23,-43,-19,17
425,2155,1,-423,-4645,23,-43,-19,17
426,2162,0,-428,-4643,23,-45,-20,18
427,2162,-4,-427,-4655,23,-43,-18,18
428,2163,2,-431,-4643,23,-44,-20,16
429,2158,5,-421,-4645,23,-44,-19,16
430,2158,5,-432,-4642,23,-44,-18,18
431,2156,-5,-424,-4645,23,-44,-19,17
432,2156,1,-430,-4649,23,-45,-18,19
433,2161,-2,-434,-4643,23,-43,-18,17
434,2154,0,-425,-4646,23,-44,-19,15
435,2159,1,-423,-4640,23,-43,-20,17
436,2158,0,-424,-4641,23,-46,-20,17
437,2161,-4,-421,-4639,23,-44,-19,17
438,2158,6,-424,-4644,23,-45,-20,15
439,2160,2,-424,-4643,23,-44,-19,17
440,2158,-1,-423,-4648,23,-45,-19,18
441,2162,5,-428,-4639,23,-45,-20,16
442,2166,1,-427,-4645,23,-43,-20,17
443,2162,8,-425,-4640,23,-43,-20,18
444,2158,0,-427,-4647,23,-44,-20,18
445,2161,2,-427,-4646,23,-44,-19,18
446,2160,-2,-426,-4645,23,-42,-19,18
447,2159,2,-428,-4636,23,-44,-18,18
448,2161,1,-428,-4645,23,-43,-19,19
449,2161,2,-428,-4644,23,-43,-19,18
450,2155,3,-426,-4649,23,-43,-19,18
451,2162,1,-422,-4648,23,-45,-17,18
452,2161,2,-422,-4643,23,-44,-18,16
453,2162,-6,-422,-4646,23,-44,-17,17
454,2155,0,-422,-4650,23,-44,-18,17
455,2161,8,-423,-4647,23,-44,-20,18
456,2160,-3,-423,-4645,23,-44,-19,17
457,2162,1,-428,-4641,23,-44,-19,16
458,2163,3,-424,-4640,23,-45,-19,17
459,2159,0,-421,-4647,23,-44,-19,18
460,2157,-1,-425,-4647,23,-44,-19,17
461,2153,2,-426,-4640,23,-45,-18,17
462,2158,6,-416,-4646,23,-43,-18,17
463,2160,-7,-425,-4643,23,-44,-18,16
464,2159,-2,-422,-4642,23,-43,-19,17
465,2162,0,-422,-4640,23,-44,-20,17
466,2158,1,-420,-4648,23,-44,-19,17
467,2156,0,-421,-4649,23,-43,-20,17
468,2159,2,-432,-4645,23,-45,-19,17
469,2163,-4,-425,-4640,23,-44,-19,17
470,2159,5,-429,-4641,23,-45,-19,17
471,2162,2,-425,-4639,23,-44,-19,17
472,2164,3,-425,-4646,23,-43,-19,16
473,2156,2,-420,-4641,23,-45,-19,16
474,2163,2,-428,-4640,23,-44,-19,16
475,2156,0,-433,-4644,23,-43,-19,18
476,2155,1,-422,-4640,23,-44,-20,18
477,2159,4,-424,-4643,23,-45,-18,16
478,2156,7,-424,-4645,23,-44,-20,16
479,2162,1,-426,-4642,23,-46,-20,16
480,2158,-2,-423,-4643,23,-44,-20,16
481,2163,2,-430,-4643,23,-42,-18,17
482,2161,4,-423,-4647,23,-45,-18,16
483,2157,4,-431,-4645,23,-44,-19,17
484,2158,-5,-435,-4642,23,-44,-20,17
485,2157,-1,-427,-4638,23,-44,-19,17
486,2156,0,-420,-4643,23,-45,-19,17
487,2160,5,-425,-4640,23,-45,-20,17
488,2160,0,-426,-4645,23,-44,-19,17
489,2155,4,-429,-4642,23,-43,-19,17
490,2158,5,-428,-4637,23,-44,-19,18
491,2160,-2,-427,-4640,23,-43,-19,16
492,2163,0,-418,-4641,23,-43,-19,17
493,2158,2,-420,-4645,23,-44,-19,17
494,2158,3,-429,-4646,23,-43,-20,17
495,2164,3,-417,-4647,23,-44,-19,17
496,2155,-2,-419,-4648,23,-44,-18,18
497,2162,1,-417,-4633,23,-46,-18,17
498,2157,1,-422,-4641,23,-43,-20,18
499,2157,2,-425,-4641,23,-44,-20,16
500,2158,-1,-422,-4638,23,-44,-18,17
501,2164,5,-420,-4648,23,-45,-19,17
502,2157,-1,-425,-4640,23,-43,-20,17
503,2159,0,-426,-4654,23,-43,-19,17
504,2154,-3,-432,-4645,23,-43,-18,17
505,2159,2,-422,-4642,23,-44,-20,16
506,2159,1,-429,-4648,23,-44,-21,18
507,2159,0,-429,-4647,23,-43,-20,17
508,2163,2,-420,-4636,23,-42,-20,17
509,2163,1,-423,-4638,23,-43,-20,17
510,2159,-5,-425,-4644,23,-43,-19,16
511,2159,4,-427,-4636,23,-45,-21,17
512,2160,5,-426,-4646,23,-44,-19,16
513,2158,4,-421,-4641,23,-44,-20,17
514,2157,-1,-418,-4653,23,-43,-22,16
515,2157,4,-418,-4646,23,-44,-20,17
516,2153,2,-424,-4636,23,-43,-20,17
517,2156,-1,-425,-4644,23,-44,-21,17
518,2163,-4,-426,-4644,23,-43,-19,17
519,2160,2,-427,-4644,23,-44,-18,17
520,2162,4,-425,-4637,23,-44,-20,18
521,2157,-4,-419,-4642,23,-44,-19,18
522,2159,-1,-423,-4642,23,-44,-19,17
523,2159,3,-423,-4644,23,-43,-20,19
524,2159,6,-429,-4643,23,-44,-18,17
525,2157,-1,-426,-4646,23,-43,-19,17
526,2160,10,-418,-4644,23,-45,-20,18
527,2159,5,-423,-4642,23,-46,-19,18
528,2160,-2,-421,-4635,23,-43,-19,18
529,2161,-2,-430,-4649,23,-43,-19,17
530,2163,1,-425,-4642,23,-44,-18,18
531,2158,1,-418,-4647,23,-44,-19,19
532,2154,6,-427,-4646,23,-42,-18,19
533,2161,2,-423,-4637,23,-45,-19,19
534,2162,0,-428,-4635,23,-44,-19,17
535,2159,-4,-427,-4637,23,-44,-20,18
536,2162,-1,-422,-4642,23,-43,-20,17
537,2160,0,-429,-4645,23,-43,-20,17
538,2161,3,-426,-4642,23,-44,-19,18
539,2153,-2,-430,-4642,23,-45,-20,16
540,2161,-2,-415,-4639,23,-44,-19,17
541,2160,4,-424,-4648,23,-44,-19,17
542,2159,2,-421,-4637,23,-44,-20,18
543,2162,3,-424,-4641,23,-44,-20,17
544,2162,-1,-427,-4642,23,-43,-20,18
545,2156,-1,-430,-4645,23,-44,-21,18
546,2155,-1,-425,-4642,23,-45,-20,17
547,2155,2,-426,-4643,23,-43,-18,17
548,2162,5,-426,-4641,23,-43,-18,16
549,2163,-1,-427,-4640,23,-43,-18,16
550,2157,0,-418,-4649,23,-43,-19,17
551,2159,-3,-418,-4642,23,-43,-18,18
552,2158,3,-427,-4646,23,-43,-19,17
553,2156,5,-423,-4646,23,-44,-20,17
554,2160,1,-421,-4642,23,-44,-18,18
555,2156,-1,-419,-4642,23,-43,-20,18
556,2157,3,-423,-4643,23,-44,-19,16
557,2157,1,-422,-4648,23,-43,-20,17
558,2164,1,-416,-4639,23,-44,-18,17
559,2162,-5,-426,-4645,23,-45,-20,17
560,2157,0,-424,-4646,23,-44,-19,17
561,2160,-4,-424,-4642,23,-44,-18,16
562,2157,-6,-427,-4634,23,-43,-20,17
563,2157,0,-423,-4637,23,-44,-19,18
564,2161,1,-425,-4638,23,-44,-19,17
565,2160,2,-425,-4632,23,-44,-19,16
566,2159,7,-428,-4636,23,-43,-18,17
567,2162,5,-423,-4639,23,-43,-19,18
568,2161,-1,-430,-4643,23,-43,-19,18
569,2157,1,-424,-4641,23,-43,-19,18
570,2159,-2,-422,-4637,23,-43,-19,16
571,2158,3,-428,-4647,23,-44,-19,16
572,2159,0,-434,-4637,23,-44,-20,17
573,2167,8,-421,-4638,23,-43,-19,17
574,2157,6,-432,-4644,23,-43,-19,17
575,2155,-5,-418,-4643,23,-44,-19,17
576,2158,-1,-425,-4641,23,-44,-19,16
577,2155,-2,-424,-4646,23,-44,-19,18
578,2162,1,-423,-4643,23,-44,-20,17
579,2157,-5,-418,-4640,23,-44,-19,16
580,2163,-1,-418,-4642,23,-44,-19,16
581,2160,0,-423,-4645,23,-44,-19,17
582,2160,6,-421,-4647,23,-44,-18,17
583,2160,1,-420,-4638,23,-44,-19,17
584,2161,0,-419,-4643,23,-44,-20,16
585,2158,5,-427,-4642,23,-43,-20,17
586,2157,4,-426,-4649,23,-44,-20,16
587,2156,3,-426,-4644,23,-44,-20,16
588,2153,4,-426,-4644,23,-44,-20,17
589,2157,1,-426,-4642,23,-45,-19,17
590,2155,-1,-420,-4647,23,-44,-19,17
591,2162,-2,-424,-4642,23,-44,-18,16
592,2168,0,-426,-4641,23,-44,-20,17
593,2145,2,-424,-4637,23,-44,-20,16
594,2152,2,-426,-4632,23,-44,-16,17
595,2149,-4,-412,-4634,23,-44,-20,17
596,2154,2,-417,-4641,23,-45,-20,17
597,2155,0,-423,-4646,23,-44,-17,18
598,2158,0,-432,-4646,23,-44,-18,18
599,2151,1,-425,-4641,23,-45,-19,17
600,2163,1,-432,-4638,23,-44,-20,16
601,2158,3,-428,-4645,23,-44,-19,17
602,2157,-6,-423,-4645,23,-45,-19,18
603,2165,2,-425,-4641,23,-44,-19,18
604,2163,-4,-419,-4639,23,-45,-18,17
605,2147,-8,-417,-4639,23,-44,-20,17
606,2159,-1,-427,-4642,23,-45,-19,17
607,2163,-6,-430,-4652,23,-43,-19,16
608,2156,-1,-427,-4640,23,-45,-18,16
609,2164,-1,-426,-4639,23,-44,-20,17
610,2166,1,-425,-4641,23,-44,-18,17
611,2157,3,-422,-4652,23,-43,-18,17
612,2154,-5,-427,-4646,23,-43,-18,16
613,2157,3,-423,-4635,23,-43,-19,17
614,2156,3,-423,-4646,23,-44,-20,15
615,2161,-1,-420,-4636,23,-44,-21,15
616,2156,-2,-424,-4639,23,-44,-19,17
617,2157,-1,-425,-4645,23,-43,-20,16
618,2158,0,-428,-4632,23,-45,-20,16
619,2160,-3,-424,-4632,23,-43,-20,16
620,2159,-3,-427,-4643,23,-43,-18,16
621,2167,-7,-425,-4636,23,-44,-19,16
622,2157,-3,-427,-4645,23,-44,-19,17
623,2161,1,-419,-4637,23,-42,-21,16
624,2159,3,-426,-4643,23,-44,-19,17
625,2157,-1,-426,-4633,23,-43,-20,16
626,2159,5,-429,-4631,23,-44,-21,16
627,2160,-2,-424,-4647,23,-45,-19,17
628,2159,-1,-426,-4638,23,-43,-19,18
629,2158,3,-424,-4640,23,-43,-20,16
630,2155,6,-421,-4644,23,-44,-20,18
631,2162,2,-419,-4637,23,-44,-19,17
632,2139,0,-430,-4635,23,-45,-19,16
633,2154,0,-431,-4646,23,-44,-21,17
634,2166,-4,-412,-4648,23,-43,-20,17
635,2161,1,-430,-4644,23,-46,-20,17
636,2168,-1,-421,-4646,23,-43,-19,16
637,2159,2,-421,-4651,23,-44,-19,17
638,2164,4,-415,-4644,23,-45,-20,15
639,2162,2,-424,-4639,23,-44,-20,17
640,2162,1,-431,-4646,23,-45,-20,16
641,2154,-1,-430,-4646,23,-44,-19,17
642,2164,-2,-426,-4646,23,-43,-20,17
643,2160,2,-424,-4643,23,-43,-19,18
644,2157,1,-427,-4640,23,-45,-19,17
645,2159,1,-426,-4641,23,-43,-20,16
646,2162,-2,-429,-4639,23,-44,-20,18
647,2159,1,-419,-4635,23,-44,-20,17
648,2156,-2,-425,-4641,23,-44,-19,16
649,2160,3,-430,-4645,23,-44,-19,17
650,2156,-2,-427,-4638,23,-43,-19,17
651,2156,0,-417,-4641,23,-43,-18,17
652,2155,4,-427,-4640,23,-43,-19,17
653,2157,2,-425,-4648,23,-44,-18,16
654,2156,5,-422,-4645,23,-45,-19,19
655,2153,4,-420,-4642,23,-44,-17,18
656,2152,-1,-418,-4648,23,-44,-19,18
657,2157,-5,-414,-4641,23,-44,-17,17
658,2159,6,-428,-4638,23,-43,-19,17
659,2155,-2,-424,-4640,23,-44,-19,17
660,2157,1,-427,-4642,23,-43,-20,17
661,2158,1,-425,-4647,23,-45,-19,18
662,2156,-7,-432,-4644,23,-44,-20,17
663,2160,-5,-430,-4649,23,-44,-19,16
664,2161,0,-424,-4631,23,-45,-19,16
665,2156,-3,-423,-4640,23,-45,-18,16
666,2164,-1,-417,-4638,23,-44,-19,18
667,2158,6,-426,-4643,23,-43,-19,18
668,2160,2,-433,-4641,23,-43,-18,16
669,2159,3,-427,-4640,23,-44,-18,17
670,2157,2,-423,-4647,23,-45,-21,17
671,2165,3,-421,-4642,23,-45,-19,16
672,2157,5,-420,-4643,23,-43,-20,17
673,2157,-3,-422,-4643,23,-43,-20,17
674,2152,-6,-430,-4637,23,-44,-19,17
675,2157,5,-435,-4642,23,-42,-19,18
676,2154,4,-429,-4636,23,-43,-20,17
677,2159,3,-429,-4637,23,-44,-21,16
678,2155,2,-432,-4635,23,-44,-20,17
679,2156,5,-429,-4643,23,-44,-20,17
680,2154,6,-416,-4645,23,-45,-20,17
681,2162,2,-418,-4645,23,-43,-20,17
682,2158,-3,-428,-4643,23,-43,-20,17
683,2157,1,-418,-4647,23,-43,-20,16
684,2157,-4,-427,-4648,23,-45,-20,16
685,2160,4,-424,-4638,23,-45,-20,16
686,2159,0,-424,-4638,23,-44,-20,16
687,2161,0,-426,-4646,23,-44,-20,16
688,2157,-1,-418,-4638,23,-44,-18,16
689,2155,1,-430,-4638,23,-44,-19,17
690,2158,4,-424,-4640,23,-42,-19,17
691,2152,0,-421,-4635,23,-44,-19,18
692,2162,8,-423,-4638,23,-44,-20,17
693,2160,7,-427,-4646,23,-44,-19,17
694,2162,5,-418,-4634,23,-44,-19,18
695,2163,2,-418,-4646,23,-43,-19,17
696,2165,6,-415,-4643,23,-43,-18,17
697,2159,0,-430,-4646,23,-45,-18,17
698,2154,3,-432,-4640,23,-46,-19,17
699,2153,5,-430,-4637,23,-44,-19,17
700,2152,0,-428,-4642,23,-45,-19,17
701,2157,1,-427,-4644,23,-45,-20,17
702,2154,-1,-415,-4645,23,-44,-20,17
703,2160,1,-423,-4633,23,-45,-19,17
704,2155,6,-422,-4645,23,-43,-19,16
705,2158,-3,-428,-4642,23,-43,-19,17
706,2159,-2,-427,-4640,23,-45,-19,18
707,2158,-1,-424,-4649,23,-43,-19,17
708,2155,0,-428,-4645,23,-44,-19,17
709,2159,2,-431,-4637,23,-45,-19,17
710,2160,-1,-417,-4637,23,-44,-19,16
711,2160,0,-427,-4646,23,-44,-19,18
712,2164,1,-428,-4638,23,-44,-19,17
713,2162,5,-424,-4639,23,-42,-19,16
714,2158,1,-423,-4643,23,-43,-19,19
715,2156,-4,-429,-4645,23,-44,-21,18
716,2159,1,-411,-4639,23,-45,-20,17
717,2157,5,-421,-4641,23,-42,-20,17
718,2157,7,-419,-4641,23,-43,-20,16
719,2161,1,-422,-4637,23,-44,-20,16
720,2161,-1,-429,-4646,23,-45,-19,17
721,2160,-1,-432,-4630,23,-45,-18,17
722,2161,1,-417,-4644,23,-44,-18,17
723,2160,1,-425,-4639,23,-44,-20,16
724,2157,-3,-420,-4638,23,-44,-19,18
725,2166,3,-429,-4644,23,-45,-19,18
726,2164,1,-421,-4651,23,-43,-19,16
727,2161,6,-430,-4640,23,-44,-20,15
728,2160,5,-425,-4646,23,-45,-20,16
729,2159,3,-437,-4644,23,-44,-19,16
730,2162,0,-426,-4641,23,-44,-19,17
731,2159,-2,-426,-4640,23,-45,-20,17
732,2161,-2,-429,-4640,23,-44,-19,18
733,2170,5,-425,-4636,23,-44,-19,17
734,2157,1,-425,-4643,23,-45,-19,17
735,2159,-1,-423,-4640,23,-44,-18,17
736,2156,-2,-414,-4636,23,-43,-20,18
737,2161,1,-420,-4641,23,-44,-19,17
738,2158,-6,-425,-4642,23,-44,-19,17
739,2161,2,-422,-4633,23,-44,-19,17
740,2156,-3,-425,-4641,23,-44,-20,17
741,2159,-3,-433,-4643,23,-46,-20,17
742,2161,-2,-423,-4646,23,-44,-19,17
743,2164,-3,-419,-4644,23,-45,-19,18
744,2161,-2,-421,-4642,23,-45,-19,16
745,2156,6,-425,-4642,23,-44,-19,17
746,2154,4,-420,-4640,23,-45,-18,18
747,2159,3,-424,-4633,23,-44,-19,18
748,2155,1,-425,-4631,23,-43,-18,18
749,2161,4,-420,-4631,23,-44,-19,18
750,2155,0,-430,-4643,23,-45,-20,17
751,2161,-2,-422,-4639,23,-44,-17,18
752,2159,-2,-422,-4648,23,-44,-20,17
753,2161,-2,-419,-4642,23,-45,-20,17
754,2163,4,-432,-4638,23,-45,-18,17
755,2160,0,-427,-4636,23,-45,-19,17
756,2159,3,-419,-4641,23,-43,-20,18
757,2162,-2,-423,-4644,23,-45,-19,18
758,2159,-6,-420,-4646,23,-43,-19,18
759,2163,1,-416,-4643,23,-44,-20,17
760,2156,-4,-421,-4639,23,-46,-20,17
761,2163,-1,-427,-4647,23,-44,-20,17
762,2162,5,-423,-4645,23,-44,-19,17
763,2161,-1,-429,-4638,23,-45,-20,17
764,2153,4,-432,-4636,23,-44,-19,18
765,2156,5,-431,-4642,23,-44,-20,17
766,2160,1,-432,-4646,23,-44,-20,18
767,2151,-3,-430,-4644,23,-44,-20,17
768,2157,1,-429,-4641,23,-44,-19,18
769,2163,0,-430,-4643,23,-43,-20,17
770,2161,6,-430,-4644,23,-43,-21,16
771,2157,0,-427,-4640,23,-44,-20,17
772,2158,6,-425,-4642,23,-43,-19,16
773,2165,3,-429,-4637,23,-45,-19,17
774,2163,-1,-425,-4640,23,-44,-19,18
775,2162,0,-426,-4643,23,-44,-20,17
776,2159,1,-428,-4638,23,-44,-21,17
777,2159,4,-426,-4636,23,-43,-19,16
778,2156,3,-425,-4635,23,-44,-18,17
779,2164,0,-422,-4637,23,-43,-21,17
780,2155,-4,-425,-4635,23,-44,-19,17
781,2154,-4,-423,-4640,23,-43,-19,16
782,2162,-7,-429,-4632,23,-43,-18,17
783,2154,0,-417,-4637,23,-43,-19,17
784,2158,-2,-418,-4643,23,-44,-18,18
785,2157,-4,-423,-4638,23,-43,-19,18
786,2158,-2,-424,-4642,23,-42,-19,16
787,2159,3,-429,-4641,23,-43,-20,17
788,2162,2,-423,-4642,23,-45,-19,18
789,2157,2,-423,-4641,23,-43,-18,17
790,2159,0,-424,-4647,23,-44,-18,17
791,2155,-2,-423,-4632,23,-43,-19,18
792,2156,-4,-423,-4636,23,-44,-19,17
793,2161,-4,-417,-4634,23,-44,-20,16
794,2161,2,-422,-4636,23,-43,-19,17
795,2155,1,-423,-4633,23,-44,-19,16
796,2164,3,-429,-4639,23,-43,-20,16
797,2158,1,-429,-4638,23,-43,-19,18
798,2161,3,-422,-4642,23,-43,-19,17
799,2161,2,-420,-4639,23,-44,-18,17
800,2158,-2,-419,-4643,23,-43,-19,17
801,2156,-5,-429,-4650,23,-44,-19,17
802,2159,-1,-419,-4637,23,-44,-19,16
803,2160,1,-427,-4632,23,-44,-20,17
804,2159,3,-424,-4634,23,-44,-20,16
805,2158,0,-428,-4639,23,-45,-19,17
806,2161,1,-428,-4639,23,-44,-19,17
807,2162,1,-422,-4640,23,-43,-19,16
808,2166,-3,-421,-4636,23,-43,-18,17
809,2162,-3,-418,-4642,23,-43,-19,18
810,2163,0,-425,-4640,23,-43,-19,17
811,2159,3,-427,-4641,23,-43,-19,17
812,2154,5,-421,-4640,23,-44,-19,17
813,2153,-2,-428,-4644,23,-44,-19,17
814,2158,1,-424,-4643,23,-44,-20,17
815,2161,5,-424,-4641,23,-43,-19,17
816,2159,0,-411,-4644,23,-42,-19,18
817,2159,1,-424,-4640,23,-43,-20,17
818,2159,-6,-428,-4645,23,-43,-19,18
819,2165,0,-425,-4638,23,-43,-18,16
820,2157,4,-430,-4642,23,-44,-20,17
821,2159,-2,-429,-4636,23,-46,-20,18
822,2161,1,-428,-4635,23,-44,-19,18
823,2160,5,-427,-4637,23,-44,-18,17
824,2156,-1,-413,-4637,23,-43,-19,17
825,2163,1,-420,-4636,23,-43,-19,16
826,2163,2,-420,-4636,23,-44,-20,19
827,2167,5,-432,-4640,23,-45,-20,17
828,2159,-2,-425,-4641,23,-43,-20,17
829,2162,3,-421,-4634,23,-43,-19,17
830,2161,5,-418,-4645,23,-44,-21,16
831,2160,0,-417,-4638,23,-45,-19,16
832,2157,0,-426,-4638,23,-43,-19,16
833,2159,3,-429,-4640,23,-44,-20,18
834,2162,9,-429,-4642,23,-44,-20,17
835,2159,-4,-424,-4640,23,-44,-19,17
836,2160,2,-420,-4644,23,-43,-21,17
837,2161,0,-418,-4644,23,-43,-19,17
838,2159,0,-417,-4643,23,-42,-20,16
839,2158,4,-419,-4643,23,-45,-20,17
840,2156,4,-418,-4645,23,-44,-19,16
841,2155,1,-428,-4642,23,-43,-20,16
842,2160,0,-422,-4646,23,-43,-20,17
843,2153,3,-418,-4647,23,-43,-20,17
844,2164,0,-428,-4643,23,-43,-18,17
845,2156,1,-419,-4647,23,-43,-21,18
846,2160,4,-431,-4646,23,-43,-19,17
847,2158,3,-427,-4645,23,-42,-20,16
848,2160,-2,-419,-4638,23,-43,-19,17
849,2157,2,-424,-4630,23,-44,-21,18
850,2162,-5,-428,-4644,23,-44,-20,18
851,2161,-2,-421,-4642,23,-43,-21,17
852,2159,1,-424,-4641,23,-44,-20,17
853,2160,3,-418,-4638,23,-44,-20,18
854,2163,2,-418,-4639,23,-43,-18,17
855,2159,4,-430,-4637,23,-44,-18,17
856,2162,4,-424,-4644,23,-43,-19,17
857,2159,9,-415,-4639,23,-45,-19,17
858,2159,-4,-422,-4635,23,-45,-19,17
859,2153,1,-426,-4640,23,-45,-19,15
860,2152,3,-431,-4641,23,-44,-20,17
861,2158,8,-426,-4646,23,-44,-19,16
862,2158,1,-422,-4641,23,-44,-19,17
863,2158,-2,-418,-4632,23,-44,-19,17
864,2155,0,-419,-4639,23,-45,-19,18
865,2159,5,-414,-4636,23,-44,-18,17
866,2155,6,-430,-4644,23,-44,-19,18
867,2162,2,-423,-4637,23,-44,-19,18
868,2162,-1,-424,-4636,23,-43,-18,17
869,2154,3,-425,-4642,23,-44,-19,17
870,2164,4,-422,-4640,23,-44,-20,18
871,2159,4,-433,-4648,23,-43,-20,17
872,2156,3,-420,-4645,23,-44,-19,17
873,2161,1,-420,-4636,23,-44,-21,18
874,2159,-3,-421,-4645,23,-44,-19,16
875,2157,-5,-422,-4641,23,-45,-19,17
876,2163,1,-428,-4645,23,-44,-19,18
877,2164,-1,-426,-4642,23,-43,-20,17
878,2161,2,-419,-4637,23,-43,-20,18
879,2157,6,-423,-4646,23,-43,-19,16
880,2158,3,-423,-4642,23,-44,-19,17
881,2156,-5,-424,-4641,23,-42,-19,18
882,2160,1,-433,-4645,23,-44,-19,17
883,2157,2,-421,-4643,23,-43,-20,18
884,2163,-1,-426,-4641,23,-44,-17,17
885,2166,-4,-425,-4639,23,-43,-19,17
886,2165,-6,-420,-4639,23,-43,-18,17
887,2158,-5,-426,-4639,23,-43,-19,18
888,2158,6,-430,-4638,23,-44,-19,18
889,2161,4,-425,-4640,23,-44,-19,16
890,2154,6,-422,-4630,23,-44,-20,17
891,2154,3,-426,-4647,23,-45,-19,16
892,2156,2,-418,-4645,23,-44,-17,15
893,2158,6,-424,-4643,23,-44,-20,17
894,2159,-2,-428,-4640,23,-44,-19,17
895,2159,0,-422,-4632,23,-43,-20,17
896,2155,4,-422,-4628,23,-45,-20,17
897,2159,0,-422,-4631,23,-45,-20,17
898,2160,2,-426,-4637,23,-44,-17,17
899,2164,0,-433,-4637,23,-43,-20,15
900,2162,1,-425,-4640,23,-43,-19,17
901,2157,-3,-423,-4636,23,-43,-19,17
902,2155,1,-416,-4640,23,-45,-18,18
903,2161,2,-418,-4644,23,-44,-20,18
904,2156,4,-427,-4635,23,-44,-19,17
905,2154,0,-422,-4632,23,-43,-19,16
906,2157,-1,-423,-4638,23,-44,-20,18
907,2159,1,-437,-4637,23,-42,-18,16
908,2159,1,-426,-4642,23,-43,-19,17
909,2164,5,-429,-4645,23,-44,-19,17
910,2157,3,-420,-4642,23,-42,-19,17
911,2161,4,-421,-4640,23,-43,-20,17
912,2160,6,-427,-4652,23,-45,-19,17
913,2159,-2,-422,-4636,23,-46,-20,18
914,2163,1,-426,-4633,23,-45,-18,17
915,2162,2,-425,-4637,23,-44,-18,17
916,2163,0,-419,-4639,23,-44,-19,17
917,2164,-3,-426,-4636,23,-44,-20,17
918,2160,-1,-429,-4631,23,-43,-19,17
919,2155,0,-414,-4636,23,-44,-20,17
920,2161,0,-423,-4639,23,-44,-20,18
921,2157,4,-429,-4639,23,-43,-20,17
922,2160,-4,-426,-4643,23,-44,-20,18
923,2156,-3,-423,-4631,23,-45,-18,17
924,2156,-3,-422,-4631,23,-44,-19,17
925,2159,-4,-419,-4635,23,-44,-18,16
926,2163,4,-424,-4639,23,-44,-19,16
927,2169,2,-433,-4638,23,-45,-19,16
928,2153,2,-424,-4640,23,-44,-19,17
929,2161,1,-423,-4641,23,-44,-18,17
930,2155,0,-424,-4639,23,-45,-18,17
931,2158,-1,-422,-4637,23,-44,-18,17
932,2160,0,-425,-4638,23,-44,-20,17
933,2164,1,-421,-4638,23,-43,-20,17
934,2159,5,-417,-4646,23,-43,-20,16
935,2158,3,-420,-4641,23,-43,-19,16
936,2164,0,-418,-4641,23,-44,-18,17
937,2157,5,-418,-4646,23,-43,-19,17
938,2164,0,-432,-4636,23,-43,-21,17
939,2158,2,-426,-4638,23,-44,-21,17
940,2154,-5,-424,-4640,23,-44,-19,16
941,2154,0,-426,-4646,23,-44,-21,17
942,2161,4,-421,-4640,23,-45,-19,17
943,2155,2,-421,-4632,23,-44,-19,17
944,2159,1,-416,-4638,23,-43,-19,17
945,2154,1,-417,-4638,23,-44,-19,17
946,2161,3,-422,-4629,23,-44,-19,17
947,2156,-1,-427,-4639,23,-43,-19,18
948,2161,-2,-426,-4640,23,-45,-19,18
949,2156,-2,-432,-4642,23,-44,-20,17
950,2162,1,-433,-4638,23,-46,-19,17
951,2157,5,-412,-4632,23,-45,-18,16
952,2159,0,-425,-4639,23,-43,-19,18
953,2155,1,-418,-4644,23,-43,-18,18
954,2159,0,-422,-4638,23,-44,-19,18
955,2158,0,-417,-4634,23,-44,-19,18
956,2162,1,-427,-4634,23,-44,-19,17
957,2164,-7,-418,-4638,23,-44,-18,18
958,2159,-3,-427,-4632,23,-44,-18,17
959,2158,-2,-422,-4629,23,-45,-19,17
960,2152,4,-422,-4638,23,-43,-20,18
961,2159,5,-427,-4644,23,-43,-20,17
962,2155,-2,-426,-4644,23,-44,-19,17
963,2160,-4,-424,-4642,23,-44,-19,17
964,2157,-4,-422,-4641,23,-43,-20,17
965,2156,3,-422,-4638,23,-43,-20,18
966,2164,6,-431,-4640,23,-44,-19,18
967,2156,5,-431,-4636,23,-45,-18,17
968,2156,2,-419,-4634,23,-45,-18,17
969,2159,4,-418,-4636,23,-44,-20,17
970,2158,2,-422,-4640,23,-44,-20,17
971,2156,0,-433,-4632,23,-45,-19,17
972,2156,0,-429,-4638,23,-43,-20,17
973,2158,1,-424,-4637,23,-44,-20,17
974,2161,3,-418,-4633,23,-44,-19,17
975,2158,-3,-422,-4634,23,-43,-18,17
976,2160,3,-427,-4635,23,-44,-20,17
977,2159,0,-419,-4635,23,-44,-19,17
978,2158,5,-427,-4635,23,-44,-19,18
979,2163,9,-428,-4633,23,-44,-18,17
980,2158,2,-420,-4624,23,-44,-18,18
981,2156,3,-422,-4628,23,-44,-20,18
982,2161,4,-422,-4632,23,-45,-19,17
983,2160,4,-434,-4631,23,-44,-19,17
984,2157,2,-435,-4635,23,-44,-19,18
985,2156,1,-432,-4633,23,-43,-19,17
986,2156,2,-421,-4635,23,-44,-20,17
987,2157,0,-426,-4634,23,-43,-18,16
988,2160,3,-418,-4642,23,-44,-17,17
989,2158,7,-429,-4634,23,-44,-17,17
990,2165,3,-426,-4638,23,-43,-19,18
991,2158,-3,-421,-4638,23,-44,-19,17
992,2157,8,-419,-4638,23,-43,-20,17
993,2155,3,-427,-4635,23,-44,-19,17
994,2162,-1,-423,-4639,23,-44,-19,18
995,2158,2,-408,-4634,23,-44,-19,17
996,2157,6,-423,-4635,23,-43,-19,18
997,2160,2,-418,-4633,23,-44,-20,17
998,2162,-3,-433,-4639,23,-43,-19,17
