,acc_X,acc_Y,acc_Z,temp,tempC,gyr_X,gyr_Y,gyr_Z
0,2160,1,-428,-4830,22,-43,-19,17
1,2159,2,-428,-4830,22,-44,-19,17
2,2160,1,-428,-4829,22,-44,-19,17
3,2160,1,-428,-4828,22,-43,-19,17
4,2159,1,-428,-4827,22,-44,-19,17
5,2160,0,-428,-4828,22,-44,-19,17
6,2159,2,-426,-4828,22,-44,-19,17
7,2158,2,-427,-4827,22,-44,-19,17
8,2158,2,-427,-4828,22,-43,-19,17
9,2158,2,-428,-4827,22,-44,-19,17
10,2158,3,-427,-4826,22,-44,-19,17
11,2158,3,-427,-4825,22,-43,-19,17
12,2158,1,-428,-4826,22,-43,-19,17
13,2157,0,-427,-4827,22,-44,-19,17
14,2156,2,-428,-4825,22,-44,-19,17
15,2156,1,-429,-4825,22,-44,-20,17
16,2157,2,-430,-4824,22,-43,-19,17
17,2157,2,-429,-4823,22,-43,-19,17
18,2157,3,-429,-4823,22,-43,-19,17
19,2157,2,-429,-4823,22,-43,-19,17
20,2158,3,-426,-4824,22,-43,-19,17
21,2158,3,-427,-4825,22,-43,-20,17
22,2158,3,-427,-4825,22,-43,-20,17
23,2158,2,-429,-4829,22,-43,-20,17
24,2158,2,-429,-4829,22,-43,-19,17
25,2159,3,-429,-4828,22,-44,-19,17
26,2158,3,-431,-4825,22,-44,-19,17
27,2157,2,-429,-4825,22,-43,-19,17
28,2157,1,-427,-4824,22,-43,-19,17
29,2159,0,-428,-4822,22,-43,-19,17
30,2159,0,-428,-4823,22,-44,-19,17
31,2160,1,-427,-4821,22,-44,-20,17
32,2159,1,-427,-4823,22,-43,-19,17
33,2159,0,-428,-4821,22,-44,-19,17
34,2159,1,-430,-4821,22,-44,-20,17
35,2159,2,-428,-4820,22,-44,-19,17
36,2159,2,-428,-4820,22,-44,-19,17
37,2159,2,-428,-4820,22,-43,-19,17
38,2159,2,-429,-4818,22,-43,-19,17
39,2158,2,-429,-4820,22,-43,-19,17
40,2160,2,-431,-4821,22,-43,-19,17
41,2160,2,-430,-4819,22,-43,-19,17
42,2160,1,-430,-4820,22,-43,-19,17
43,2161,1,-429,-4820,22,-43,-19,17
44,2161,1,-429,-4818,22,-43,-19,17
45,2161,0,-429,-4818,22,-43,-19,17
46,2162,1,-430,-4818,22,-44,-19,17
47,2161,1,-430,-4816,22,-44,-19,17
48,2160,1,-429,-4816,22,-44,-19,17
49,2160,0,-429,-4815,22,-44,-19,17
50,2158,0,-428,-4816,22,-43,-19,17
51,2158,-1,-431,-4816,22,-43,-19,17
52,2158,0,-431,-4816,22,-43,-19,17
53,2158,1,-429,-4814,22,-44,-19,17
54,2159,1,-429,-4813,22,-43,-19,17
55,2159,1,-430,-4811,22,-44,-19,17
56,2159,2,-431,-4811,22,-44,-19,17
57,2160,3,-430,-4812,22,-43,-19,17
58,2160,2,-430,-4812,22,-43,-19,17
59,2159,3,-429,-4812,22,-43,-19,17
60,2160,3,-428,-4812,22,-43,-19,17
61,2160,2,-429,-4810,22,-43,-19,17
62,2161,2,-428,-4809,22,-43,-20,17
63,2159,2,-427,-4811,22,-43,-20,17
64,2158,3,-426,-4811,22,-43,-20,17
65,2157,3,-425,-4813,22,-43,-20,17
66,2158,3,-427,-4813,22,-43,-20,17
67,2159,3,-428,-4812,22,-44,-20,17
68,2159,3,-427,-4812,22,-44,-19,17
69,2160,2,-429,-4813,22,-44,-19,17
70,2159,3,-431,-4812,22,-44,-19,17
71,2158,2,-428,-4812,22,-44,-20,17
72,2158,3,-427,-4812,22,-44,-19,17
73,2158,4,-428,-4812,22,-44,-20,17
74,2158,4,-427,-4810,22,-44,-20,17
75,2159,4,-429,-4809,22,-44,-20,17
76,2158,5,-428,-4810,22,-44,-20,17
77,2158,3,-427,-4808,22,-44,-19,16
78,2158,2,-426,-4808,22,-44,-19,17
79,2159,2,-425,-4808,22,-44,-19,17
80,2160,2,-426,-4809,22,-44,-19,17
81,2159,1,-425,-4806,22,-44,-19,17
82,2158,1,-425,-4806,22,-43,-19,17
83,2158,2,-425,-4806,22,-43,-19,17
84,2158,2,-426,-4806,22,-43,-19,17
85,2158,2,-425,-4805,22,-43,-19,17
86,2159,2,-425,-4805,22,-44,-19,17
87,2160,1,-427,-4804,22,-44,-19,17
88,2159,1,-428,-4802,22,-44,-19,17
89,2159,1,-427,-4802,22,-43,-19,17
90,2160,0,-427,-4802,22,-43,-20,17
91,2159,0,-429,-4803,22,-43,-20,17
92,2159,0,-431,-4802,22,-43,-20,17
93,2159,0,-432,-4801,22,-44,-20,17
94,2159,0,-430,-4800,22,-44,-19,16
95,2158,0,-430,-4802,22,-43,-19,17
96,2158,0,-432,-4803,22,-43,-20,17
97,2159,1,-431,-4805,22,-43,-20,17
98,2159,2,-430,-4803,22,-43,-20,17
99,2158,1,-430,-4804,22,-43,-20,17
100,2159,1,-428,-4804,22,-43,-20,17
101,2159,1,-428,-4806,22,-43,-20,17
102,2160,1,-429,-4806,22,-44,-20,17
103,2161,0,-428,-4804,22,-44,-19,17
104,2160,-1,-427,-4804,22,-44,-19,17
105,2161,0,-427,-4803,22,-43,-19,17
106,2161,0,-426,-4802,22,-44,-20,17
107,2160,0,-428,-4803,22,-44,-20,17
108,2159,1,-428,-4802,22,-44,-20,17
109,2159,1,-428,-4802,22,-44,-19,17
110,2158,2,-428,-4803,22,-43,-19,17
111,2159,2,-428,-4803,22,-44,-19,17
112,2158,2,-428,-4802,22,-44,-19,17
113,2158,1,-428,-4800,22,-44,-19,17
114,2157,1,-427,-4800,22,-44,-19,17
115,2158,1,-427,-4801,22,-44,-20,17
116,2158,1,-427,-4800,22,-44,-20,17
117,2159,0,-427,-4801,22,-44,-19,17
118,2159,0,-426,-4801,22,-44,-19,17
119,2158,1,-428,-4798,22,-44,-19,17
120,2158,2,-427,-4799,22,-44,-19,17
121,2158,1,-428,-4796,22,-44,-19,17
122,2157,3,-428,-4794,22,-44,-19,16
123,2159,3,-428,-4794,22,-44,-19,17
124,2158,3,-428,-4795,22,-44,-19,16
125,2158,3,-428,-4797,22,-44,-19,17
126,2158,3,-430,-4796,22,-44,-19,17
127,2159,2,-429,-4796,22,-43,-19,17
128,2159,1,-430,-4795,22,-43,-19,17
129,2159,2,-429,-4794,22,-43,-19,17
130,2159,1,-431,-4796,22,-43,-19,17
131,2158,0,-431,-4796,22,-43,-19,17
132,2158,1,-431,-4795,22,-43,-19,17
133,2156,1,-431,-4795,22,-43,-19,17
134,2156,1,-431,-4796,22,-43,-19,17
135,2158,1,-431,-4795,22,-43,-19,17
136,2158,1,-430,-4796,22,-43,-19,17
137,2159,1,-428,-4795,22,-43,-19,17
138,2158,1,-429,-4796,22,-43,-19,17
139,2157,1,-429,-4795,22,-43,-19,17
140,2158,1,-430,-4796,22,-43,-19,17
141,2158,0,-430,-4796,22,-43,-19,17
142,2158,0,-428,-4796,22,-44,-19,17
143,2160,2,-429,-4795,22,-44,-19,17
144,2159,1,-428,-4795,22,-44,-19,17
145,2159,1,-427,-4795,22,-44,-19,16
146,2159,2,-428,-4794,22,-43,-19,16
147,2158,3,-427,-4794,22,-43,-19,16
148,2158,3,-426,-4794,22,-43,-19,16
149,2159,2,-426,-4793,22,-43,-19,17
150,2159,1,-426,-4793,22,-43,-19,17
151,2159,1,-427,-4794,22,-43,-19,17
152,2159,2,-427,-4794,22,-43,-19,17
153,2160,2,-428,-4793,22,-44,-19,17
154,2160,2,-428,-4793,22,-43,-19,17
155,2162,2,-429,-4791,22,-44,-20,17
156,2161,1,-428,-4791,22,-43,-20,17
157,2161,1,-432,-4790,22,-44,-20,17
158,2160,2,-430,-4790,22,-43,-20,17
159,2161,3,-429,-4791,22,-43,-20,17
160,2160,3,-427,-4791,22,-43,-19,17
161,2160,3,-426,-4791,22,-44,-20,17
162,2161,2,-428,-4791,22,-44,-19,17
163,2160,1,-427,-4793,22,-44,-19,17
164,2159,1,-429,-4792,22,-44,-19,17
165,2159,1,-430,-4791,22,-44,-19,17
166,2158,1,-429,-4791,22,-44,-19,17
167,2158,2,-429,-4792,22,-44,-20,17
168,2158,2,-430,-4792,22,-43,-20,16
169,2160,3,-428,-4794,22,-43,-20,17
170,2160,2,-428,-4793,22,-43,-19,16
171,2158,3,-430,-4792,22,-44,-19,16
172,2158,4,-431,-4793,22,-44,-19,16
173,2157,4,-431,-4792,22,-44,-19,17
174,2158,5,-429,-4792,22,-44,-19,16
175,2158,4,-427,-4792,22,-44,-19,17
176,2158,2,-427,-4792,22,-44,-19,17
177,2158,2,-429,-4791,22,-44,-19,17
178,2158,1,-429,-4791,22,-44,-19,17
179,2159,2,-430,-4788,22,-44,-19,17
180,2158,1,-428,-4789,22,-44,-19,17
181,2158,1,-427,-4789,22,-44,-20,17
182,2160,1,-429,-4787,22,-44,-19,17
183,2160,1,-431,-4788,22,-43,-19,16
184,2159,2,-430,-4789,22,-43,-19,17
185,2158,1,-430,-4787,22,-43,-19,17
186,2159,0,-431,-4787,22,-43,-19,17
187,2159,1,-429,-4786,22,-43,-19,17
188,2158,1,-430,-4784,22,-43,-19,17
189,2158,0,-429,-4785,22,-44,-20,17
190,2158,0,-430,-4786,22,-44,-19,17
191,2158,1,-430,-4787,22,-44,-19,17
192,2158,1,-429,-4786,22,-44,-19,17
193,2157,1,-430,-4785,22,-43,-19,17
194,2157,2,-430,-4786,22,-43,-19,17
195,2158,3,-429,-4784,22,-44,-19,17
196,2158,2,-428,-4786,22,-44,-19,17
197,2159,3,-428,-4787,22,-44,-19,17
198,2160,3,-429,-4786,22,-44,-19,17
199,2160,4,-428,-4786,22,-44,-19,17
200,2159,3,-428,-4784,22,-44,-19,17
201,2159,3,-429,-4783,22,-44,-19,17
202,2158,2,-429,-4784,22,-44,-19,17
203,2158,1,-428,-4784,22,-44,-20,17
204,2158,1,-428,-4783,22,-44,-19,17
205,2158,2,-430,-4784,22,-44,-19,17
206,2157,1,-429,-4784,22,-44,-19,17
207,2157,4,-429,-4783,22,-44,-19,17
208,2157,2,-430,-4783,22,-43,-19,17
209,2158,3,-429,-4782,22,-44,-19,17
210,2158,3,-429,-4782,22,-44,-19,17
211,2157,2,-428,-4784,22,-43,-19,17
212,2157,3,-429,-4784,22,-44,-20,17
213,2157,2,-428,-4785,22,-43,-20,16
214,2158,3,-427,-4784,22,-44,-19,17
215,2159,2,-427,-4783,22,-44,-20,17
216,2159,1,-426,-4783,22,-44,-19,17
217,2160,2,-426,-4783,22,-44,-20,17
218,2160,2,-427,-4784,22,-44,-20,17
219,2159,3,-426,-4784,22,-44,-20,17
220,2158,1,-428,-4783,22,-44,-20,17
221,2158,0,-430,-4782,22,-44,-19,17
222,2157,0,-428,-4782,22,-44,-19,17
223,2156,1,-427,-4782,22,-43,-20,17
224,2157,1,-430,-4782,22,-44,-20,17
225,2158,2,-430,-4781,22,-44,-20,17
226,2158,2,-429,-4783,22,-44,-20,17
227,2159,3,-432,-4782,22,-44,-20,17
228,2159,4,-432,-4782,22,-44,-19,17
229,2159,2,-429,-4783,22,-43,-19,17
230,2159,2,-429,-4781,22,-43,-20,17
231,2159,3,-431,-4783,22,-43,-19,17
232,2157,4,-432,-4783,22,-43,-19,17
233,2157,3,-431,-4781,22,-43,-19,17
234,2157,2,-431,-4781,22,-43,-19,17
235,2159,1,-430,-4780,22,-43,-19,17
236,2160,3,-432,-4780,22,-43,-19,17
237,2159,3,-432,-4781,22,-43,-19,16
238,2159,3,-430,-4778,22,-43,-19,17
239,2160,2,-430,-4780,22,-43,-19,17
240,2160,2,-431,-4780,22,-44,-19,17
241,2160,3,-429,-4780,22,-43,-19,17
242,2159,3,-430,-4780,22,-43,-19,17
243,2158,1,-429,-4780,22,-43,-19,17
244,2158,1,-429,-4780,22,-43,-19,17
245,2158,2,-432,-4780,22,-43,-19,17
246,2159,1,-431,-4780,22,-43,-19,17
247,2158,1,-430,-4781,22,-44,-19,17
248,2159,1,-428,-4780,22,-43,-19,17
249,2158,1,-428,-4781,22,-43,-19,17
250,2159,0,-428,-4782,22,-43,-20,17
251,2159,1,-429,-4782,22,-43,-20,17
252,2159,0,-428,-4781,22,-43,-19,17
253,2159,0,-428,-4779,22,-43,-19,17
254,2157,0,-430,-4779,22,-44,-19,17
255,2157,0,-430,-4776,22,-44,-19,17
256,2158,1,-431,-4776,22,-44,-19,17
257,2159,1,-431,-4777,22,-44,-19,17
258,2159,1,-429,-4777,22,-44,-19,17
259,2158,2,-429,-4778,22,-44,-19,17
260,2158,2,-428,-4778,22,-44,-19,17
261,2158,1,-427,-4779,22,-44,-19,17
262,2157,1,-427,-4781,22,-44,-19,17
263,2157,0,-427,-4781,22,-44,-19,17
264,2157,0,-425,-4781,22,-44,-19,17
265,2157,1,-426,-4782,22,-44,-19,17
266,2158,2,-427,-4782,22,-43,-20,17
267,2158,1,-427,-4780,22,-43,-20,17
268,2158,0,-429,-4779,22,-44,-20,17
269,2158,1,-428,-4780,22,-43,-19,17
270,2159,1,-427,-4778,22,-44,-19,17
271,2159,1,-426,-4777,22,-44,-19,17
272,2158,1,-427,-4778,22,-44,-19,17
273,2157,1,-427,-4778,22,-44,-19,17
274,2157,1,-427,-4777,22,-44,-19,17
275,2159,1,-425,-4778,22,-44,-19,17
276,2158,1,-423,-4776,22,-43,-19,17
277,2158,0,-423,-4777,22,-43,-19,17
278,2158,0,-424,-4776,22,-43,-19,17
279,2158,0,-424,-4775,22,-43,-19,17
280,2158,1,-426,-4774,22,-44,-19,17
281,2158,0,-426,-4775,22,-44,-19,17
282,2159,0,-427,-4774,22,-44,-19,17
283,2158,0,-429,-4774,22,-43,-19,17
284,2158,0,-429,-4776,22,-44,-19,17
285,2159,0,-427,-4775,22,-44,-19,17
286,2160,0,-427,-4775,22,-44,-19,17
287,2161,1,-428,-4773,22,-44,-19,17
288,2163,1,-430,-4771,22,-44,-19,17
289,2163,2,-430,-4772,22,-44,-19,17
290,2163,1,-430,-4771,22,-44,-19,17
291,2162,1,-430,-4771,22,-43,-19,17
292,2161,2,-430,-4773,22,-44,-19,17
293,2160,2,-431,-4772,22,-44,-19,17
294,2160,1,-429,-4772,22,-43,-19,17
295,2160,1,-430,-4772,22,-43,-19,17
296,2160,1,-430,-4773,22,-43,-19,17
297,2160,2,-429,-4773,22,-44,-19,17
298,2160,2,-429,-4772,22,-44,-19,17
299,2160,1,-430,-4773,22,-44,-19,17
300,2159,1,-431,-4773,22,-44,-19,17
301,2159,1,-430,-4774,22,-44,-19,17
302,2160,3,-429,-4772,22,-43,-19,17
303,2160,3,-430,-4770,22,-43,-19,17
304,2161,3,-431,-4771,22,-43,-20,17
305,2159,2,-430,-4772,22,-43,-19,17
306,2159,2,-430,-4774,22,-43,-19,17
307,2158,2,-431,-4776,22,-44,-19,17
308,2159,2,-427,-4776,22,-44,-19,17
309,2159,2,-426,-4776,22,-44,-19,17
310,2158,2,-426,-4775,22,-44,-19,17
311,2157,1,-426,-4773,22,-44,-19,17
312,2158,0,-425,-4773,22,-44,-19,17
313,2157,-1,-426,-4774,22,-43,-19,17
314,2157,0,-426,-4775,22,-43,-19,17
315,2158,1,-426,-4776,22,-43,-19,17
316,2158,0,-427,-4773,22,-43,-19,17
317,2157,1,-429,-4773,22,-43,-19,17
318,2158,1,-430,-4775,22,-43,-19,17
319,2158,0,-429,-4774,22,-43,-19,17
320,2157,1,-428,-4775,22,-43,-19,17
321,2157,0,-428,-4775,22,-43,-19,17
322,2158,0,-427,-4776,22,-43,-19,17
323,2158,1,-428,-4774,22,-43,-19,17
324,2158,2,-428,-4772,22,-43,-19,17
325,2158,1,-428,-4772,22,-43,-19,17
326,2158,1,-427,-4772,22,-43,-19,17
327,2158,0,-427,-4772,22,-43,-19,17
328,2158,0,-428,-4772,22,-43,-19,16
329,2158,0,-428,-4772,22,-43,-20,17
330,2158,1,-427,-4772,22,-43,-19,16
331,2160,0,-428,-4773,22,-43,-20,16
332,2160,1,-430,-4773,22,-43,-19,17
333,2160,1,-430,-4772,22,-44,-19,17
334,2160,0,-431,-4769,22,-43,-19,17
335,2160,1,-427,-4770,22,-43,-20,17
336,2160,3,-428,-4770,22,-43,-20,17
337,2159,3,-429,-4771,22,-44,-19,17
338,2158,3,-428,-4772,22,-43,-19,17
339,2158,2,-428,-4770,22,-43,-19,17
340,2158,2,-427,-4769,22,-43,-19,17
341,2158,1,-426,-4769,22,-43,-19,17
342,2159,2,-426,-4770,22,-43,-20,17
343,2159,2,-425,-4768,22,-43,-20,17
344,2161,2,-426,-4768,22,-43,-20,17
345,2159,1,-428,-4767,22,-43,-20,17
346,2159,0,-427,-4767,22,-43,-20,17
347,2159,2,-427,-4768,22,-43,-20,17
348,2159,1,-427,-4768,22,-43,-20,17
349,2160,1,-427,-4769,22,-43,-19,17
350,2161,0,-428,-4767,22,-44,-19,17
351,2161,1,-427,-4767,22,-44,-19,17
352,2161,1,-427,-4767,22,-43,-19,17
353,2161,1,-428,-4767,22,-44,-19,17
354,2162,0,-428,-4766,22,-44,-19,17
355,2161,1,-427,-4768,22,-43,-19,17
356,2160,0,-426,-4767,22,-44,-19,17
357,2161,0,-426,-4766,22,-44,-19,17
358,2160,1,-427,-4766,22,-44,-19,17
359,2159,2,-429,-4765,22,-44,-19,17
360,2158,1,-428,-4765,22,-44,-19,17
361,2159,1,-428,-4765,22,-44,-19,17
362,2159,1,-427,-4766,22,-44,-19,17
363,2159,1,-427,-4765,22,-44,-19,17
364,2159,0,-429,-4767,22,-44,-19,17
365,2158,1,-428,-4767,22,-43,-19,17
366,2159,0,-430,-4766,22,-43,-19,17
367,2158,0,-428,-4767,22,-43,-19,17
368,2159,-1,-429,-4766,22,-43,-19,17
369,2159,0,-429,-4766,22,-44,-19,17
370,2158,0,-429,-4766,22,-43,-19,17
371,2158,-1,-429,-4765,22,-44,-19,17
372,2159,-1,-429,-4767,22,-44,-19,17
373,2159,-1,-428,-4767,22,-44,-19,17
374,2159,-1,-427,-4767,22,-43,-19,17
375,2158,-1,-428,-4767,22,-43,-19,17
376,2158,0,-428,-4766,22,-43,-19,17
377,2159,1,-428,-4767,22,-44,-19,17
378,2158,2,-427,-4767,22,-43,-19,17
379,2158,3,-429,-4766,22,-44,-19,17
380,2157,2,-433,-4766,22,-44,-19,17
381,2157,2,-431,-4766,22,-44,-19,17
382,2159,1,-432,-4767,22,-44,-19,17
383,2159,2,-429,-4768,22,-44,-19,17
384,2158,2,-428,-4768,22,-44,-20,17
385,2158,1,-428,-4769,22,-44,-20,17
386,2158,1,-428,-4769,22,-44,-19,17
387,2157,2,-428,-4769,22,-44,-19,17
388,2159,3,-427,-4767,22,-44,-19,17
389,2158,3,-427,-4769,22,-44,-20,17
390,2158,2,-427,-4769,22,-44,-19,17
391,2158,2,-429,-4769,22,-44,-19,17
392,2158,2,-430,-4768,22,-44,-19,17
393,2158,2,-431,-4767,22,-44,-19,17
394,2158,2,-431,-4766,22,-44,-19,17
395,2158,2,-432,-4765,22,-44,-19,17
396,2158,2,-432,-4767,22,-43,-19,17
397,2159,1,-433,-4769,22,-43,-19,17
398,2158,2,-432,-4768,22,-43,-19,17
399,2158,1,-433,-4767,22,-43,-19,17
400,2159,0,-432,-4766,22,-44,-19,17
401,2159,0,-431,-4766,22,-43,-19,17
402,2159,1,-430,-4769,22,-43,-19,17
403,2158,0,-431,-4768,22,-44,-19,17
404,2158,1,-431,-4769,22,-44,-19,17
405,2159,0,-430,-4770,22,-44,-19,17
406,2157,0,-429,-4770,22,-44,-19,17
407,2157,1,-427,-4770,22,-43,-18,17
408,2157,1,-427,-4770,22,-43,-18,17
409,2157,0,-426,-4771,22,-43,-19,17
410,2158,2,-425,-4768,22,-43,-19,17
411,2157,1,-427,-4769,22,-43,-19,17
412,2158,1,-425,-4769,22,-43,-19,17
413,2157,1,-427,-4766,22,-43,-18,17
414,2158,1,-427,-4765,22,-43,-18,17
415,2158,1,-427,-4762,22,-43,-18,17
416,2159,1,-429,-4762,22,-43,-18,17
417,2159,0,-429,-4762,22,-43,-18,16
418,2160,1,-431,-4764,22,-44,-18,16
419,2159,2,-429,-4764,22,-44,-19,17
420,2159,2,-429,-4765,22,-43,-19,17
421,2158,2,-429,-4766,22,-44,-18,17
422,2157,2,-429,-4766,22,-43,-18,17
423,2157,2,-427,-4766,22,-43,-18,17
424,2155,0,-428,-4765,22,-43,-19,17
425,2156,0,-427,-4766,22,-44,-18,17
426,2157,0,-427,-4766,22,-44,-18,17
427,2157,0,-427,-4768,22,-44,-18,17
428,2157,0,-428,-4767,22,-44,-19,17
429,2158,0,-428,-4767,22,-44,-19,16
430,2157,0,-429,-4767,22,-44,-18,17
431,2156,1,-429,-4768,22,-44,-18,17
432,2155,1,-427,-4766,22,-43,-19,17
433,2156,1,-426,-4764,22,-43,-19,17
434,2156,2,-428,-4764,22,-44,-19,17
435,2157,2,-429,-4763,22,-44,-19,17
436,2157,3,-427,-4763,22,-43,-19,17
437,2157,2,-428,-4764,22,-43,-19,17
438,2156,2,-428,-4763,22,-43,-19,17
439,2157,4,-426,-4763,22,-43,-19,16
440,2157,3,-425,-4763,22,-43,-19,17
441,2156,2,-427,-4763,22,-43,-19,17
442,2156,2,-428,-4762,22,-44,-19,17
443,2158,1,-429,-4762,22,-44,-19,17
444,2159,1,-428,-4759,23,-44,-19,16
445,2159,2,-426,-4758,23,-44,-19,16
446,2158,1,-426,-4758,23,-43,-19,16
447,2158,2,-427,-4759,23,-43,-19,17
448,2157,1,-426,-4759,23,-43,-19,17
449,2158,1,-429,-4760,22,-43,-19,17
450,2158,0,-428,-4762,22,-43,-19,17
451,2159,0,-429,-4762,22,-43,-19,17
452,2159,0,-429,-4761,22,-43,-19,16
453,2158,0,-428,-4760,22,-43,-19,17
454,2158,1,-429,-4760,22,-43,-19,17
455,2157,1,-428,-4758,23,-43,-19,17
456,2157,0,-429,-4759,23,-43,-19,17
457,2157,0,-429,-4760,22,-43,-19,17
458,2157,0,-430,-4759,23,-43,-19,17
459,2156,0,-429,-4761,22,-43,-19,17
460,2157,1,-430,-4760,22,-44,-19,17
461,2158,1,-430,-4759,23,-44,-19,17
462,2157,0,-430,-4760,22,-44,-19,17
463,2157,1,-429,-4761,22,-44,-19,16
464,2158,1,-429,-4762,22,-44,-19,16
465,2158,1,-429,-4762,22,-43,-19,17
466,2158,1,-429,-4762,22,-43,-19,17
467,2158,1,-428,-4762,22,-44,-19,17
468,2158,2,-427,-4760,22,-43,-19,17
469,2159,2,-427,-4759,23,-43,-19,17
470,2157,2,-429,-4761,22,-43,-19,17
471,2156,1,-429,-4763,22,-43,-19,17
472,2155,1,-427,-4761,22,-43,-19,17
473,2157,1,-426,-4761,22,-43,-19,17
474,2158,2,-427,-4761,22,-44,-19,17
475,2158,3,-428,-4761,22,-43,-19,17
476,2159,4,-429,-4762,22,-43,-19,17
477,2160,4,-427,-4761,22,-43,-19,17
478,2159,3,-428,-4762,22,-43,-19,16
479,2160,3,-427,-4763,22,-44,-19,16
480,2160,3,-427,-4762,22,-43,-19,16
481,2160,1,-427,-4762,22,-44,-19,17
482,2160,1,-427,-4762,22,-44,-19,16
483,2160,1,-428,-4763,22,-43,-19,17
484,2159,1,-428,-4763,22,-43,-19,17
485,2158,1,-429,-4762,22,-43,-19,17
486,2158,1,-429,-4762,22,-44,-19,17
487,2159,0,-429,-4759,23,-44,-19,17
488,2159,0,-430,-4759,23,-44,-19,17
489,2158,-1,-429,-4760,22,-44,-19,17
490,2158,0,-428,-4759,23,-44,-19,17
491,2157,1,-428,-4760,22,-44,-19,17
492,2156,1,-429,-4760,22,-44,-19,17
493,2157,0,-429,-4761,22,-44,-19,17
494,2156,1,-431,-4761,22,-43,-19,17
495,2157,1,-428,-4761,22,-43,-19,17
496,2157,0,-428,-4762,22,-43,-19,17
497,2158,1,-428,-4760,22,-44,-19,17
498,2159,1,-427,-4760,22,-43,-19,17
499,2160,1,-428,-4760,22,-44,-19,17
500,2160,1,-430,-4760,22,-43,-19,17
501,2159,1,-428,-4759,23,-44,-19,17
502,2159,0,-429,-4759,23,-43,-19,17
503,2158,1,-429,-4760,22,-43,-19,17
504,2158,2,-431,-4758,23,-43,-19,17
505,2158,2,-431,-4760,22,-44,-19,17
506,2158,1,-429,-4759,23,-43,-19,17
507,2157,2,-428,-4760,22,-43,-19,17
508,2158,1,-426,-4760,22,-43,-19,17
509,2158,2,-427,-4760,22,-44,-19,17
510,2158,3,-430,-4759,23,-44,-19,17
511,2158,4,-429,-4759,23,-44,-19,17
512,2158,3,-430,-4759,23,-43,-19,17
513,2156,2,-430,-4758,23,-44,-19,17
514,2155,1,-430,-4757,23,-44,-19,17
515,2156,0,-430,-4757,23,-44,-19,17
516,2156,0,-430,-4757,23,-44,-19,17
517,2157,1,-429,-4755,23,-44,-20,17
518,2158,-1,-430,-4757,23,-44,-20,17
519,2158,-1,-430,-4755,23,-43,-20,17
520,2158,0,-432,-4755,23,-43,-20,17
521,2158,0,-432,-4755,23,-43,-19,16
522,2158,-1,-433,-4754,23,-44,-19,16
523,2158,0,-432,-4756,23,-44,-19,16
524,2159,1,-432,-4755,23,-44,-20,16
525,2159,0,-431,-4756,23,-44,-19,16
526,2159,1,-431,-4755,23,-43,-19,17
527,2159,2,-430,-4754,23,-44,-19,17
528,2158,2,-429,-4755,23,-44,-19,17
529,2157,1,-430,-4754,23,-44,-19,17
530,2158,1,-428,-4757,23,-44,-19,17
531,2159,1,-429,-4756,23,-44,-19,17
532,2159,1,-430,-4757,23,-44,-19,17
533,2160,1,-429,-4756,23,-44,-19,17
534,2160,1,-428,-4755,23,-44,-19,17
535,2159,2,-428,-4755,23,-44,-19,17
536,2160,2,-428,-4755,23,-44,-19,17
537,2159,1,-428,-4754,23,-44,-19,17
538,2158,2,-427,-4756,23,-44,-19,17
539,2158,2,-428,-4756,23,-43,-19,17
540,2158,1,-427,-4758,23,-43,-19,17
541,2157,1,-427,-4758,23,-43,-19,17
542,2158,2,-427,-4755,23,-43,-19,17
543,2158,3,-428,-4755,23,-44,-19,17
544,2157,3,-429,-4754,23,-44,-19,17
545,2157,2,-430,-4755,23,-44,-19,17
546,2155,2,-430,-4755,23,-44,-19,17
547,2157,3,-431,-4757,23,-44,-19,17
548,2157,2,-430,-4758,23,-44,-20,17
549,2157,3,-431,-4758,23,-43,-20,17
550,2157,3,-429,-4757,23,-44,-20,17
551,2158,2,-429,-4756,23,-43,-20,17
552,2157,2,-431,-4756,23,-43,-19,17
553,2158,1,-431,-4756,23,-44,-20,17
554,2157,1,-431,-4757,23,-44,-19,17
555,2156,1,-431,-4756,23,-44,-19,17
556,2156,0,-431,-4755,23,-44,-19,17
557,2156,0,-430,-4755,23,-43,-19,17
558,2158,-1,-431,-4755,23,-43,-20,17
559,2158,-1,-430,-4757,23,-43,-20,17
560,2158,-1,-429,-4757,23,-43,-20,17
561,2158,-1,-429,-4756,23,-43,-20,17
562,2158,0,-429,-4755,23,-43,-20,17
563,2158,0,-430,-4757,23,-43,-19,17
564,2156,1,-431,-4756,23,-43,-19,17
565,2156,0,-431,-4756,23,-43,-19,17
566,2156,0,-432,-4756,23,-43,-19,17
567,2157,1,-430,-4755,23,-43,-19,17
568,2157,1,-429,-4755,23,-43,-19,17
569,2157,1,-429,-4754,23,-43,-19,17
570,2157,1,-428,-4753,23,-43,-20,17
571,2157,2,-430,-4752,23,-43,-19,17
572,2158,2,-428,-4752,23,-43,-20,17
573,2158,1,-427,-4753,23,-43,-19,17
574,2158,2,-426,-4755,23,-43,-19,17
575,2159,3,-424,-4753,23,-43,-19,17
576,2158,3,-427,-4751,23,-43,-19,17
577,2158,3,-428,-4750,23,-43,-19,17
578,2157,1,-427,-4750,23,-43,-19,17
579,2158,1,-427,-4751,23,-43,-19,17
580,2158,0,-428,-4752,23,-43,-19,17
581,2157,1,-427,-4749,23,-43,-19,17
582,2157,1,-428,-4750,23,-44,-19,17
583,2157,0,-428,-4751,23,-43,-19,17
584,2158,0,-426,-4752,23,-44,-19,17
585,2159,-1,-426,-4752,23,-44,-19,17
586,2158,1,-424,-4756,23,-44,-19,17
587,2158,1,-424,-4754,23,-43,-19,17
588,2158,1,-426,-4755,23,-44,-19,17
589,2157,0,-426,-4755,23,-44,-19,17
590,2157,0,-426,-4753,23,-44,-19,17
591,2158,1,-428,-4753,23,-43,-19,17
592,2159,2,-429,-4754,23,-44,-19,17
593,2157,2,-429,-4756,23,-44,-19,17
594,2157,0,-429,-4755,23,-44,-19,17
595,2158,1,-429,-4755,23,-44,-19,17
596,2158,1,-428,-4754,23,-44,-19,17
597,2157,1,-430,-4752,23,-44,-18,17
598,2156,2,-431,-4752,23,-44,-19,17
599,2157,2,-431,-4752,23,-43,-19,17
600,2157,1,-431,-4752,23,-43,-19,17
601,2157,1,-431,-4754,23,-43,-19,17
602,2157,2,-430,-4753,23,-43,-19,17
603,2156,1,-428,-4753,23,-44,-19,17
604,2157,1,-429,-4755,23,-44,-19,17
605,2156,0,-429,-4754,23,-44,-19,17
606,2156,0,-429,-4755,23,-44,-19,17
607,2157,0,-427,-4754,23,-43,-19,17
608,2158,1,-426,-4753,23,-44,-19,17
609,2160,3,-428,-4753,23,-43,-19,17
610,2160,3,-428,-4753,23,-44,-19,16
611,2161,4,-428,-4750,23,-44,-19,17
612,2162,2,-428,-4750,23,-43,-19,17
613,2161,3,-429,-4750,23,-43,-19,17
614,2160,3,-428,-4751,23,-43,-19,17
615,2160,2,-427,-4752,23,-43,-19,17
616,2159,2,-426,-4752,23,-43,-19,17
617,2159,3,-428,-4752,23,-43,-19,17
618,2159,2,-428,-4752,23,-44,-19,17
619,2160,2,-430,-4752,23,-43,-19,17
620,2160,2,-428,-4752,23,-44,-20,17
621,2159,3,-428,-4751,23,-44,-20,17
622,2158,2,-426,-4751,23,-44,-19,17
623,2158,2,-426,-4752,23,-44,-19,17
624,2159,2,-428,-4753,23,-44,-19,17
625,2159,2,-430,-4754,23,-44,-19,17
626,2159,3,-429,-4753,23,-44,-19,17
627,2158,4,-428,-4753,23,-43,-19,17
628,2159,3,-430,-4752,23,-43,-19,17
629,2158,2,-429,-4752,23,-43,-19,17
630,2159,2,-429,-4751,23,-44,-19,17
631,2159,2,-430,-4752,23,-44,-19,17
632,2158,4,-429,-4752,23,-44,-19,17
633,2158,4,-430,-4753,23,-44,-19,17
634,2158,5,-430,-4752,23,-43,-19,17
635,2158,4,-429,-4752,23,-43,-19,17
636,2157,3,-428,-4751,23,-43,-19,17
637,2158,2,-427,-4751,23,-43,-19,17
638,2158,2,-426,-4751,23,-43,-19,17
639,2158,2,-427,-4751,23,-44,-19,17
640,2159,2,-428,-4750,23,-43,-19,17
641,2158,2,-427,-4750,23,-43,-19,17
642,2159,2,-429,-4751,23,-43,-19,17
643,2159,3,-428,-4751,23,-43,-18,16
644,2159,2,-429,-4752,23,-43,-18,16
645,2159,2,-429,-4750,23,-43,-19,16
646,2158,2,-430,-4749,23,-43,-19,17
647,2158,2,-431,-4750,23,-44,-19,17
648,2159,1,-431,-4750,23,-43,-19,16
649,2159,0,-429,-4750,23,-43,-19,17
650,2160,1,-430,-4750,23,-43,-19,17
651,2160,1,-430,-4751,23,-43,-19,17
652,2160,1,-431,-4750,23,-43,-19,17
653,2160,0,-431,-4750,23,-43,-19,17
654,2160,1,-429,-4750,23,-43,-19,17
655,2160,1,-430,-4749,23,-43,-19,17
656,2159,1,-431,-4749,23,-43,-19,17
657,2160,0,-432,-4748,23,-43,-19,17
658,2160,1,-430,-4748,23,-43,-19,17
659,2160,2,-431,-4749,23,-43,-19,17
660,2160,2,-430,-4749,23,-43,-19,16
661,2160,4,-428,-4749,23,-44,-19,17
662,2160,3,-429,-4751,23,-44,-20,17
663,2160,3,-429,-4750,23,-44,-19,17
664,2160,2,-429,-4748,23,-44,-19,17
665,2160,2,-430,-4751,23,-44,-19,16
666,2161,2,-429,-4751,23,-44,-19,17
667,2161,3,-430,-4751,23,-44,-19,17
668,2161,3,-429,-4750,23,-44,-19,17
669,2159,2,-429,-4749,23,-43,-19,16
670,2159,2,-429,-4749,23,-43,-19,16
671,2158,2,-430,-4750,23,-43,-19,16
672,2157,0,-431,-4750,23,-43,-19,16
673,2156,1,-431,-4750,23,-43,-19,17
674,2157,-1,-429,-4749,23,-43,-19,17
675,2156,-1,-429,-4749,23,-43,-19,17
676,2157,0,-428,-4748,23,-43,-19,17
677,2157,-1,-427,-4748,23,-44,-19,17
678,2157,-1,-428,-4748,23,-44,-19,17
679,2158,-1,-428,-4747,23,-44,-19,17
680,2158,0,-429,-4748,23,-43,-19,17
681,2157,0,-428,-4748,23,-43,-19,17
682,2157,1,-426,-4748,23,-44,-19,17
683,2158,0,-428,-4749,23,-43,-19,17
684,2158,1,-427,-4748,23,-43,-19,17
685,2157,0,-427,-4749,23,-43,-19,17
686,2158,0,-428,-4749,23,-43,-19,17
687,2158,0,-429,-4748,23,-43,-19,17
688,2159,1,-429,-4748,23,-43,-19,17
689,2159,0,-429,-4748,23,-43,-19,17
690,2159,0,-430,-4747,23,-43,-20,17
691,2157,-1,-429,-4746,23,-43,-20,17
692,2156,-1,-428,-4746,23,-43,-20,17
693,2157,-1,-428,-4745,23,-43,-19,17
694,2157,0,-426,-4746,23,-43,-20,17
695,2158,0,-427,-4747,23,-43,-20,17
696,2157,0,-426,-4747,23,-44,-19,17
697,2158,1,-427,-4747,23,-43,-19,17
698,2159,1,-427,-4747,23,-43,-19,17
699,2158,0,-427,-4747,23,-43,-20,16
700,2160,0,-426,-4748,23,-43,-19,16
701,2159,1,-425,-4748,23,-43,-19,17
702,2159,1,-426,-4748,23,-43,-19,17
703,2159,1,-427,-4748,23,-43,-19,17
704,2159,2,-428,-4747,23,-43,-19,17
705,2158,1,-429,-4748,23,-43,-19,17
706,2157,1,-428,-4747,23,-43,-19,17
707,2158,0,-426,-4746,23,-43,-19,17
708,2159,0,-427,-4746,23,-43,-19,17
709,2161,-1,-427,-4747,23,-43,-19,17
710,2161,1,-429,-4748,23,-44,-19,17
711,2159,0,-430,-4748,23,-43,-19,17
712,2160,0,-430,-4748,23,-43,-19,17
713,2160,1,-430,-4747,23,-43,-19,17
714,2160,1,-428,-4748,23,-43,-19,17
715,2159,1,-427,-4747,23,-43,-19,17
716,2159,1,-426,-4747,23,-43,-19,17
717,2158,2,-425,-4748,23,-43,-19,17
718,2159,3,-426,-4747,23,-43,-19,17
719,2159,2,-427,-4747,23,-43,-19,17
720,2159,2,-429,-4747,23,-43,-19,17
721,2159,1,-431,-4749,23,-43,-20,17
722,2158,1,-429,-4747,23,-44,-20,17
723,2158,1,-427,-4748,23,-44,-19,17
724,2159,1,-427,-4747,23,-44,-19,17
725,2159,1,-428,-4747,23,-44,-19,17
726,2159,2,-429,-4748,23,-44,-19,16
727,2159,2,-429,-4747,23,-43,-19,17
728,2159,2,-429,-4746,23,-43,-19,17
729,2158,3,-429,-4747,23,-44,-20,17
730,2158,3,-430,-4748,23,-44,-20,17
731,2158,2,-430,-4748,23,-43,-19,17
732,2158,2,-430,-4749,23,-43,-19,17
733,2158,1,-430,-4748,23,-43,-19,17
734,2159,1,-429,-4748,23,-43,-19,17
735,2160,1,-429,-4749,23,-43,-19,17
736,2160,2,-430,-4749,23,-43,-19,17
737,2159,2,-431,-4747,23,-43,-19,17
738,2159,1,-429,-4746,23,-43,-20,17
739,2159,2,-430,-4747,23,-43,-20,17
740,2158,2,-430,-4745,23,-43,-19,17
741,2158,2,-429,-4745,23,-43,-20,17
742,2160,3,-429,-4746,23,-43,-20,17
743,2159,3,-430,-4745,23,-43,-20,17
744,2160,2,-430,-4745,23,-43,-19,17
745,2159,2,-431,-4745,23,-44,-19,17
746,2159,1,-431,-4744,23,-43,-19,17
747,2159,1,-431,-4745,23,-43,-20,17
748,2159,0,-430,-4746,23,-43,-20,17
749,2159,0,-429,-4747,23,-43,-19,17
750,2159,0,-429,-4749,23,-43,-20,16
751,2160,0,-428,-4749,23,-44,-19,17
752,2159,1,-426,-4748,23,-43,-19,17
753,2158,2,-427,-4749,23,-43,-19,17
754,2159,3,-427,-4749,23,-43,-19,17
755,2159,2,-426,-4747,23,-43,-19,17
756,2158,2,-428,-4747,23,-43,-19,17
757,2159,2,-429,-4746,23,-43,-19,17
758,2159,2,-431,-4747,23,-43,-19,17
759,2160,2,-429,-4746,23,-43,-19,17
760,2160,2,-430,-4747,23,-43,-19,17
761,2158,1,-431,-4745,23,-43,-19,17
762,2157,1,-430,-4746,23,-43,-19,17
763,2157,1,-429,-4746,23,-43,-19,17
764,2155,0,-428,-4748,23,-43,-19,16
765,2155,-1,-428,-4746,23,-43,-19,17
766,2155,-1,-430,-4745,23,-43,-19,17
767,2156,2,-431,-4745,23,-43,-19,16
768,2156,2,-430,-4746,23,-43,-19,16
769,2156,1,-430,-4747,23,-43,-19,16
770,2156,0,-430,-4748,23,-43,-19,16
771,2155,1,-430,-4746,23,-43,-19,17
772,2157,1,-429,-4748,23,-43,-19,17
773,2159,1,-430,-4747,23,-43,-20,17
774,2159,0,-430,-4746,23,-43,-19,17
775,2160,0,-429,-4746,23,-43,-20,17
776,2159,1,-427,-4744,23,-43,-19,17
777,2157,-1,-427,-4743,23,-43,-19,17
778,2157,-1,-428,-4743,23,-43,-19,17
779,2157,-1,-429,-4743,23,-43,-19,17
780,2157,-1,-429,-4744,23,-43,-19,17
781,2158,1,-428,-4746,23,-43,-19,17
782,2159,1,-428,-4744,23,-43,-19,17
783,2158,0,-426,-4745,23,-43,-19,17
784,2158,0,-426,-4744,23,-43,-19,17
785,2158,-1,-427,-4744,23,-43,-19,17
786,2158,-1,-426,-4743,23,-43,-19,17
787,2157,0,-428,-4743,23,-43,-19,17
788,2158,-3,-430,-4746,23,-44,-19,17
789,2159,0,-429,-4746,23,-44,-19,17
790,2158,1,-429,-4746,23,-44,-19,17
791,2158,1,-429,-4745,23,-43,-19,17
792,2158,2,-429,-4747,23,-43,-19,17
793,2158,2,-429,-4746,23,-43,-19,17
794,2158,2,-429,-4748,23,-43,-19,17
795,2157,2,-430,-4747,23,-44,-19,17
796,2157,1,-430,-4746,23,-44,-19,16
797,2158,1,-430,-4745,23,-44,-19,17
798,2157,1,-430,-4744,23,-44,-19,17
799,2157,2,-430,-4744,23,-44,-20,17
800,2158,3,-432,-4744,23,-44,-19,17
801,2157,2,-432,-4746,23,-44,-19,17
802,2158,3,-431,-4745,23,-43,-20,17
803,2159,2,-430,-4743,23,-43,-19,17
804,2159,2,-430,-4743,23,-44,-19,17
805,2160,1,-430,-4742,23,-43,-19,17
806,2160,2,-430,-4744,23,-43,-19,17
807,2160,1,-430,-4742,23,-43,-19,17
808,2158,1,-427,-4742,23,-43,-19,17
809,2157,0,-427,-4743,23,-43,-20,17
810,2158,1,-427,-4743,23,-44,-19,17
811,2159,1,-427,-4743,23,-44,-19,17
812,2159,1,-428,-4743,23,-44,-19,17
813,2159,1,-427,-4741,23,-43,-19,17
814,2158,1,-427,-4742,23,-43,-19,16
815,2158,2,-427,-4742,23,-43,-19,17
816,2159,3,-426,-4742,23,-44,-20,16
817,2159,2,-427,-4742,23,-43,-20,17
818,2158,0,-427,-4744,23,-44,-20,17
819,2158,-1,-428,-4743,23,-43,-19,17
820,2158,0,-427,-4743,23,-43,-20,17
821,2160,1,-426,-4743,23,-43,-19,17
822,2159,2,-425,-4742,23,-44,-19,17
823,2159,2,-425,-4743,23,-43,-19,17
824,2158,2,-424,-4744,23,-43,-19,17
825,2157,2,-425,-4744,23,-43,-19,17
826,2158,1,-427,-4745,23,-43,-19,17
827,2158,2,-428,-4742,23,-43,-19,17
828,2159,2,-429,-4743,23,-43,-19,17
829,2159,0,-429,-4743,23,-43,-19,17
830,2160,-1,-427,-4744,23,-44,-19,17
831,2159,-1,-428,-4744,23,-44,-19,17
832,2158,1,-428,-4744,23,-44,-19,17
833,2158,2,-428,-4743,23,-44,-19,17
834,2158,2,-428,-4744,23,-44,-19,17
835,2159,1,-428,-4743,23,-44,-19,17
836,2159,0,-428,-4743,23,-44,-19,17
837,2159,1,-427,-4743,23,-44,-19,17
838,2158,1,-428,-4744,23,-43,-19,17
839,2159,1,-430,-4743,23,-44,-19,17
840,2158,1,-429,-4740,23,-44,-19,17
841,2159,1,-428,-4741,23,-44,-19,17
842,2158,1,-428,-4742,23,-43,-19,17
843,2159,0,-428,-4742,23,-43,-19,17
844,2159,1,-428,-4742,23,-43,-19,17
845,2160,0,-427,-4741,23,-43,-19,17
846,2160,0,-428,-4743,23,-43,-19,17
847,2160,1,-429,-4745,23,-43,-19,18
848,2160,1,-428,-4743,23,-43,-19,17
849,2160,1,-428,-4742,23,-43,-19,17
850,2160,1,-429,-4742,23,-43,-19,18
851,2160,1,-430,-4742,23,-43,-19,17
852,2160,1,-430,-4741,23,-44,-20,17
853,2160,2,-429,-4741,23,-44,-20,17
854,2160,1,-428,-4741,23,-44,-20,17
855,2159,1,-427,-4742,23,-44,-20,17
856,2158,2,-428,-4742,23,-44,-20,17
857,2158,0,-428,-4743,23,-44,-20,17
858,2157,0,-429,-4744,23,-43,-20,17
859,2158,0,-428,-4744,23,-44,-20,17
860,2158,-1,-429,-4746,23,-44,-19,17
861,2158,-1,-429,-4745,23,-43,-19,17
862,2159,-1,-428,-4745,23,-44,-19,17
863,2159,-2,-428,-4745,23,-43,-19,17
864,2158,-1,-427,-4742,23,-43,-19,17
865,2159,-1,-428,-4743,23,-43,-19,17
866,2159,0,-427,-4742,23,-44,-19,17
867,2160,0,-427,-4744,23,-43,-19,17
868,2160,2,-427,-4744,23,-43,-19,17
869,2160,2,-428,-4742,23,-43,-19,17
870,2160,2,-429,-4741,23,-44,-19,17
871,2160,2,-426,-4742,23,-44,-20,17
872,2159,3,-427,-4742,23,-43,-20,17
873,2159,2,-428,-4742,23,-43,-20,17
874,2158,3,-428,-4740,23,-43,-20,17
875,2159,3,-428,-4741,23,-43,-19,17
876,2159,3,-428,-4740,23,-43,-20,17
877,2159,2,-429,-4741,23,-44,-19,17
878,2157,1,-428,-4743,23,-43,-19,17
879,2158,1,-427,-4744,23,-44,-19,17
880,2159,0,-428,-4744,23,-44,-19,17
881,2158,0,-428,-4743,23,-43,-19,17
882,2158,1,-427,-4744,23,-43,-19,17
883,2158,1,-428,-4744,23,-43,-19,16
884,2159,1,-428,-4743,23,-44,-19,17
885,2159,1,-428,-4741,23,-43,-19,17
886,2159,0,-428,-4742,23,-44,-19,17
887,2158,1,-428,-4744,23,-44,-19,17
888,2160,3,-429,-4743,23,-43,-20,17
889,2159,3,-430,-4741,23,-43,-20,17
890,2158,2,-430,-4741,23,-43,-20,17
891,2159,2,-429,-4741,23,-43,-19,17
892,2159,3,-430,-4741,23,-43,-19,17
893,2159,1,-429,-4740,23,-43,-19,17
894,2160,1,-429,-4740,23,-43,-19,17
895,2159,1,-427,-4739,23,-43,-19,17
896,2159,0,-426,-4739,23,-43,-19,17
897,2159,0,-426,-4740,23,-43,-20,17
898,2158,0,-426,-4738,23,-43,-20,17
899,2159,0,-427,-4740,23,-43,-20,17
900,2159,0,-427,-4741,23,-43,-20,17
901,2158,0,-426,-4742,23,-43,-20,17
902,2158,0,-427,-4742,23,-43,-20,17
903,2158,0,-428,-4742,23,-43,-19,17
904,2157,0,-429,-4744,23,-43,-19,17
905,2158,0,-430,-4744,23,-44,-19,17
906,2158,1,-431,-4742,23,-43,-20,17
907,2159,0,-430,-4743,23,-43,-20,17
908,2159,-1,-429,-4741,23,-43,-20,17
909,2159,-1,-429,-4741,23,-43,-19,17
910,2158,-2,-428,-4739,23,-43,-19,16
911,2158,-1,-428,-4741,23,-44,-19,16
912,2158,0,-428,-4742,23,-43,-19,16
913,2158,0,-430,-4744,23,-44,-19,17
914,2158,0,-432,-4742,23,-43,-19,17
915,2159,0,-431,-4742,23,-44,-19,17
916,2159,1,-430,-4743,23,-43,-19,17
917,2158,0,-431,-4743,23,-43,-19,17
918,2158,1,-430,-4742,23,-44,-19,17
919,2157,1,-431,-4741,23,-44,-19,17
920,2157,0,-432,-4740,23,-44,-19,16
921,2158,1,-431,-4740,23,-43,-19,16
922,2158,3,-430,-4741,23,-44,-19,16
923,2157,2,-429,-4742,23,-43,-19,17
924,2157,1,-429,-4742,23,-43,-19,17
925,2158,1,-429,-4743,23,-44,-19,17
926,2158,1,-429,-4742,23,-43,-19,16
927,2158,1,-430,-4741,23,-43,-19,17
928,2159,2,-431,-4741,23,-44,-19,16
929,2159,1,-431,-4742,23,-43,-19,17
930,2158,2,-430,-4743,23,-43,-19,16
931,2158,1,-429,-4743,23,-43,-19,16
932,2158,2,-427,-4744,23,-43,-19,17
933,2158,1,-428,-4744,23,-44,-19,17
934,2159,0,-428,-4743,23,-43,-19,17
935,2160,2,-430,-4746,23,-43,-20,17
936,2159,1,-428,-4743,23,-43,-19,17
937,2158,0,-428,-4743,23,-43,-19,17
938,2158,1,-427,-4746,23,-43,-19,17
939,2157,1,-428,-4745,23,-44,-19,17
940,2156,1,-429,-4746,23,-43,-19,17
941,2158,2,-429,-4746,23,-43,-19,17
942,2159,3,-429,-4744,23,-43,-20,17
943,2159,3,-430,-4744,23,-43,-20,17
944,2160,2,-430,-4744,23,-43,-20,17
945,2159,3,-428,-4744,23,-43,-19,17
946,2160,3,-429,-4742,23,-43,-19,17
947,2159,3,-430,-4743,23,-43,-19,17
948,2159,2,-430,-4741,23,-43,-19,17
949,2158,0,-431,-4741,23,-43,-19,17
950,2158,0,-430,-4741,23,-43,-19,17
951,2158,0,-429,-4741,23,-43,-19,17
952,2158,0,-430,-4741,23,-43,-19,17
953,2157,1,-429,-4740,23,-43,-19,17
954,2157,1,-428,-4740,23,-43,-19,17
955,2157,1,-427,-4741,23,-43,-19,16
956,2158,2,-427,-4742,23,-43,-19,17
957,2159,1,-426,-4742,23,-43,-19,17
958,2158,1,-426,-4742,23,-44,-19,16
959,2158,2,-426,-4742,23,-44,-19,16
960,2159,3,-428,-4741,23,-44,-19,17
961,2159,2,-427,-4743,23,-44,-19,17
962,2160,3,-427,-4741,23,-44,-20,17
963,2160,2,-428,-4744,23,-43,-19,17
964,2160,2,-429,-4743,23,-43,-19,17
965,2159,2,-428,-4742,23,-43,-19,17
966,2158,2,-428,-4742,23,-43,-19,17
967,2159,2,-428,-4742,23,-43,-19,17
968,2158,2,-430,-4742,23,-44,-19,17
969,2159,2,-430,-4742,23,-43,-19,17
970,2158,1,-430,-4743,23,-44,-19,17
971,2158,2,-429,-4743,23,-44,-19,17
972,2157,2,-428,-4742,23,-44,-19,17
973,2159,1,-427,-4742,23,-44,-19,17
974,2158,1,-427,-4741,23,-44,-19,17
975,2160,1,-428,-4741,23,-43,-19,17
976,2159,0,-426,-4740,23,-43,-19,17
977,2158,0,-426,-4740,23,-43,-19,17
978,2158,0,-426,-4742,23,-44,-19,17
979,2160,1,-426,-4742,23,-44,-19,17
980,2159,1,-427,-4742,23,-44,-19,17
981,2159,0,-429,-4740,23,-44,-19,17
982,2159,1,-429,-4739,23,-44,-19,17
983,2159,0,-428,-4740,23,-44,-19,17
984,2160,0,-427,-4739,23,-44,-19,17
985,2160,0,-428,-4739,23,-43,-19,16
986,2159,1,-428,-4739,23,-44,-19,17
987,2159,1,-427,-4740,23,-44,-19,17
988,2159,-1,-426,-4741,23,-43,-19,17
989,2158,0,-423,-4741,23,-44,-19,17
990,2158,0,-425,-4740,23,-44,-19,17
991,2158,-1,-427,-4742,23,-44,-19,17
992,2157,0,-427,-4742,23,-44,-19,17
993,2158,0,-427,-4741,23,-44,-19,17
994,2159,0,-426,-4742,23,-44,-19,17
995,2160,-1,-427,-4740,23,-44,-19,17
