,acc_X,acc_Y,acc_Z,temp,tempC,gyr_X,gyr_Y,gyr_Z
0,8621,41,-1653,-4698,23,-169,-72,71
1,8659,9,-1645,-4704,23,-174,-74,72
2,8617,-15,-1713,-4707,23,-172,-72,69
3,8698,13,-1739,-4708,23,-178,-80,71
4,8654,7,-1696,-4714,23,-176,-77,68
5,8647,29,-1694,-4697,23,-176,-76,71
6,8631,13,-1691,-4702,23,-180,-79,65
7,8642,-3,-1679,-4719,23,-171,-77,67
8,8661,-5,-1725,-4713,23,-171,-68,79
9,8589,-36,-1762,-4697,23,-174,-76,68
10,8637,23,-1700,-4712,23,-173,-77,66
11,8643,9,-1682,-4709,23,-169,-73,61
12,8660,-24,-1740,-4708,23,-167,-80,79
13,8639,13,-1679,-4714,23,-170,-68,67
14,8690,32,-1629,-4703,23,-167,-80,76
15,8628,5,-1695,-4696,23,-177,-78,72
16,8624,48,-1702,-4709,23,-185,-70,68
17,8628,3,-1671,-4699,23,-183,-83,70
18,8617,-25,-1704,-4704,23,-183,-78,77
19,8664,-6,-1647,-4704,23,-182,-73,68
20,8688,9,-1716,-4703,23,-169,-73,60
21,8660,8,-1710,-4702,23,-168,-79,61
22,8609,2,-1770,-4699,23,-176,-86,71
23,8645,14,-1676,-4702,23,-177,-79,67
24,8659,-6,-1711,-4717,23,-174,-80,67
25,8668,8,-1681,-4709,23,-174,-64,71
26,8693,30,-1701,-4700,23,-175,-76,72
27,8612,-1,-1756,-4704,23,-177,-85,70
28,8643,-25,-1744,-4690,23,-174,-75,79
29,8641,34,-1695,-4710,23,-178,-69,68
30,8655,21,-1686,-4695,23,-169,-76,70
31,8593,-55,-1687,-4702,23,-167,-64,74
32,8679,11,-1689,-4685,23,-170,-79,68
33,8625,16,-1674,-4706,23,-168,-81,66
34,8581,0,-1662,-4690,23,-176,-72,70
35,8631,14,-1732,-4697,23,-177,-75,66
36,8598,-41,-1683,-4697,23,-173,-74,70
37,8616,-19,-1714,-4705,23,-167,-85,70
38,8623,44,-1655,-4714,23,-166,-76,65
39,8649,2,-1692,-4696,23,-179,-73,66
40,8635,-5,-1708,-4704,23,-174,-75,65
41,8630,16,-1747,-4716,23,-175,-81,77
42,8661,35,-1698,-4706,23,-182,-77,63
43,8630,-4,-1718,-4704,23,-180,-66,70
44,8617,-9,-1671,-4696,23,-173,-70,70
45,8623,33,-1639,-4705,23,-167,-83,64
46,8623,35,-1693,-4694,23,-176,-68,68
47,8621,1,-1677,-4706,23,-178,-82,77
48,8636,46,-1708,-4707,23,-171,-76,74
49,8626,-5,-1748,-4704,23,-177,-74,75
50,8652,-13,-1659,-4695,23,-174,-71,65
51,8679,6,-1730,-4699,23,-171,-74,74
52,8644,21,-1620,-4712,23,-175,-85,64
53,8644,50,-1726,-4701,23,-168,-85,74
54,8638,17,-1730,-4704,23,-167,-66,66
55,8612,-25,-1751,-4690,23,-173,-69,72
56,8659,-11,-1720,-4710,23,-164,-75,67
57,8606,-15,-1741,-4692,23,-162,-72,66
58,8653,11,-1691,-4699,23,-171,-68,69
59,8633,53,-1704,-4698,23,-180,-71,71
60,8629,19,-1745,-4705,23,-174,-79,68
61,8647,15,-1637,-4706,23,-177,-84,72
62,8646,27,-1658,-4700,23,-175,-85,67
63,8667,30,-1659,-4696,23,-169,-77,73
64,8610,7,-1682,-4701,23,-172,-78,60
65,8622,5,-1736,-4700,23,-177,-73,73
66,8671,27,-1699,-4708,23,-176,-76,66
67,8597,-11,-1722,-4696,23,-181,-75,76
68,8624,-72,-1696,-4704,23,-171,-74,73
69,8627,29,-1667,-4691,23,-172,-76,70
70,8653,10,-1693,-4698,23,-169,-83,73
71,8651,-13,-1710,-4707,23,-176,-78,65
72,8666,-33,-1721,-4700,23,-166,-80,63
73,8615,-17,-1747,-4711,23,-167,-81,71
74,8627,5,-1691,-4702,23,-172,-78,69
75,8645,44,-1748,-4718,23,-170,-80,76
76,8620,12,-1741,-4705,23,-172,-73,69
77,8668,-2,-1723,-4690,23,-178,-78,66
78,8626,-26,-1670,-4699,23,-180,-83,70
79,8648,22,-1691,-4690,23,-168,-80,70
80,8640,17,-1714,-4698,23,-183,-79,61
81,8625,26,-1624,-4701,23,-174,-76,69
82,8620,11,-1639,-4708,23,-174,-73,68
83,8637,-7,-1741,-4701,23,-172,-73,68
84,8640,43,-1667,-4702,23,-170,-66,70
85,8631,2,-1725,-4714,23,-175,-63,69
86,8645,1,-1739,-4711,23,-170,-81,61
87,8639,8,-1736,-4710,23,-165,-71,64
88,8660,-6,-1633,-4718,23,-174,-81,70
89,8646,3,-1664,-4707,23,-172,-79,68
90,8647,7,-1745,-4707,23,-163,-77,62
91,8619,9,-1718,-4694,23,-175,-70,76
92,8655,25,-1719,-4687,23,-181,-81,67
93,8628,2,-1655,-4711,23,-168,-75,73
94,8604,-16,-1693,-4700,23,-173,-70,66
95,8658,32,-1676,-4687,23,-168,-72,69
96,8599,12,-1667,-4685,23,-169,-74,69
97,8650,25,-1705,-4706,23,-169,-64,71
98,8629,42,-1709,-4691,23,-172,-81,70
99,8606,38,-1709,-4711,23,-169,-76,71
100,8664,-37,-1754,-4693,23,-171,-78,72
101,8602,-7,-1688,-4701,23,-169,-68,63
102,8637,8,-1666,-4698,23,-181,-77,67
103,8644,18,-1708,-4681,23,-164,-73,64
104,8660,0,-1690,-4693,23,-170,-77,69
105,8603,-1,-1736,-4711,23,-169,-69,76
106,8630,11,-1689,-4703,23,-173,-72,73
107,8656,30,-1664,-4689,23,-179,-71,74
108,8616,2,-1691,-4699,23,-174,-81,69
109,8610,0,-1639,-4688,23,-174,-76,63
110,8630,17,-1640,-4707,23,-176,-77,68
111,8635,13,-1689,-4702,23,-173,-75,64
112,8639,7,-1687,-4708,23,-172,-69,65
113,8626,-17,-1645,-4687,23,-169,-77,66
114,8644,3,-1683,-4691,23,-167,-84,75
115,8628,37,-1680,-4703,23,-175,-78,68
116,8647,34,-1758,-4702,23,-173,-77,69
117,8657,-8,-1680,-4700,23,-169,-77,63
118,8656,7,-1703,-4709,23,-177,-76,65
119,8640,-27,-1656,-4703,23,-177,-76,70
120,8626,2,-1707,-4704,23,-165,-82,70
121,8671,43,-1708,-4703,23,-164,-66,71
122,8650,14,-1653,-4704,23,-175,-74,71
123,8628,-25,-1726,-4706,23,-174,-79,65
124,8628,-17,-1722,-4696,23,-167,-72,73
125,8628,-45,-1630,-4698,23,-176,-78,67
126,8586,21,-1712,-4697,23,-178,-72,68
127,8604,22,-1718,-4711,23,-167,-90,75
128,8657,2,-1706,-4698,23,-176,-73,64
129,8641,-17,-1770,-4693,23,-175,-62,67
130,8625,15,-1743,-4685,23,-169,-75,74
131,8654,4,-1708,-4699,23,-171,-64,74
132,8607,21,-1697,-4696,23,-168,-76,63
133,8642,45,-1747,-4696,23,-163,-76,70
134,8639,-7,-1689,-4696,23,-171,-72,72
135,8633,-3,-1666,-4698,23,-172,-69,68
136,8638,6,-1706,-4698,23,-172,-66,57
137,8659,7,-1719,-4701,23,-172,-76,68
138,8645,36,-1727,-4711,23,-181,-78,76
139,8656,-28,-1594,-4713,23,-168,-72,72
140,8599,28,-1682,-4709,23,-177,-76,69
141,8651,-19,-1667,-4696,23,-169,-77,64
142,8685,-18,-1674,-4695,23,-180,-80,68
143,8629,3,-1688,-4691,23,-174,-72,67
144,8619,-7,-1721,-4705,23,-168,-68,64
145,8628,1,-1725,-4695,23,-172,-70,71
146,8685,3,-1747,-4702,23,-174,-71,71
147,8654,3,-1698,-4689,23,-184,-71,73
148,8639,15,-1685,-4704,23,-169,-73,73
149,8640,33,-1710,-4691,23,-177,-89,64
150,8668,-22,-1674,-4703,23,-167,-73,73
151,8605,13,-1748,-4714,23,-172,-79,71
152,8671,17,-1676,-4697,23,-172,-73,69
153,8630,-8,-1703,-4690,23,-179,-80,71
154,8639,32,-1723,-4698,23,-176,-73,67
155,8655,-32,-1660,-4708,23,-173,-76,70
156,8638,25,-1672,-4713,23,-170,-77,80
157,8647,-27,-1659,-4698,23,-161,-81,72
158,8676,22,-1707,-4686,23,-171,-79,75
159,8606,24,-1701,-4706,23,-176,-71,74
160,8622,15,-1717,-4697,23,-164,-72,67
161,8616,25,-1673,-4707,23,-173,-77,69
162,8626,-5,-1716,-4699,23,-167,-70,66
163,8631,35,-1717,-4700,23,-168,-72,71
164,8667,-3,-1751,-4698,23,-181,-79,72
165,8614,5,-1692,-4702,23,-177,-74,67
166,8626,40,-1696,-4710,23,-164,-83,75
167,8675,-18,-1660,-4679,23,-167,-77,71
168,8660,-20,-1668,-4696,23,-172,-83,74
169,8627,33,-1650,-4697,23,-171,-74,68
170,8668,2,-1648,-4696,23,-170,-78,65
171,8641,-34,-1718,-4700,23,-181,-65,69
172,8662,17,-1682,-4686,23,-167,-71,72
173,8638,-62,-1704,-4698,23,-173,-78,69
174,8623,-21,-1699,-4696,23,-185,-76,63
175,8629,-12,-1696,-4693,23,-178,-72,65
176,8635,25,-1699,-4703,23,-177,-81,68
177,8645,5,-1743,-4683,23,-166,-74,70
178,8650,10,-1722,-4698,23,-174,-76,69
179,8651,-12,-1716,-4702,23,-173,-71,72
180,8614,28,-1693,-4710,23,-163,-67,70
181,8626,1,-1662,-4700,23,-178,-63,75
182,8628,15,-1714,-4709,23,-170,-71,69
183,8630,10,-1682,-4703,23,-171,-73,64
184,8661,4,-1680,-4715,23,-168,-77,61
185,8661,-1,-1751,-4700,23,-182,-71,68
186,8609,-43,-1685,-4717,23,-173,-76,72
187,8631,1,-1753,-4693,23,-174,-86,76
188,8643,-40,-1729,-4701,23,-169,-73,59
189,8624,3,-1801,-4698,23,-178,-74,79
190,8666,26,-1698,-4714,23,-179,-71,74
191,8640,18,-1716,-4687,23,-178,-75,67
192,8620,44,-1675,-4692,23,-168,-73,63
193,8662,25,-1708,-4710,23,-174,-83,67
194,8649,17,-1663,-4688,23,-167,-78,74
195,8626,10,-1710,-4699,23,-171,-75,77
196,8623,23,-1703,-4697,23,-171,-74,75
197,8595,22,-1667,-4704,23,-170,-68,72
198,8629,44,-1724,-4701,23,-165,-69,73
199,8607,-26,-1739,-4689,23,-175,-72,69
200,8638,40,-1682,-4692,23,-171,-89,65
201,8634,-2,-1711,-4698,23,-164,-76,75
202,8663,36,-1686,-4711,23,-171,-70,60
203,8639,32,-1743,-4696,23,-173,-72,71
204,8623,13,-1732,-4697,23,-162,-79,61
205,8664,-6,-1770,-4698,23,-168,-74,76
206,8624,11,-1664,-4703,23,-178,-67,71
207,8650,10,-1719,-4701,23,-175,-84,65
208,8639,32,-1659,-4694,23,-171,-75,80
209,8608,25,-1701,-4710,23,-170,-79,73
210,8622,32,-1702,-4705,23,-172,-75,70
211,8615,8,-1675,-4711,23,-172,-78,64
212,8629,13,-1671,-4696,23,-170,-78,66
213,8660,8,-1760,-4714,23,-173,-80,71
214,8678,-3,-1719,-4696,23,-171,-77,71
215,8651,34,-1742,-4712,23,-171,-84,75
216,8636,54,-1705,-4684,23,-171,-78,72
217,8627,28,-1715,-4698,23,-175,-77,67
218,8637,-5,-1766,-4685,23,-170,-80,70
219,8621,-22,-1709,-4706,23,-164,-69,73
220,8636,-14,-1659,-4706,23,-172,-75,72
221,8640,-25,-1654,-4705,23,-171,-68,65
222,8620,-29,-1762,-4701,23,-171,-74,73
223,8655,-15,-1726,-4697,23,-174,-71,76
224,8657,-22,-1733,-4703,23,-172,-82,69
225,8648,-17,-1649,-4696,23,-173,-81,68
226,8631,-9,-1660,-4694,23,-177,-77,68
227,8620,41,-1749,-4709,23,-175,-75,77
228,8648,57,-1682,-4693,23,-178,-74,70
229,8659,42,-1723,-4714,23,-178,-68,66
230,8639,18,-1655,-4694,23,-177,-66,63
231,8647,-8,-1649,-4702,23,-177,-75,72
232,8637,19,-1714,-4704,23,-173,-77,71
233,8644,7,-1703,-4704,23,-171,-76,75
234,8662,-26,-1630,-4700,23,-181,-79,68
235,8667,7,-1698,-4703,23,-179,-71,70
236,8661,32,-1692,-4697,23,-174,-83,66
237,8647,6,-1698,-4692,23,-164,-80,69
238,8634,8,-1748,-4692,23,-174,-75,73
239,8593,-13,-1760,-4697,23,-170,-73,63
240,8642,-53,-1655,-4703,23,-176,-71,72
241,8651,20,-1677,-4704,23,-172,-76,72
242,8640,-9,-1758,-4708,23,-174,-68,60
243,8660,3,-1692,-4696,23,-176,-78,73
244,8624,31,-1645,-4700,23,-174,-81,75
245,8652,-7,-1753,-4699,23,-179,-74,62
246,8605,-6,-1712,-4703,23,-171,-83,59
247,8602,-17,-1760,-4700,23,-175,-72,74
248,8644,32,-1704,-4709,23,-172,-76,64
249,8661,-11,-1751,-4697,23,-170,-77,74
250,8635,-14,-1684,-4711,23,-173,-83,75
251,8651,36,-1731,-4701,23,-171,-76,75
252,8638,-32,-1668,-4699,23,-171,-83,70
253,8675,13,-1721,-4706,23,-175,-73,67
254,8640,-16,-1705,-4690,23,-174,-76,70
255,8637,-30,-1687,-4708,23,-166,-71,70
256,8628,-11,-1648,-4708,23,-172,-74,72
257,8624,-14,-1684,-4703,23,-169,-69,67
258,8666,39,-1684,-4697,23,-169,-76,71
259,8655,18,-1721,-4689,23,-168,-77,62
260,8625,22,-1666,-4711,23,-173,-74,67
261,8622,-32,-1655,-4702,23,-166,-78,70
262,8641,18,-1689,-4697,23,-179,-79,72
263,8616,-10,-1710,-4698,23,-174,-73,72
264,8625,-5,-1719,-4703,23,-169,-77,69
265,8641,-17,-1660,-4723,23,-174,-78,63
266,8686,-14,-1677,-4695,23,-182,-77,65
267,8652,-36,-1680,-4701,23,-174,-78,66
268,8636,32,-1626,-4713,23,-181,-67,65
269,8640,27,-1735,-4698,23,-174,-68,68
270,8680,7,-1683,-4700,23,-181,-78,74
271,8662,-38,-1725,-4696,23,-176,-73,71
272,8639,16,-1659,-4705,23,-176,-73,66
273,8626,-14,-1737,-4695,23,-177,-74,70
274,8624,-4,-1699,-4698,23,-172,-84,71
275,8650,-15,-1742,-4718,23,-169,-79,71
276,8626,41,-1733,-4708,23,-164,-79,73
277,8661,59,-1647,-4704,23,-175,-83,72
278,8620,-18,-1736,-4695,23,-174,-80,60
279,8673,-6,-1719,-4695,23,-174,-82,72
280,8627,34,-1652,-4697,23,-170,-80,63
281,8616,14,-1709,-4688,23,-171,-63,68
282,8629,26,-1672,-4683,23,-174,-75,71
283,8649,20,-1727,-4695,23,-166,-69,68
284,8696,16,-1694,-4690,23,-184,-89,67
285,8611,11,-1695,-4689,23,-177,-75,71
286,8676,25,-1724,-4692,23,-169,-78,70
287,8652,12,-1724,-4683,23,-167,-72,62
288,8678,-2,-1755,-4702,23,-175,-84,72
289,8634,13,-1667,-4693,23,-175,-71,66
290,8617,-4,-1701,-4700,23,-163,-84,70
291,8652,0,-1675,-4702,23,-176,-79,66
292,8606,21,-1680,-4695,23,-168,-77,66
293,8616,17,-1736,-4697,23,-171,-76,75
294,8612,28,-1642,-4694,23,-174,-77,66
295,8638,-10,-1732,-4703,23,-172,-74,76
296,8606,5,-1681,-4691,23,-168,-73,71
297,8675,-34,-1682,-4707,23,-172,-75,69
298,8646,33,-1657,-4697,23,-163,-83,71
299,8625,4,-1646,-4700,23,-185,-76,74
300,8653,-10,-1659,-4694,23,-173,-67,69
301,8671,-20,-1695,-4689,23,-167,-66,74
302,8632,19,-1715,-4702,23,-170,-78,74
303,8645,-18,-1683,-4695,23,-171,-81,68
304,8599,-38,-1747,-4686,23,-169,-82,72
305,8630,42,-1724,-4689,23,-174,-70,63
306,8631,-15,-1710,-4698,23,-172,-81,69
307,8647,27,-1711,-4698,23,-173,-80,66
308,8612,-11,-1703,-4694,23,-173,-76,74
309,8643,-8,-1664,-4705,23,-167,-75,73
310,8666,-2,-1680,-4692,23,-170,-74,65
311,8622,10,-1664,-4695,23,-172,-68,66
312,8606,-5,-1713,-4692,23,-180,-77,69
313,8615,-35,-1689,-4702,23,-174,-93,66
314,8670,-8,-1720,-4688,23,-166,-68,65
315,8618,10,-1710,-4704,23,-181,-71,73
316,8654,-38,-1712,-4701,23,-166,-83,66
317,8640,-21,-1661,-4699,23,-171,-81,68
318,8602,35,-1775,-4698,23,-181,-72,72
319,8609,23,-1684,-4703,23,-172,-69,62
320,8627,-39,-1725,-4701,23,-173,-80,71
321,8641,-8,-1691,-4696,23,-177,-71,64
322,8645,3,-1713,-4706,23,-186,-74,63
323,8628,23,-1727,-4685,23,-164,-73,70
324,8619,-14,-1695,-4688,23,-171,-69,71
325,8649,-15,-1739,-4705,23,-179,-73,71
326,8606,36,-1695,-4705,23,-172,-63,68
327,8628,-20,-1691,-4686,23,-176,-76,63
328,8654,35,-1705,-4704,23,-172,-78,73
329,8609,-21,-1659,-4699,23,-169,-70,72
330,8604,16,-1708,-4703,23,-177,-78,64
331,8618,8,-1668,-4695,23,-172,-80,67
332,8642,28,-1688,-4690,23,-163,-74,67
333,8634,29,-1681,-4701,23,-169,-73,62
334,8669,2,-1683,-4685,23,-181,-77,69
335,8669,6,-1654,-4697,23,-175,-77,70
336,8610,23,-1728,-4703,23,-162,-75,72
337,8607,27,-1667,-4689,23,-166,-73,73
338,8668,20,-1734,-4695,23,-172,-77,66
339,8644,25,-1646,-4671,23,-171,-75,61
340,8621,15,-1740,-4684,23,-177,-76,71
341,8659,39,-1642,-4698,23,-174,-72,79
342,8613,12,-1671,-4695,23,-176,-78,68
343,8668,-4,-1721,-4692,23,-170,-77,74
344,8626,-9,-1676,-4712,23,-178,-83,74
345,8645,79,-1680,-4705,23,-174,-75,69
346,8649,-13,-1707,-4709,23,-179,-81,64
347,8666,48,-1703,-4700,23,-174,-72,68
348,8614,-13,-1688,-4699,23,-169,-67,66
349,8615,46,-1715,-4693,23,-176,-86,65
350,8631,-3,-1688,-4706,23,-173,-82,69
351,8637,7,-1642,-4690,23,-181,-72,69
352,8607,18,-1700,-4702,23,-167,-70,66
353,8618,0,-1691,-4702,23,-171,-78,68
354,8658,23,-1696,-4701,23,-171,-73,74
355,8596,36,-1702,-4697,23,-164,-76,59
356,8653,28,-1721,-4697,23,-172,-72,67
357,8643,37,-1595,-4708,23,-172,-74,66
358,8641,-16,-1716,-4699,23,-170,-73,74
359,8649,-18,-1677,-4712,23,-176,-69,78
360,8616,5,-1674,-4692,23,-171,-75,69
361,8600,8,-1702,-4686,23,-175,-79,70
362,8631,-6,-1766,-4693,23,-176,-79,71
363,8606,18,-1694,-4702,23,-163,-79,67
364,8620,35,-1727,-4691,23,-182,-69,61
365,8608,-14,-1711,-4698,23,-179,-77,63
366,8627,-9,-1650,-4696,23,-180,-75,72
367,8654,-35,-1737,-4697,23,-172,-70,67
368,8614,-27,-1703,-4696,23,-173,-77,70
369,8634,-7,-1636,-4702,23,-177,-71,67
370,8664,9,-1731,-4699,23,-173,-81,73
371,8643,37,-1665,-4689,23,-176,-66,72
372,8603,31,-1680,-4696,23,-172,-83,57
373,8610,-26,-1706,-4695,23,-172,-76,66
374,8661,11,-1719,-4707,23,-175,-70,66
375,8631,28,-1738,-4707,23,-170,-80,69
376,8603,-9,-1659,-4688,23,-171,-78,76
377,8649,-1,-1676,-4687,23,-173,-73,63
378,8629,-10,-1712,-4703,23,-185,-76,64
379,8625,19,-1700,-4702,23,-182,-72,65
380,8637,3,-1702,-4694,23,-167,-75,78
381,8630,-22,-1703,-4706,23,-174,-77,71
382,8605,-11,-1664,-4706,23,-168,-81,71
383,8640,-26,-1658,-4683,23,-173,-74,62
384,8624,4,-1677,-4696,23,-182,-74,71
385,8655,-4,-1683,-4696,23,-162,-72,69
386,8651,35,-1777,-4689,23,-170,-79,69
387,8625,3,-1761,-4697,23,-180,-68,66
388,8639,32,-1661,-4697,23,-172,-81,71
389,8665,-38,-1628,-4699,23,-177,-73,73
390,8671,-21,-1702,-4686,23,-173,-73,72
391,8636,29,-1631,-4700,23,-177,-81,71
392,8620,-11,-1675,-4696,23,-171,-67,71
393,8639,45,-1650,-4701,23,-169,-76,70
394,8672,8,-1660,-4696,23,-185,-83,60
395,8636,-19,-1713,-4700,23,-163,-72,68
396,8622,24,-1779,-4703,23,-176,-82,70
397,8655,17,-1688,-4706,23,-164,-73,76
398,8657,30,-1709,-4688,23,-174,-73,70
399,8639,5,-1710,-4703,23,-176,-73,70
400,8638,-29,-1711,-4703,23,-173,-78,60
401,8646,46,-1686,-4711,23,-164,-68,73
402,8661,9,-1682,-4689,23,-176,-70,71
403,8666,-34,-1700,-4704,23,-173,-76,61
404,8681,41,-1709,-4703,23,-169,-87,66
405,8671,12,-1646,-4701,23,-179,-82,70
406,8688,12,-1694,-4698,23,-168,-67,64
407,8607,19,-1760,-4699,23,-168,-75,74
408,8609,23,-1777,-4686,23,-174,-72,72
409,8640,-21,-1698,-4693,23,-168,-75,70
410,8623,-28,-1642,-4692,23,-171,-81,70
411,8645,-17,-1720,-4690,23,-165,-69,76
412,8621,7,-1644,-4687,23,-180,-66,69
413,8671,0,-1660,-4695,23,-174,-68,74
414,8623,-46,-1676,-4703,23,-172,-79,74
415,8655,-17,-1665,-4701,23,-173,-78,70
416,8599,-17,-1693,-4712,23,-176,-74,63
417,8628,17,-1716,-4698,23,-180,-75,76
418,8658,13,-1701,-4696,23,-178,-77,64
419,8658,32,-1725,-4707,23,-176,-83,78
420,8638,37,-1693,-4683,23,-175,-80,70
421,8648,41,-1753,-4703,23,-174,-77,72
422,8608,37,-1697,-4697,23,-171,-74,71
423,8648,3,-1720,-4697,23,-167,-85,68
424,8650,-6,-1681,-4705,23,-173,-82,61
425,8605,29,-1618,-4708,23,-177,-75,66
426,8617,-5,-1765,-4689,23,-177,-69,67
427,8623,42,-1722,-4705,23,-176,-68,63
428,8638,30,-1638,-4696,23,-174,-88,71
429,8611,30,-1741,-4706,23,-175,-82,76
430,8612,15,-1681,-4704,23,-175,-70,76
431,8637,10,-1637,-4699,23,-171,-85,63
432,8647,22,-1763,-4704,23,-174,-74,66
433,8624,12,-1695,-4705,23,-173,-75,73
434,8628,24,-1720,-4703,23,-169,-82,69
435,8677,8,-1691,-4711,23,-187,-72,81
436,8624,46,-1706,-4690,23,-169,-79,74
437,8606,20,-1664,-4693,23,-171,-73,69
438,8653,22,-1679,-4697,23,-162,-73,74
439,8608,45,-1712,-4699,23,-173,-80,72
440,8630,4,-1749,-4704,23,-177,-79,64
441,8617,-11,-1730,-4704,23,-178,-84,80
442,8663,-8,-1720,-4701,23,-178,-66,72
443,8683,-6,-1684,-4703,23,-172,-68,68
444,8675,0,-1749,-4694,23,-171,-75,65
445,8626,-8,-1710,-4700,23,-176,-75,67
446,8642,-23,-1717,-4696,23,-172,-67,74
447,8618,8,-1674,-4701,23,-180,-76,71
448,8655,14,-1690,-4709,23,-170,-82,75
449,8655,-12,-1711,-4701,23,-176,-79,74
450,8649,26,-1679,-4701,23,-172,-76,76
451,8620,9,-1704,-4694,23,-173,-68,65
452,8614,-21,-1647,-4712,23,-177,-73,73
453,8648,-26,-1724,-4697,23,-182,-77,67
454,8611,-13,-1690,-4701,23,-174,-74,70
455,8648,-6,-1754,-4708,23,-183,-76,71
456,8638,5,-1745,-4697,23,-172,-79,71
457,8625,2,-1713,-4697,23,-166,-85,75
458,8644,-19,-1687,-4695,23,-166,-70,68
459,8637,22,-1676,-4701,23,-169,-75,65
460,8651,24,-1684,-4706,23,-169,-78,76
461,8653,11,-1691,-4705,23,-175,-75,70
462,8666,44,-1652,-4708,23,-174,-73,66
463,8608,-17,-1697,-4701,23,-172,-72,72
464,8644,29,-1713,-4700,23,-176,-81,75
465,8657,-4,-1694,-4696,23,-181,-72,73
466,8604,12,-1694,-4693,23,-176,-70,70
467,8650,5,-1683,-4701,23,-175,-78,73
468,8689,2,-1710,-4695,23,-172,-76,70
469,8645,-20,-1699,-4697,23,-178,-68,70
470,8651,31,-1708,-4705,23,-177,-72,68
471,8659,15,-1669,-4708,23,-176,-70,80
472,8636,-3,-1710,-4684,23,-169,-72,67
473,8624,18,-1726,-4709,23,-171,-83,66
474,8582,10,-1697,-4698,23,-172,-76,67
475,8651,-43,-1747,-4685,23,-172,-73,70
476,8657,70,-1732,-4684,23,-172,-86,74
477,8641,-1,-1689,-4692,23,-172,-80,71
478,8650,43,-1715,-4700,23,-180,-68,66
479,8604,-28,-1716,-4708,23,-172,-86,71
480,8661,33,-1649,-4686,23,-175,-83,65
481,8642,7,-1681,-4703,23,-167,-77,65
482,8615,18,-1689,-4697,23,-178,-82,67
483,8640,-2,-1599,-4701,23,-173,-77,79
484,8685,-8,-1695,-4704,23,-178,-80,75
485,8656,27,-1719,-4694,23,-173,-77,69
486,8648,24,-1649,-4679,23,-174,-70,66
487,8648,-9,-1638,-4684,23,-174,-88,61
488,8641,-25,-1746,-4689,23,-169,-76,73
489,8627,30,-1687,-4696,23,-180,-84,71
490,8646,28,-1674,-4701,23,-178,-86,66
491,8621,-43,-1706,-4698,23,-176,-79,69
492,8685,15,-1733,-4696,23,-175,-78,72
493,8639,0,-1731,-4686,23,-168,-72,72
494,8606,37,-1703,-4696,23,-177,-75,64
495,8687,33,-1667,-4695,23,-180,-77,75
496,8668,-11,-1758,-4693,23,-175,-78,63
497,8644,29,-1718,-4683,23,-179,-63,70
498,8601,25,-1723,-4690,23,-173,-75,68
499,8644,25,-1697,-4700,23,-177,-65,70
500,8614,8,-1740,-4692,23,-172,-76,65
501,8621,25,-1765,-4698,23,-176,-86,67
502,8650,-11,-1755,-4705,23,-174,-76,70
503,8656,-9,-1657,-4690,23,-180,-73,70
504,8673,67,-1696,-4688,23,-181,-73,64
505,8663,9,-1681,-4694,23,-170,-73,67
506,8647,-27,-1668,-4691,23,-169,-76,71
507,8605,0,-1714,-4693,23,-175,-86,62
508,8619,-10,-1721,-4693,23,-169,-77,67
509,8651,13,-1653,-4699,23,-178,-83,81
510,8607,-31,-1675,-4681,23,-171,-78,62
511,8630,12,-1681,-4699,23,-185,-75,69
512,8677,-14,-1670,-4704,23,-181,-76,72
513,8631,-6,-1711,-4700,23,-172,-79,64
514,8665,-49,-1699,-4691,23,-171,-75,65
515,8685,13,-1715,-4713,23,-170,-79,61
516,8626,30,-1692,-4695,23,-173,-73,74
517,8607,8,-1680,-4698,23,-176,-83,70
518,8641,-5,-1680,-4692,23,-179,-80,65
519,8660,5,-1663,-4691,23,-176,-64,69
520,8587,25,-1744,-4695,23,-171,-69,73
521,8646,10,-1691,-4680,23,-170,-78,57
522,8633,11,-1713,-4712,23,-170,-65,70
523,8576,9,-1658,-4700,23,-178,-69,68
524,8660,46,-1720,-4689,23,-172,-77,66
525,8631,9,-1707,-4690,23,-175,-74,71
526,8642,-12,-1695,-4708,23,-180,-77,64
527,8632,28,-1716,-4700,23,-177,-73,76
528,8677,35,-1655,-4692,23,-173,-72,77
529,8619,-17,-1736,-4698,23,-172,-75,69
530,8665,-1,-1737,-4708,23,-176,-79,71
531,8659,-12,-1720,-4699,23,-175,-69,72
532,8633,0,-1658,-4696,23,-175,-73,69
533,8614,22,-1723,-4694,23,-177,-80,72
534,8632,65,-1740,-4686,23,-176,-77,63
535,8632,19,-1721,-4698,23,-174,-77,72
536,8661,29,-1694,-4692,23,-172,-86,69
537,8634,9,-1764,-4696,23,-174,-77,67
538,8651,24,-1714,-4704,23,-172,-70,75
539,8667,-6,-1670,-4700,23,-172,-72,68
540,8642,18,-1735,-4702,23,-181,-78,68
541,8623,-6,-1684,-4699,23,-173,-78,67
542,8609,4,-1668,-4699,23,-176,-85,68
543,8635,12,-1710,-4702,23,-168,-75,67
544,8643,10,-1743,-4690,23,-177,-69,72
545,8627,18,-1669,-4694,23,-177,-81,67
546,8639,25,-1736,-4698,23,-180,-67,67
547,8625,4,-1683,-4687,23,-171,-71,71
548,8621,54,-1682,-4696,23,-181,-74,73
549,8647,-30,-1705,-4702,23,-169,-74,76
550,8610,-29,-1666,-4699,23,-169,-85,71
551,8630,-19,-1677,-4693,23,-170,-66,69
552,8641,-40,-1691,-4700,23,-161,-73,73
553,8651,16,-1782,-4688,23,-172,-80,64
554,8586,0,-1739,-4695,23,-170,-74,68
555,8609,30,-1678,-4698,23,-181,-76,66
556,8643,21,-1734,-4695,23,-178,-73,63
557,8633,8,-1671,-4695,23,-174,-67,71
558,8657,10,-1689,-4698,23,-168,-80,67
559,8602,12,-1756,-4703,23,-171,-71,71
560,8627,-18,-1722,-4704,23,-178,-87,71
561,8647,4,-1676,-4683,23,-177,-68,68
562,8690,27,-1703,-4699,23,-173,-77,64
563,8687,5,-1663,-4695,23,-181,-74,67
564,8627,22,-1688,-4683,23,-172,-76,72
565,8654,43,-1688,-4689,23,-183,-68,69
566,8636,-11,-1675,-4704,23,-166,-71,67
567,8704,20,-1696,-4687,23,-174,-75,66
568,8653,2,-1670,-4696,23,-172,-79,66
569,8668,8,-1693,-4689,23,-175,-80,68
570,8638,37,-1729,-4695,23,-163,-73,71
571,8673,-11,-1684,-4687,23,-175,-79,68
572,8612,7,-1653,-4692,23,-172,-73,64
573,8630,27,-1655,-4698,23,-165,-78,69
574,8646,-1,-1672,-4702,23,-177,-63,75
575,8628,14,-1633,-4704,23,-179,-72,73
576,8649,33,-1694,-4692,23,-166,-77,62
577,8665,3,-1666,-4695,23,-179,-75,70
578,8651,23,-1756,-4698,23,-171,-80,74
579,8632,25,-1676,-4692,23,-177,-75,66
580,8607,29,-1680,-4693,23,-178,-77,73
581,8655,-3,-1642,-4696,23,-178,-84,71
582,8641,-28,-1733,-4697,23,-177,-74,69
583,8617,-34,-1773,-4698,23,-166,-70,72
584,8661,-29,-1695,-4699,23,-167,-75,61
585,8654,19,-1721,-4701,23,-172,-78,74
586,8644,33,-1639,-4690,23,-185,-77,65
587,8637,2,-1650,-4695,23,-178,-64,75
588,8647,-14,-1694,-4694,23,-183,-73,66
589,8625,21,-1693,-4690,23,-165,-70,63
590,8640,10,-1686,-4694,23,-173,-80,75
591,8607,56,-1697,-4705,23,-176,-87,74
592,8627,36,-1660,-4705,23,-176,-80,71
593,8646,-7,-1693,-4698,23,-179,-73,73
594,8661,14,-1762,-4695,23,-170,-75,76
595,8633,-5,-1706,-4685,23,-167,-64,78
596,8667,27,-1704,-4689,23,-173,-69,67
597,8657,14,-1704,-4686,23,-178,-69,67
598,8643,28,-1703,-4691,23,-172,-80,70
599,8620,11,-1718,-4689,23,-172,-85,75
600,8678,12,-1662,-4692,23,-168,-83,74
601,8626,33,-1721,-4703,23,-180,-65,76
602,8613,-22,-1731,-4705,23,-175,-72,71
603,8634,3,-1651,-4707,23,-175,-67,71
604,8598,-20,-1700,-4702,23,-177,-73,77
605,8653,-4,-1775,-4699,23,-171,-82,73
606,8664,23,-1706,-4699,23,-173,-76,65
607,8618,56,-1713,-4704,23,-169,-79,69
608,8674,8,-1664,-4695,23,-174,-83,65
609,8633,52,-1691,-4697,23,-172,-82,68
610,8637,25,-1704,-4697,23,-179,-69,64
611,8628,19,-1701,-4703,23,-166,-78,62
612,8675,45,-1661,-4690,23,-190,-79,65
613,8643,-13,-1672,-4698,23,-175,-76,73
614,8630,12,-1717,-4704,23,-182,-81,71
615,8644,15,-1737,-4699,23,-168,-72,71
616,8638,-10,-1679,-4695,23,-174,-70,74
617,8672,38,-1701,-4703,23,-171,-79,71
618,8629,-41,-1724,-4707,23,-179,-86,68
619,8659,-32,-1728,-4694,23,-170,-75,66
620,8620,-5,-1726,-4694,23,-168,-86,69
621,8629,-20,-1710,-4698,23,-178,-80,62
622,8610,24,-1678,-4688,23,-178,-65,71
623,8662,2,-1743,-4694,23,-181,-66,71
624,8598,5,-1679,-4697,23,-175,-74,67
625,8611,-31,-1679,-4697,23,-179,-74,72
626,8627,2,-1681,-4686,23,-167,-80,69
627,8653,1,-1688,-4696,23,-168,-77,70
628,8655,-1,-1700,-4696,23,-170,-77,66
629,8614,-20,-1712,-4701,23,-173,-72,65
630,8668,47,-1705,-4706,23,-170,-78,70
631,8633,-30,-1691,-4693,23,-170,-74,66
632,8640,30,-1753,-4678,23,-169,-78,71
633,8650,-48,-1710,-4683,23,-167,-70,69
634,8620,-10,-1741,-4684,23,-172,-80,60
635,8643,17,-1684,-4699,23,-182,-86,72
636,8611,-22,-1612,-4689,23,-183,-72,68
637,8660,-31,-1739,-4690,23,-180,-76,72
638,8654,18,-1734,-4695,23,-167,-75,68
639,8617,9,-1628,-4691,23,-171,-67,63
640,8643,8,-1689,-4707,23,-170,-71,70
641,8643,5,-1687,-4699,23,-168,-78,69
642,8626,-16,-1711,-4690,23,-169,-72,65
643,8656,-3,-1654,-4696,23,-172,-74,72
644,8646,-2,-1692,-4692,23,-176,-76,73
645,8646,-9,-1744,-4703,23,-176,-64,64
646,8605,-8,-1667,-4700,23,-177,-71,70
647,8674,14,-1708,-4702,23,-177,-79,67
648,8628,12,-1681,-4689,23,-184,-81,73
649,8620,32,-1711,-4692,23,-179,-89,73
650,8622,3,-1741,-4698,23,-167,-69,72
651,8618,22,-1685,-4691,23,-178,-80,77
652,8639,23,-1698,-4687,23,-180,-79,63
653,8691,35,-1683,-4689,23,-175,-75,70
654,8646,-8,-1679,-4692,23,-178,-74,68
655,8619,2,-1730,-4697,23,-169,-66,70
656,8654,-56,-1669,-4699,23,-175,-78,69
657,8594,29,-1647,-4704,23,-177,-81,72
658,8637,52,-1660,-4697,23,-170,-78,66
659,8679,5,-1700,-4693,23,-179,-78,72
660,8622,9,-1718,-4708,23,-181,-77,68
661,8602,-20,-1718,-4694,23,-171,-75,74
662,8680,31,-1694,-4685,23,-178,-79,60
663,8657,-39,-1715,-4688,23,-169,-82,67
664,8638,5,-1690,-4694,23,-173,-84,71
665,8639,15,-1666,-4693,23,-173,-83,61
666,8647,-8,-1675,-4698,23,-177,-73,70
667,8625,5,-1687,-4704,23,-173,-77,69
668,8595,2,-1710,-4696,23,-172,-81,61
669,8675,20,-1663,-4693,23,-180,-71,66
670,8625,-14,-1686,-4687,23,-176,-71,66
671,8600,45,-1721,-4700,23,-166,-69,72
672,8642,-3,-1738,-4696,23,-175,-80,66
673,8631,13,-1727,-4698,23,-167,-74,62
674,8636,15,-1674,-4695,23,-166,-76,75
675,8631,-12,-1687,-4695,23,-184,-71,72
676,8631,41,-1720,-4692,23,-175,-79,70
677,8631,33,-1641,-4702,23,-169,-76,69
678,8640,-26,-1666,-4700,23,-176,-83,74
679,8637,-16,-1702,-4709,23,-172,-77,62
680,8605,15,-1719,-4696,23,-176,-68,67
681,8641,28,-1686,-4701,23,-176,-85,68
682,8659,-3,-1655,-4685,23,-173,-74,78
683,8680,-32,-1706,-4671,23,-176,-79,77
684,8660,20,-1725,-4689,23,-173,-70,71
685,8629,7,-1716,-4702,23,-170,-73,70
686,8669,-6,-1696,-4687,23,-178,-82,79
687,8609,63,-1696,-4697,23,-171,-79,72
688,8657,29,-1654,-4717,23,-172,-75,75
689,8632,-4,-1669,-4703,23,-170,-75,68
690,8630,14,-1738,-4701,23,-178,-69,78
691,8632,-21,-1726,-4697,23,-181,-69,67
692,8618,-12,-1673,-4697,23,-180,-71,68
693,8644,-11,-1679,-4690,23,-177,-62,72
694,8667,-14,-1661,-4683,23,-169,-78,67
695,8637,-10,-1730,-4693,23,-175,-66,73
696,8632,24,-1794,-4708,23,-179,-75,66
697,8667,9,-1677,-4680,23,-183,-75,75
698,8636,5,-1704,-4691,23,-174,-79,67
699,8679,0,-1725,-4686,23,-178,-75,72
700,8620,7,-1685,-4695,23,-177,-73,71
701,8639,2,-1681,-4696,23,-174,-79,69
702,8652,36,-1687,-4695,23,-169,-74,66
703,8652,6,-1681,-4698,23,-168,-74,69
704,8640,-8,-1666,-4686,23,-175,-70,61
705,8646,24,-1698,-4698,23,-176,-72,61
706,8671,-14,-1712,-4702,23,-174,-60,65
707,8668,25,-1701,-4683,23,-176,-71,68
708,8653,33,-1725,-4697,23,-166,-71,75
709,8662,11,-1655,-4709,23,-182,-75,66
710,8652,-53,-1650,-4694,23,-170,-80,72
711,8643,10,-1697,-4705,23,-175,-72,65
712,8616,2,-1714,-4694,23,-175,-74,71
713,8653,1,-1705,-4690,23,-167,-76,66
714,8633,31,-1742,-4704,23,-170,-74,75
715,8659,0,-1693,-4689,23,-168,-76,77
716,8642,-4,-1664,-4690,23,-172,-62,70
717,8612,-10,-1698,-4696,23,-175,-73,67
718,8613,20,-1753,-4697,23,-173,-78,61
719,8631,-4,-1669,-4707,23,-172,-75,73
720,8652,31,-1790,-4695,23,-168,-73,74
721,8596,13,-1676,-4694,23,-171,-70,66
722,8678,-26,-1674,-4691,23,-160,-83,73
723,8618,-5,-1724,-4688,23,-178,-80,80
724,8645,34,-1729,-4706,23,-169,-76,71
725,8645,-20,-1679,-4699,23,-168,-84,72
726,8690,-8,-1691,-4701,23,-179,-76,68
727,8638,-37,-1719,-4693,23,-177,-73,68
728,8651,13,-1669,-4700,23,-171,-73,73
729,8673,15,-1708,-4706,23,-180,-85,67
730,8671,44,-1721,-4701,23,-173,-75,72
731,8608,-18,-1717,-4693,23,-170,-72,79
732,8649,47,-1730,-4693,23,-164,-73,68
733,8632,18,-1700,-4708,23,-173,-71,77
734,8686,-12,-1664,-4707,23,-167,-81,63
735,8634,26,-1713,-4704,23,-174,-75,69
736,8658,45,-1736,-4697,23,-174,-73,78
737,8619,10,-1704,-4705,23,-162,-77,63
738,8662,4,-1708,-4700,23,-168,-80,71
739,8664,42,-1666,-4689,23,-165,-79,69
740,8670,-20,-1648,-4681,23,-179,-76,67
741,8617,4,-1710,-4686,23,-180,-76,71
742,8650,21,-1721,-4711,23,-170,-75,71
743,8638,-3,-1711,-4700,23,-181,-71,73
744,8643,-3,-1707,-4699,23,-175,-76,74
745,8617,51,-1698,-4700,23,-175,-74,69
746,8621,17,-1742,-4704,23,-165,-75,67
747,8651,-1,-1662,-4694,23,-175,-69,67
748,8627,4,-1711,-4704,23,-169,-71,80
749,8616,-13,-1727,-4695,23,-181,-79,66
750,8608,0,-1680,-4703,23,-170,-75,65
751,8614,4,-1708,-4691,23,-168,-75,69
752,8658,-1,-1710,-4702,23,-162,-78,69
753,8639,5,-1663,-4697,23,-169,-75,66
754,8630,39,-1684,-4700,23,-169,-71,59
755,8615,22,-1699,-4703,23,-169,-75,67
756,8620,2,-1679,-4701,23,-168,-76,70
757,8624,22,-1676,-4686,23,-177,-80,68
758,8638,6,-1703,-4712,23,-181,-75,71
759,8621,5,-1709,-4686,23,-168,-75,78
760,8637,3,-1713,-4702,23,-170,-85,75
761,8632,2,-1707,-4696,23,-175,-75,71
762,8658,24,-1681,-4710,23,-171,-77,69
763,8657,4,-1703,-4700,23,-173,-67,68
764,8622,-47,-1724,-4689,23,-177,-82,74
765,8645,-8,-1695,-4691,23,-178,-79,76
766,8609,43,-1705,-4692,23,-175,-77,71
767,8619,-15,-1701,-4687,23,-175,-75,67
768,8652,5,-1700,-4696,23,-175,-77,68
769,8631,-45,-1712,-4681,23,-184,-80,70
770,8601,-24,-1720,-4694,23,-174,-85,76
771,8654,13,-1717,-4705,23,-178,-70,73
772,8654,17,-1713,-4714,23,-175,-88,74
773,8646,6,-1769,-4691,23,-176,-75,76
774,8638,1,-1664,-4695,23,-176,-70,71
775,8670,13,-1707,-4703,23,-174,-67,77
776,8626,-22,-1717,-4689,23,-174,-76,66
777,8641,-22,-1649,-4692,23,-176,-77,73
778,8643,12,-1704,-4697,23,-167,-73,70
779,8656,-6,-1660,-4694,23,-174,-82,70
780,8681,-16,-1792,-4699,23,-178,-73,65
781,8671,-10,-1672,-4683,23,-176,-77,71
782,8634,14,-1653,-4689,23,-177,-70,78
783,8647,-42,-1713,-4686,23,-167,-78,73
784,8651,-20,-1721,-4681,23,-176,-73,67
785,8645,-1,-1707,-4697,23,-167,-68,70
786,8674,16,-1675,-4679,23,-174,-75,75
787,8624,28,-1728,-4696,23,-172,-71,66
788,8688,-11,-1676,-4674,23,-180,-80,62
789,8618,0,-1660,-4713,23,-179,-79,71
790,8615,-10,-1675,-4697,23,-173,-69,76
791,8665,10,-1671,-4701,23,-178,-68,72
792,8637,-19,-1737,-4694,23,-181,-76,72
793,8635,-5,-1684,-4687,23,-179,-79,71
794,8651,31,-1690,-4697,23,-183,-80,80
795,8705,11,-1745,-4682,23,-170,-73,68
796,8650,31,-1694,-4692,23,-171,-74,70
797,8642,2,-1698,-4683,23,-172,-70,75
798,8634,-10,-1669,-4702,23,-185,-69,64
799,8624,2,-1708,-4694,23,-174,-80,75
800,8600,-29,-1725,-4704,23,-168,-81,77
801,8673,18,-1685,-4689,23,-176,-75,67
802,8650,-26,-1687,-4694,23,-174,-67,63
803,8666,-16,-1709,-4691,23,-171,-68,68
804,8655,16,-1711,-4702,23,-176,-79,69
805,8659,50,-1732,-4680,23,-178,-67,68
806,8622,6,-1786,-4689,23,-176,-76,68
807,8606,61,-1751,-4686,23,-177,-69,76
808,8649,20,-1701,-4687,23,-170,-74,69
809,8666,28,-1680,-4691,23,-175,-72,67
810,8671,-12,-1686,-4694,23,-175,-81,72
811,8662,-17,-1668,-4686,23,-174,-70,65
812,8659,-16,-1697,-4698,23,-178,-75,65
813,8612,20,-1653,-4697,23,-172,-82,63
814,8636,12,-1694,-4691,23,-172,-68,78
815,8645,30,-1653,-4695,23,-171,-82,68
816,8678,33,-1735,-4709,23,-175,-74,72
817,8638,23,-1667,-4688,23,-178,-76,73
818,8646,27,-1707,-4711,23,-180,-88,58
819,8614,-21,-1658,-4706,23,-176,-66,70
820,8632,8,-1713,-4700,23,-170,-68,71
821,8649,25,-1732,-4695,23,-168,-73,65
822,8678,9,-1672,-4681,23,-183,-77,69
823,8627,9,-1709,-4687,23,-176,-76,68
824,8635,21,-1689,-4675,23,-170,-72,60
825,8661,17,-1641,-4712,23,-170,-72,63
826,8643,8,-1713,-4689,23,-179,-68,63
827,8627,-19,-1713,-4689,23,-165,-79,72
828,8644,8,-1694,-4691,23,-174,-80,78
829,8662,-7,-1707,-4681,23,-175,-76,71
830,8601,54,-1713,-4691,23,-166,-75,64
831,8637,39,-1678,-4699,23,-175,-80,73
832,8622,14,-1672,-4686,23,-179,-77,70
833,8625,42,-1705,-4696,23,-181,-75,75
834,8636,-11,-1723,-4692,23,-165,-72,68
835,8674,-2,-1686,-4696,23,-171,-72,72
836,8630,20,-1671,-4704,23,-179,-82,77
837,8645,-4,-1646,-4700,23,-165,-75,69
838,8658,-5,-1697,-4690,23,-180,-75,63
839,8637,4,-1738,-4686,23,-175,-72,75
840,8607,24,-1659,-4697,23,-175,-83,61
841,8649,-39,-1665,-4699,23,-179,-66,66
842,8663,-11,-1706,-4679,23,-173,-81,69
843,8644,27,-1701,-4700,23,-171,-70,68
844,8632,5,-1619,-4696,23,-173,-69,64
845,8649,17,-1737,-4695,23,-169,-73,76
846,8653,53,-1662,-4686,23,-168,-77,69
847,8657,-14,-1688,-4678,23,-168,-74,77
848,8669,44,-1673,-4694,23,-169,-81,72
849,8625,14,-1695,-4700,23,-176,-67,66
850,8638,-43,-1716,-4692,23,-172,-72,71
851,8632,24,-1665,-4689,23,-175,-77,70
852,8621,11,-1710,-4671,23,-169,-75,66
853,8652,11,-1706,-4684,23,-170,-84,68
854,8684,24,-1721,-4699,23,-157,-69,63
855,8634,22,-1689,-4686,23,-179,-73,68
856,8590,-26,-1756,-4685,23,-173,-75,71
857,8657,-10,-1671,-4698,23,-168,-73,69
858,8619,35,-1652,-4691,23,-170,-75,68
859,8671,-6,-1671,-4678,23,-176,-79,67
860,8670,23,-1734,-4702,23,-159,-86,70
861,8652,-21,-1704,-4692,23,-168,-82,67
862,8610,33,-1646,-4702,23,-180,-78,65
863,8621,-20,-1704,-4688,23,-184,-73,74
864,8625,-9,-1707,-4688,23,-176,-79,69
865,8652,17,-1660,-4693,23,-176,-74,72
866,8636,1,-1751,-4704,23,-173,-65,76
867,8659,32,-1667,-4703,23,-177,-76,76
868,8632,68,-1704,-4701,23,-179,-78,61
869,8623,-15,-1642,-4707,23,-166,-81,71
870,8630,3,-1650,-4688,23,-169,-77,71
871,8649,3,-1718,-4688,23,-169,-84,71
872,8592,8,-1711,-4692,23,-181,-86,70
873,8670,-17,-1661,-4705,23,-177,-70,63
874,8604,-20,-1697,-4697,23,-174,-79,69
875,8688,-30,-1635,-4706,23,-167,-69,65
876,8596,8,-1643,-4689,23,-169,-72,76
877,8660,-6,-1728,-4684,23,-181,-71,70
878,8686,17,-1699,-4694,23,-176,-74,69
879,8606,32,-1743,-4679,23,-176,-74,75
880,8636,23,-1750,-4695,23,-172,-82,73
881,8657,37,-1749,-4693,23,-167,-79,61
882,8638,-21,-1651,-4689,23,-170,-75,68
883,8619,9,-1720,-4693,23,-179,-80,67
884,8672,-8,-1614,-4693,23,-179,-73,75
885,8635,26,-1726,-4690,23,-178,-76,67
886,8645,4,-1678,-4677,23,-179,-80,63
887,8632,34,-1705,-4701,23,-175,-77,70
888,8659,25,-1659,-4711,23,-171,-78,67
889,8658,-22,-1717,-4693,23,-174,-69,71
890,8619,27,-1701,-4692,23,-164,-76,65
891,8600,-38,-1660,-4694,23,-168,-75,78
892,8627,41,-1655,-4697,23,-172,-72,67
893,8611,-44,-1692,-4698,23,-169,-86,79
894,8644,6,-1689,-4699,23,-171,-71,68
895,8655,-27,-1683,-4678,23,-174,-82,73
896,8643,-27,-1707,-4689,23,-177,-69,60
897,8620,4,-1673,-4689,23,-181,-69,67
898,8654,-1,-1700,-4693,23,-169,-79,68
899,8637,23,-1762,-4697,23,-165,-79,72
900,8650,7,-1657,-4715,23,-179,-79,62
901,8647,12,-1644,-4699,23,-177,-65,68
902,8668,-20,-1678,-4698,23,-176,-71,62
903,8623,-2,-1705,-4693,23,-180,-81,73
904,8673,28,-1646,-4682,23,-171,-79,67
905,8621,40,-1730,-4707,23,-169,-77,66
906,8631,15,-1651,-4697,23,-170,-83,73
907,8603,-20,-1708,-4693,23,-173,-78,65
908,8628,-3,-1689,-4697,23,-177,-88,70
909,8638,-2,-1686,-4686,23,-175,-81,74
910,8641,16,-1675,-4695,23,-172,-70,70
911,8647,20,-1684,-4706,23,-171,-74,70
912,8645,-3,-1677,-4694,23,-167,-78,71
913,8652,18,-1675,-4703,23,-176,-88,66
914,8645,2,-1678,-4694,23,-170,-68,75
915,8664,21,-1690,-4685,23,-175,-83,69
916,8693,-8,-1700,-4710,23,-179,-70,66
917,8669,-8,-1671,-4695,23,-173,-79,60
918,8630,-23,-1651,-4706,23,-180,-73,66
919,8697,-15,-1760,-4698,23,-168,-79,63
920,8612,-8,-1627,-4704,23,-172,-78,70
921,8642,-17,-1713,-4709,23,-168,-80,71
922,8657,11,-1715,-4704,23,-163,-81,74
923,8646,-9,-1692,-4704,23,-167,-78,67
924,8649,24,-1650,-4681,23,-181,-77,73
925,8659,-1,-1718,-4706,23,-179,-70,69
926,8633,-20,-1685,-4703,23,-166,-72,62
927,8645,-10,-1689,-4702,23,-177,-77,70
928,8636,-1,-1738,-4701,23,-177,-81,64
929,8658,27,-1665,-4693,23,-181,-76,69
930,8605,12,-1619,-4698,23,-166,-76,65
931,8636,-20,-1664,-4710,23,-168,-76,70
932,8616,19,-1714,-4691,23,-178,-76,64
933,8637,-9,-1710,-4693,23,-168,-70,77
934,8659,22,-1701,-4700,23,-175,-72,68
935,8641,5,-1658,-4690,23,-179,-70,71
936,8659,-5,-1693,-4698,23,-170,-69,66
937,8619,4,-1739,-4695,23,-177,-73,71
938,8642,-7,-1713,-4682,23,-170,-70,75
939,8647,6,-1701,-4713,23,-180,-75,66
940,8656,13,-1691,-4692,23,-171,-75,60
941,8662,-4,-1679,-4686,23,-166,-82,69
942,8641,-22,-1734,-4695,23,-170,-81,71
943,8620,3,-1668,-4703,23,-172,-71,68
944,8639,-27,-1760,-4704,23,-179,-82,76
945,8629,-6,-1710,-4710,23,-164,-79,64
946,8631,19,-1678,-4699,23,-175,-75,68
947,8638,43,-1711,-4704,23,-175,-82,63
948,8630,-3,-1742,-4693,23,-168,-74,70
949,8619,-28,-1722,-4714,23,-172,-74,73
950,8605,46,-1720,-4683,23,-169,-73,66
951,8655,-12,-1725,-4685,23,-164,-73,71
952,8641,34,-1721,-4704,23,-178,-75,67
953,8665,5,-1696,-4676,23,-168,-69,69
954,8666,-27,-1667,-4704,23,-167,-74,76
955,8666,-25,-1667,-4689,23,-176,-73,62
956,8627,-15,-1718,-4691,23,-171,-86,70
957,8652,7,-1678,-4694,23,-170,-79,70
958,8648,17,-1658,-4706,23,-167,-74,72
959,8671,17,-1749,-4685,23,-180,-69,67
960,8654,-14,-1693,-4711,23,-176,-78,69
961,8627,10,-1760,-4702,23,-169,-82,67
962,8647,1,-1699,-4697,23,-168,-80,67
963,8653,14,-1675,-4691,23,-170,-77,70
964,8613,19,-1677,-4689,23,-174,-75,66
965,8634,27,-1712,-4711,23,-168,-88,59
966,8645,-8,-1717,-4694,23,-169,-80,64
967,8649,19,-1673,-4696,23,-175,-73,62
968,8662,49,-1639,-4690,23,-181,-67,76
969,8670,30,-1712,-4696,23,-175,-84,64
970,8668,22,-1693,-4706,23,-164,-80,56
971,8648,0,-1734,-4701,23,-183,-81,72
972,8621,46,-1702,-4693,23,-165,-70,65
973,8675,-25,-1706,-4684,23,-171,-74,71
974,8638,8,-1613,-4697,23,-173,-72,66
975,8638,6,-1641,-4703,23,-185,-78,73
976,8663,6,-1720,-4701,23,-171,-81,70
977,8664,-11,-1793,-4699,23,-174,-77,71
978,8655,14,-1721,-4712,23,-167,-74,73
979,8627,25,-1748,-4703,23,-181,-74,72
980,8607,4,-1600,-4694,23,-175,-72,62
981,8640,-7,-1699,-4702,23,-162,-70,68
982,8643,9,-1677,-4703,23,-182,-72,66
983,8644,-15,-1706,-4693,23,-173,-71,67
984,8654,37,-1671,-4694,23,-176,-76,66
985,8638,18,-1723,-4692,23,-171,-83,71
986,8647,-17,-1690,-4680,23,-173,-77,70
987,8602,-5,-1707,-4694,23,-178,-70,68
988,8658,6,-1786,-4702,23,-174,-79,66
989,8605,-31,-1655,-4696,23,-183,-72,64
990,8629,21,-1688,-4696,23,-174,-75,76
991,8648,11,-1728,-4689,23,-180,-74,67
992,8652,17,-1692,-4699,23,-178,-74,62
993,8637,-21,-1678,-4695,23,-176,-74,75
994,8645,5,-1745,-4700,23,-177,-77,70
995,8622,-2,-1753,-4711,23,-176,-83,68
996,8648,14,-1741,-4701,23,-163,-81,72
997,8611,-8,-1662,-4691,23,-172,-69,70
998,8630,10,-1708,-4699,23,-177,-83,73
