,acc_X,acc_Y,acc_Z,temp,tempC,gyr_X,gyr_Y,gyr_Z
0,8671,18,-1675,-4730,23,-346,-139,142
1,8658,-24,-1680,-4727,23,-338,-137,125
2,8659,-7,-1704,-4727,23,-354,-146,144
3,8643,6,-1697,-4730,23,-337,-161,147
4,8667,15,-1658,-4729,23,-348,-161,131
5,8652,-35,-1681,-4720,23,-365,-143,146
6,8634,3,-1730,-4721,23,-344,-160,155
7,8652,-3,-1702,-4719,23,-339,-139,129
8,8640,25,-1714,-4713,23,-349,-140,131
9,8645,6,-1763,-4725,23,-339,-137,141
10,8663,21,-1747,-4727,23,-343,-152,135
11,8630,17,-1711,-4726,23,-341,-149,135
12,8651,31,-1683,-4722,23,-353,-157,140
13,8650,19,-1695,-4726,23,-335,-147,140
14,8626,4,-1705,-4729,23,-344,-145,136
15,8652,1,-1659,-4716,23,-361,-141,143
16,8621,-21,-1711,-4729,23,-352,-158,135
17,8642,-2,-1705,-4729,23,-359,-149,148
18,8637,19,-1721,-4722,23,-348,-155,139
19,8637,-13,-1687,-4714,23,-344,-144,136
20,8634,19,-1702,-4720,23,-352,-156,129
21,8644,0,-1712,-4720,23,-347,-137,138
22,8650,1,-1691,-4726,23,-356,-137,154
23,8620,-11,-1706,-4726,23,-360,-150,142
24,8635,9,-1676,-4724,23,-338,-162,146
25,8614,3,-1707,-4731,23,-344,-150,149
26,8644,-25,-1748,-4722,23,-356,-146,141
27,8631,0,-1697,-4725,23,-347,-144,130
28,8673,13,-1696,-4726,23,-341,-150,131
29,8633,25,-1691,-4722,23,-340,-148,124
30,8641,2,-1719,-4719,23,-343,-158,142
31,8640,37,-1697,-4723,23,-338,-140,132
32,8618,-5,-1645,-4726,23,-348,-141,147
33,8671,-28,-1715,-4721,23,-343,-143,141
34,8643,30,-1732,-4718,23,-347,-144,126
35,8608,17,-1689,-4719,23,-330,-149,136
36,8641,-13,-1697,-4714,23,-341,-156,141
37,8630,10,-1668,-4713,23,-358,-164,133
38,8619,12,-1744,-4734,23,-346,-159,143
39,8608,-25,-1650,-4725,23,-345,-151,139
40,8673,-8,-1715,-4722,23,-355,-152,144
41,8624,-11,-1632,-4727,23,-332,-135,129
42,8601,4,-1717,-4723,23,-346,-151,126
43,8663,1,-1702,-4727,23,-354,-142,139
44,8678,8,-1681,-4728,23,-350,-141,142
45,8655,3,-1720,-4732,23,-358,-137,134
46,8659,1,-1694,-4725,23,-345,-153,135
47,8654,30,-1742,-4722,23,-356,-149,143
48,8628,32,-1736,-4717,23,-346,-154,151
49,8658,3,-1705,-4712,23,-354,-150,140
50,8632,-2,-1710,-4726,23,-340,-149,134
51,8661,21,-1693,-4722,23,-351,-157,133
52,8639,20,-1697,-4722,23,-350,-145,133
53,8636,24,-1692,-4723,23,-351,-153,128
54,8643,3,-1684,-4720,23,-341,-147,132
55,8640,-7,-1699,-4724,23,-339,-147,145
56,8622,2,-1695,-4710,23,-342,-163,133
57,8649,37,-1713,-4727,23,-331,-145,140
58,8626,26,-1684,-4728,23,-347,-139,147
59,8646,8,-1656,-4715,23,-350,-154,125
60,8647,-25,-1707,-4723,23,-346,-153,140
61,8641,-8,-1731,-4715,23,-337,-155,140
62,8640,17,-1711,-4726,23,-347,-146,129
63,8612,14,-1749,-4716,23,-340,-147,140
64,8612,4,-1700,-4723,23,-365,-163,139
65,8643,16,-1672,-4717,23,-339,-147,132
66,8634,9,-1751,-4717,23,-348,-147,141
67,8656,17,-1716,-4722,23,-340,-139,127
68,8642,34,-1739,-4721,23,-357,-143,141
69,8634,0,-1719,-4716,23,-335,-147,142
70,8645,13,-1665,-4723,23,-335,-137,149
71,8644,5,-1715,-4718,23,-343,-146,129
72,8657,-9,-1695,-4723,23,-345,-151,150
73,8655,-6,-1703,-4718,23,-343,-154,143
74,8615,1,-1681,-4711,23,-346,-156,141
75,8634,23,-1705,-4726,23,-347,-159,139
76,8630,24,-1739,-4720,23,-356,-136,145
77,8628,-1,-1704,-4719,23,-344,-143,141
78,8648,23,-1710,-4724,23,-337,-162,138
79,8656,0,-1713,-4716,23,-349,-143,143
80,8614,11,-1698,-4717,23,-342,-162,136
81,8631,-23,-1704,-4704,23,-345,-141,144
82,8648,12,-1692,-4718,23,-339,-143,144
83,8633,0,-1720,-4711,23,-329,-149,141
84,8618,-15,-1665,-4717,23,-359,-154,140
85,8654,31,-1680,-4729,23,-340,-150,149
86,8625,-28,-1708,-4718,23,-352,-159,131
87,8625,-22,-1661,-4714,23,-349,-145,126
88,8629,-6,-1702,-4719,23,-348,-157,140
89,8617,28,-1718,-4723,23,-342,-158,142
90,8665,13,-1710,-4726,23,-346,-157,138
91,8642,5,-1685,-4720,23,-333,-137,121
92,8623,43,-1696,-4706,23,-360,-161,140
93,8631,-20,-1739,-4721,23,-349,-141,148
94,8628,-4,-1687,-4725,23,-335,-144,141
95,8645,19,-1692,-4728,23,-351,-157,143
96,8669,11,-1701,-4720,23,-353,-153,139
97,8618,2,-1672,-4735,23,-350,-140,150
98,8652,11,-1713,-4717,23,-321,-152,148
99,8618,-5,-1734,-4722,23,-339,-149,148
100,8648,18,-1668,-4713,23,-345,-160,124
101,8641,23,-1706,-4719,23,-343,-138,143
102,8637,34,-1720,-4720,23,-354,-159,147
103,8661,-19,-1672,-4715,23,-350,-165,131
104,8630,-1,-1685,-4725,23,-336,-148,130
105,8628,20,-1717,-4718,23,-345,-143,139
106,8649,24,-1670,-4713,23,-352,-155,150
107,8616,7,-1697,-4727,23,-343,-150,138
108,8619,12,-1693,-4722,23,-350,-155,151
109,8647,0,-1652,-4723,23,-348,-142,140
110,8605,-6,-1681,-4714,23,-335,-148,153
111,8632,31,-1655,-4731,23,-346,-166,136
112,8635,-4,-1672,-4719,23,-356,-156,141
113,8624,23,-1665,-4730,23,-345,-144,141
114,8645,-18,-1713,-4721,23,-348,-135,138
115,8669,-15,-1714,-4732,23,-358,-153,138
116,8611,18,-1716,-4723,23,-339,-145,138
117,8655,6,-1673,-4719,23,-351,-147,140
118,8639,36,-1713,-4717,23,-342,-153,147
119,8649,-6,-1718,-4713,23,-341,-160,143
120,8658,12,-1695,-4723,23,-342,-144,135
121,8602,12,-1698,-4725,23,-352,-145,136
122,8607,3,-1705,-4714,23,-335,-161,139
123,8654,23,-1662,-4708,23,-333,-159,132
124,8633,-6,-1689,-4712,23,-341,-150,141
125,8675,3,-1664,-4728,23,-334,-154,143
126,8637,2,-1684,-4728,23,-347,-139,129
127,8654,-36,-1725,-4717,23,-345,-154,127
128,8636,36,-1692,-4718,23,-356,-166,129
129,8649,6,-1698,-4716,23,-344,-170,155
130,8634,14,-1727,-4713,23,-338,-133,153
131,8647,4,-1705,-4721,23,-348,-140,146
132,8622,7,-1678,-4716,23,-338,-155,143
133,8618,17,-1698,-4721,23,-352,-156,137
134,8630,32,-1685,-4721,23,-348,-143,132
135,8669,23,-1690,-4729,23,-352,-154,133
136,8662,-14,-1713,-4721,23,-352,-156,133
137,8626,1,-1698,-4713,23,-337,-155,138
138,8647,-15,-1702,-4727,23,-348,-158,138
139,8629,19,-1705,-4726,23,-334,-138,130
140,8631,-8,-1690,-4722,23,-338,-135,141
141,8667,-12,-1730,-4719,23,-360,-143,148
142,8609,13,-1690,-4719,23,-362,-151,144
143,8659,4,-1716,-4713,23,-350,-149,140
144,8620,14,-1719,-4724,23,-347,-147,142
145,8653,-16,-1684,-4718,23,-350,-153,146
146,8653,39,-1666,-4710,23,-341,-158,136
147,8651,13,-1719,-4716,23,-352,-161,132
148,8652,21,-1683,-4714,23,-354,-159,139
149,8625,-5,-1745,-4716,23,-344,-148,146
150,8610,6,-1701,-4723,23,-331,-143,119
151,8624,6,-1652,-4717,23,-337,-146,148
152,8643,39,-1688,-4726,23,-343,-138,155
153,8622,-24,-1726,-4713,23,-338,-142,134
154,8638,-28,-1685,-4717,23,-340,-144,140
155,8656,26,-1669,-4711,23,-338,-153,131
156,8610,1,-1722,-4714,23,-346,-156,130
157,8624,-18,-1688,-4730,23,-340,-142,147
158,8627,35,-1710,-4715,23,-351,-167,132
159,8659,3,-1681,-4719,23,-350,-142,135
160,8621,-5,-1656,-4707,23,-347,-149,147
161,8655,-8,-1703,-4715,23,-344,-153,142
162,8623,21,-1697,-4716,23,-345,-169,132
163,8648,-1,-1711,-4711,23,-340,-175,139
164,8668,4,-1698,-4717,23,-348,-140,143
165,8628,54,-1695,-4715,23,-353,-154,131
166,8646,23,-1706,-4707,23,-344,-150,153
167,8636,16,-1716,-4713,23,-333,-163,159
168,8638,-5,-1698,-4703,23,-345,-147,139
169,8650,-19,-1698,-4718,23,-339,-160,130
170,8622,-10,-1687,-4723,23,-334,-155,129
171,8648,44,-1685,-4726,23,-345,-146,137
172,8672,2,-1740,-4722,23,-365,-149,137
173,8655,17,-1735,-4717,23,-348,-142,145
174,8622,6,-1685,-4718,23,-351,-144,147
175,8641,6,-1734,-4732,23,-367,-150,139
176,8621,-2,-1674,-4724,23,-354,-161,136
177,8647,2,-1706,-4722,23,-347,-151,141
178,8622,2,-1673,-4714,23,-347,-150,138
179,8652,33,-1719,-4719,23,-340,-144,121
180,8655,-6,-1685,-4725,23,-362,-157,131
181,8639,12,-1656,-4724,23,-341,-134,138
182,8616,22,-1707,-4723,23,-335,-153,154
183,8641,47,-1720,-4721,23,-342,-144,140
184,8657,-4,-1672,-4719,23,-359,-151,138
185,8678,-1,-1701,-4723,23,-348,-149,141
186,8655,-2,-1700,-4725,23,-352,-163,134
187,8631,4,-1704,-4714,23,-328,-152,141
188,8626,-11,-1745,-4710,23,-345,-149,140
189,8649,3,-1724,-4714,23,-334,-153,137
190,8650,22,-1697,-4713,23,-341,-166,144
191,8641,-45,-1697,-4724,23,-340,-154,141
192,8641,-2,-1681,-4718,23,-359,-138,139
193,8636,11,-1680,-4712,23,-335,-162,140
194,8613,22,-1680,-4728,23,-348,-143,147
195,8606,19,-1683,-4721,23,-347,-148,148
196,8634,18,-1698,-4714,23,-342,-146,129
197,8635,-4,-1729,-4718,23,-330,-148,146
198,8620,-11,-1701,-4730,23,-346,-142,132
199,8612,-3,-1684,-4712,23,-350,-162,141
200,8669,-6,-1732,-4712,23,-353,-161,140
201,8643,-7,-1696,-4715,23,-348,-143,136
202,8612,-10,-1692,-4711,23,-345,-142,136
203,8641,3,-1734,-4718,23,-355,-161,127
204,8647,-4,-1740,-4721,23,-359,-151,143
205,8641,42,-1692,-4716,23,-352,-155,123
206,8628,-7,-1729,-4720,23,-350,-145,143
207,8642,-3,-1740,-4719,23,-344,-147,137
208,8628,-9,-1725,-4722,23,-339,-146,134
209,8629,-31,-1736,-4724,23,-354,-149,138
210,8626,10,-1731,-4714,23,-356,-140,129
211,8657,2,-1695,-4710,23,-345,-152,136
212,8651,12,-1713,-4715,23,-345,-148,136
213,8648,32,-1698,-4725,23,-350,-140,136
214,8629,-5,-1747,-4719,23,-335,-149,154
215,8643,5,-1685,-4709,23,-338,-157,139
216,8663,26,-1709,-4717,23,-339,-145,139
217,8633,7,-1709,-4722,23,-354,-139,146
218,8660,19,-1689,-4711,23,-336,-151,130
219,8656,2,-1674,-4718,23,-350,-145,129
220,8640,17,-1711,-4725,23,-361,-163,145
221,8635,16,-1717,-4718,23,-354,-163,151
222,8625,15,-1683,-4721,23,-342,-153,129
223,8629,-5,-1714,-4724,23,-346,-153,132
224,8645,-8,-1686,-4720,23,-343,-162,146
225,8653,26,-1736,-4711,23,-343,-148,134
226,8665,5,-1721,-4716,23,-349,-160,138
227,8634,17,-1690,-4722,23,-345,-147,145
228,8603,-2,-1695,-4719,23,-342,-149,142
229,8610,20,-1701,-4718,23,-337,-155,144
230,8625,-2,-1698,-4718,23,-343,-150,143
231,8617,-7,-1702,-4726,23,-351,-162,143
232,8634,0,-1729,-4717,23,-351,-147,140
233,8608,-2,-1714,-4726,23,-351,-148,141
234,8591,25,-1765,-4717,23,-352,-149,141
235,8616,15,-1712,-4727,23,-344,-148,131
236,8644,-25,-1677,-4716,23,-337,-147,134
237,8635,5,-1698,-4716,23,-341,-156,135
238,8622,-15,-1682,-4731,23,-346,-150,133
239,8641,9,-1702,-4723,23,-328,-159,135
240,8653,-2,-1711,-4720,23,-359,-150,130
241,8664,29,-1707,-4717,23,-337,-164,135
242,8619,10,-1731,-4712,23,-351,-162,131
243,8639,3,-1667,-4719,23,-354,-158,156
244,8654,-11,-1695,-4712,23,-343,-155,147
245,8634,28,-1716,-4723,23,-344,-147,150
246,8656,23,-1709,-4710,23,-357,-147,143
247,8654,-19,-1652,-4719,23,-355,-142,136
248,8608,-26,-1725,-4731,23,-341,-142,140
249,8671,19,-1674,-4723,23,-345,-169,149
250,8627,-16,-1726,-4728,23,-334,-149,142
251,8650,9,-1685,-4725,23,-338,-148,153
252,8616,-23,-1707,-4709,23,-334,-151,124
253,8655,1,-1737,-4711,23,-335,-154,156
254,8660,-7,-1669,-4727,23,-354,-152,149
255,8617,-15,-1695,-4724,23,-346,-140,139
256,8632,6,-1704,-4721,23,-346,-152,140
257,8615,17,-1702,-4727,23,-346,-163,134
258,8654,40,-1669,-4721,23,-329,-137,135
259,8622,15,-1727,-4717,23,-352,-150,145
260,8627,15,-1695,-4719,23,-347,-156,141
261,8625,11,-1701,-4720,23,-350,-147,134
262,8618,25,-1700,-4724,23,-337,-140,146
263,8630,1,-1708,-4718,23,-347,-151,138
264,8634,8,-1671,-4712,23,-350,-156,140
265,8617,-8,-1732,-4716,23,-332,-157,142
266,8625,27,-1698,-4720,23,-352,-154,126
267,8626,-31,-1673,-4718,23,-357,-148,136
268,8626,-6,-1717,-4706,23,-356,-149,153
269,8636,4,-1678,-4710,23,-346,-145,129
270,8679,-12,-1711,-4708,23,-347,-139,135
271,8651,11,-1717,-4702,23,-341,-156,135
272,8610,-16,-1700,-4724,23,-344,-147,125
273,8619,36,-1730,-4713,23,-365,-170,145
274,8649,4,-1684,-4712,23,-354,-136,134
275,8637,23,-1685,-4710,23,-352,-151,144
276,8637,20,-1707,-4717,23,-342,-156,141
277,8662,21,-1717,-4713,23,-346,-154,143
278,8618,13,-1705,-4719,23,-347,-136,127
279,8654,5,-1721,-4716,23,-361,-145,137
280,8636,26,-1716,-4719,23,-354,-168,135
281,8656,19,-1736,-4728,23,-336,-151,138
282,8645,29,-1726,-4717,23,-355,-153,136
283,8663,12,-1691,-4717,23,-349,-149,135
284,8645,0,-1668,-4726,23,-346,-148,149
285,8662,6,-1683,-4725,23,-353,-141,137
286,8643,34,-1683,-4721,23,-339,-141,137
287,8638,19,-1677,-4708,23,-357,-153,139
288,8649,-27,-1698,-4728,23,-323,-147,133
289,8626,-6,-1708,-4725,23,-352,-145,139
290,8626,3,-1727,-4723,23,-352,-164,153
291,8628,-5,-1678,-4719,23,-361,-162,136
292,8616,-14,-1697,-4721,23,-336,-162,127
293,8647,-11,-1689,-4714,23,-340,-156,137
294,8639,7,-1651,-4716,23,-340,-147,135
295,8657,22,-1673,-4715,23,-339,-143,133
296,8646,5,-1692,-4718,23,-333,-156,139
297,8653,1,-1711,-4717,23,-348,-170,132
298,8642,-14,-1692,-4714,23,-336,-150,140
299,8651,-10,-1669,-4711,23,-346,-159,125
300,8646,-3,-1706,-4725,23,-337,-142,140
301,8649,14,-1700,-4715,23,-361,-148,132
302,8649,1,-1706,-4716,23,-348,-142,140
303,8634,-43,-1691,-4710,23,-338,-159,133
304,8649,-3,-1734,-4726,23,-345,-152,122
305,8622,21,-1704,-4710,23,-350,-154,146
306,8656,11,-1722,-4719,23,-340,-165,127
307,8636,-17,-1727,-4729,23,-337,-152,139
308,8644,3,-1745,-4710,23,-338,-139,131
309,8602,26,-1712,-4712,23,-357,-149,143
310,8630,31,-1721,-4704,23,-357,-154,142
311,8675,13,-1723,-4718,23,-334,-138,145
312,8650,1,-1729,-4719,23,-352,-146,135
313,8648,23,-1674,-4708,23,-352,-158,132
314,8643,-2,-1686,-4710,23,-332,-156,138
315,8597,1,-1708,-4714,23,-372,-142,134
316,8614,10,-1644,-4713,23,-329,-139,136
317,8667,7,-1736,-4720,23,-346,-159,131
318,8624,7,-1705,-4719,23,-332,-162,144
319,8651,12,-1688,-4719,23,-360,-154,134
320,8661,-6,-1690,-4722,23,-346,-156,138
321,8635,-10,-1746,-4727,23,-352,-158,126
322,8626,27,-1696,-4718,23,-343,-147,132
323,8638,18,-1694,-4724,23,-338,-144,146
324,8643,15,-1755,-4724,23,-336,-165,143
325,8651,-14,-1698,-4719,23,-337,-150,133
326,8669,-1,-1705,-4722,23,-343,-142,147
327,8616,-17,-1739,-4721,23,-340,-144,130
328,8657,17,-1742,-4713,23,-349,-140,134
329,8643,1,-1696,-4703,23,-344,-158,132
330,8633,-5,-1716,-4716,23,-328,-158,139
331,8659,26,-1707,-4713,23,-347,-141,151
332,8664,-20,-1712,-4717,23,-348,-162,135
333,8609,35,-1713,-4707,23,-351,-155,151
334,8606,41,-1737,-4719,23,-350,-139,130
335,8648,0,-1718,-4716,23,-351,-147,133
336,8631,10,-1729,-4709,23,-359,-157,125
337,8652,-4,-1729,-4724,23,-341,-141,133
338,8633,5,-1717,-4716,23,-340,-147,133
339,8630,-21,-1721,-4707,23,-342,-159,140
340,8623,-15,-1692,-4714,23,-340,-138,148
341,8621,25,-1692,-4713,23,-346,-137,139
342,8637,4,-1693,-4720,23,-337,-166,136
343,8605,8,-1730,-4717,23,-333,-157,145
344,8658,-5,-1654,-4716,23,-350,-142,132
345,8606,14,-1676,-4715,23,-340,-166,139
346,8645,21,-1659,-4719,23,-358,-149,144
347,8635,-9,-1674,-4719,23,-355,-148,132
348,8614,5,-1712,-4727,23,-349,-156,148
349,8627,-5,-1672,-4722,23,-353,-152,137
350,8654,14,-1706,-4719,23,-341,-163,140
351,8632,15,-1665,-4706,23,-336,-144,136
352,8662,-1,-1658,-4721,23,-347,-155,136
353,8645,10,-1684,-4720,23,-343,-161,134
354,8640,35,-1684,-4715,23,-340,-158,141
355,8629,-8,-1708,-4720,23,-334,-151,137
356,8650,8,-1729,-4715,23,-355,-155,144
357,8623,-26,-1726,-4713,23,-336,-141,135
358,8679,25,-1711,-4727,23,-338,-151,134
359,8639,10,-1674,-4714,23,-342,-155,138
360,8599,15,-1688,-4716,23,-340,-134,142
361,8643,7,-1707,-4726,23,-351,-150,146
362,8603,-6,-1677,-4716,23,-340,-158,129
363,8649,-1,-1703,-4727,23,-339,-146,132
364,8642,2,-1708,-4726,23,-335,-158,140
365,8642,4,-1695,-4716,23,-349,-158,136
366,8658,-6,-1710,-4712,23,-333,-158,130
367,8670,1,-1715,-4710,23,-337,-145,136
368,8652,5,-1691,-4713,23,-347,-153,152
369,8640,35,-1707,-4715,23,-345,-153,146
370,8645,-17,-1719,-4708,23,-339,-138,126
371,8657,-17,-1730,-4712,23,-348,-148,142
372,8625,6,-1719,-4706,23,-343,-146,141
373,8653,-38,-1667,-4721,23,-349,-154,130
374,8634,-11,-1660,-4712,23,-354,-154,141
375,8638,17,-1692,-4713,23,-354,-140,138
376,8618,11,-1660,-4718,23,-363,-165,145
377,8641,-20,-1680,-4723,23,-343,-156,138
378,8650,-37,-1701,-4714,23,-348,-149,136
379,8674,6,-1682,-4719,23,-360,-139,144
380,8633,26,-1711,-4717,23,-346,-148,143
381,8644,-8,-1729,-4704,23,-345,-155,141
382,8654,-3,-1695,-4718,23,-329,-146,144
383,8646,15,-1738,-4714,23,-341,-154,137
384,8636,34,-1690,-4717,23,-342,-148,130
385,8644,-23,-1709,-4710,23,-348,-151,140
386,8642,13,-1670,-4713,23,-352,-162,131
387,8667,3,-1744,-4708,23,-358,-147,142
388,8644,34,-1669,-4713,23,-366,-145,142
389,8622,15,-1719,-4715,23,-355,-153,128
390,8626,9,-1678,-4721,23,-348,-161,140
391,8622,-1,-1709,-4726,23,-347,-150,148
392,8659,16,-1732,-4720,23,-341,-137,137
393,8652,22,-1684,-4715,23,-353,-151,137
394,8636,-20,-1697,-4721,23,-338,-158,141
395,8632,3,-1643,-4715,23,-343,-147,147
396,8630,-2,-1718,-4719,23,-343,-158,140
397,8620,21,-1692,-4709,23,-339,-165,125
398,8650,27,-1727,-4717,23,-344,-154,140
399,8640,22,-1697,-4719,23,-343,-168,138
400,8646,3,-1649,-4717,23,-353,-133,149
401,8647,-2,-1713,-4711,23,-336,-150,140
402,8656,33,-1692,-4713,23,-335,-135,149
403,8629,18,-1686,-4721,23,-347,-155,133
404,8657,5,-1688,-4723,23,-338,-155,141
405,8630,0,-1701,-4700,23,-354,-150,149
406,8641,-5,-1701,-4716,23,-343,-144,132
407,8659,-14,-1668,-4717,23,-336,-161,145
408,8662,15,-1696,-4707,23,-354,-135,130
409,8638,-14,-1784,-4711,23,-347,-157,149
410,8651,13,-1691,-4713,23,-326,-171,134
411,8624,-4,-1723,-4714,23,-351,-146,144
412,8614,-38,-1629,-4723,23,-346,-143,136
413,8655,7,-1744,-4711,23,-358,-165,134
414,8645,5,-1686,-4715,23,-345,-150,139
415,8632,-35,-1730,-4705,23,-351,-146,127
416,8617,9,-1704,-4717,23,-336,-142,144
417,8665,-20,-1679,-4717,23,-341,-151,136
418,8619,-23,-1678,-4705,23,-344,-151,134
419,8629,32,-1688,-4710,23,-337,-141,140
420,8669,-7,-1726,-4719,23,-347,-156,129
421,8630,6,-1732,-4716,23,-346,-155,132
422,8659,26,-1694,-4717,23,-346,-158,145
423,8669,-12,-1697,-4706,23,-339,-145,139
424,8637,26,-1711,-4724,23,-345,-136,142
425,8665,-23,-1717,-4721,23,-345,-159,136
426,8594,38,-1699,-4704,23,-329,-157,144
427,8653,18,-1721,-4716,23,-349,-150,143
428,8617,0,-1667,-4707,23,-346,-153,128
429,8611,0,-1708,-4709,23,-357,-157,144
430,8634,-13,-1721,-4720,23,-337,-127,145
431,8653,6,-1732,-4713,23,-341,-156,144
432,8647,4,-1698,-4720,23,-342,-159,146
433,8656,26,-1702,-4716,23,-345,-146,137
434,8639,1,-1706,-4718,23,-358,-142,125
435,8656,17,-1665,-4715,23,-342,-157,133
436,8621,21,-1682,-4711,23,-339,-156,132
437,8660,21,-1670,-4712,23,-342,-147,125
438,8632,-12,-1662,-4700,23,-357,-146,134
439,8630,-4,-1676,-4711,23,-347,-151,144
440,8642,25,-1687,-4704,23,-332,-159,148
441,8619,37,-1662,-4707,23,-348,-143,140
442,8624,12,-1728,-4711,23,-349,-150,143
443,8624,7,-1657,-4712,23,-342,-162,143
444,8614,13,-1724,-4714,23,-335,-151,140
445,8662,7,-1676,-4715,23,-349,-148,137
446,8636,4,-1745,-4725,23,-345,-157,144
447,8613,-11,-1704,-4717,23,-355,-156,148
448,8633,30,-1735,-4717,23,-354,-155,128
449,8630,-3,-1703,-4721,23,-342,-143,132
450,8649,9,-1704,-4714,23,-345,-138,132
451,8611,2,-1752,-4717,23,-349,-151,138
452,8641,-5,-1724,-4714,23,-337,-152,141
453,8615,9,-1721,-4718,23,-341,-166,137
454,8665,-4,-1722,-4716,23,-343,-146,144
455,8626,0,-1685,-4720,23,-342,-141,144
456,8620,-5,-1718,-4699,23,-346,-159,147
457,8658,-2,-1745,-4716,23,-344,-147,137
458,8609,26,-1664,-4720,23,-360,-156,142
459,8619,22,-1716,-4720,23,-351,-161,136
460,8626,19,-1702,-4714,23,-334,-147,144
461,8644,-29,-1693,-4723,23,-337,-154,139
462,8659,4,-1717,-4723,23,-347,-146,145
463,8656,36,-1747,-4711,23,-351,-152,131
464,8618,-1,-1686,-4702,23,-354,-141,135
465,8682,-11,-1714,-4711,23,-353,-141,142
466,8649,-6,-1746,-4713,23,-349,-156,140
467,8623,-7,-1685,-4713,23,-354,-157,148
468,8647,31,-1702,-4716,23,-347,-172,147
469,8634,-17,-1660,-4699,23,-336,-157,120
470,8667,7,-1725,-4708,23,-330,-151,145
471,8644,43,-1695,-4718,23,-336,-140,140
472,8659,3,-1731,-4721,23,-339,-151,142
473,8642,-18,-1700,-4718,23,-343,-150,134
474,8620,9,-1718,-4714,23,-349,-174,140
475,8632,0,-1705,-4707,23,-354,-144,130
476,8633,7,-1679,-4718,23,-346,-155,131
477,8625,-23,-1736,-4715,23,-337,-144,138
478,8645,37,-1711,-4710,23,-321,-163,142
479,8623,-20,-1676,-4717,23,-337,-153,145
480,8608,12,-1690,-4722,23,-353,-142,141
481,8631,15,-1681,-4705,23,-342,-154,131
482,8629,-30,-1694,-4712,23,-327,-149,130
483,8635,-11,-1694,-4707,23,-349,-155,120
484,8630,3,-1706,-4721,23,-343,-169,139
485,8634,-4,-1674,-4714,23,-346,-170,145
486,8640,7,-1708,-4717,23,-361,-149,145
487,8643,-22,-1691,-4717,23,-351,-146,152
488,8636,-25,-1718,-4725,23,-355,-140,147
489,8642,-24,-1710,-4716,23,-332,-138,134
490,8659,-10,-1687,-4722,23,-350,-157,137
491,8641,8,-1681,-4710,23,-363,-162,130
492,8651,-28,-1710,-4710,23,-331,-145,145
493,8650,-2,-1644,-4724,23,-342,-148,136
494,8591,20,-1744,-4716,23,-352,-147,139
495,8675,11,-1721,-4716,23,-345,-149,154
496,8642,-6,-1720,-4710,23,-350,-158,146
497,8655,-5,-1692,-4719,23,-347,-146,134
498,8627,24,-1634,-4713,23,-341,-159,135
499,8640,-12,-1715,-4723,23,-354,-136,140
500,8648,16,-1662,-4713,23,-344,-144,152
501,8626,2,-1712,-4717,23,-349,-139,145
502,8598,-8,-1721,-4721,23,-345,-141,144
503,8653,-4,-1704,-4714,23,-354,-151,131
504,8671,4,-1713,-4719,23,-351,-159,151
505,8642,0,-1688,-4716,23,-348,-151,147
506,8623,-14,-1717,-4716,23,-361,-167,149
507,8593,13,-1709,-4717,23,-353,-144,133
508,8629,38,-1692,-4705,23,-350,-139,127
509,8622,5,-1708,-4719,23,-351,-153,133
510,8624,-6,-1670,-4710,23,-334,-139,151
511,8628,14,-1709,-4718,23,-346,-151,148
512,8586,18,-1691,-4718,23,-349,-145,135
513,8648,16,-1710,-4716,23,-355,-147,146
514,8640,4,-1736,-4717,23,-346,-138,132
515,8656,20,-1700,-4708,23,-343,-151,137
516,8633,49,-1680,-4707,23,-335,-152,147
517,8650,-7,-1701,-4719,23,-336,-144,144
518,8607,-4,-1649,-4716,23,-345,-153,134
519,8636,15,-1705,-4715,23,-335,-146,150
520,8643,20,-1661,-4723,23,-333,-142,128
521,8654,11,-1693,-4712,23,-350,-154,149
522,8637,22,-1710,-4710,23,-340,-142,157
523,8618,20,-1689,-4718,23,-340,-160,134
524,8640,18,-1715,-4713,23,-339,-138,143
525,8623,9,-1714,-4715,23,-352,-166,143
526,8641,2,-1710,-4714,23,-337,-136,137
527,8611,-26,-1703,-4711,23,-351,-166,136
528,8650,-5,-1684,-4714,23,-357,-155,138
529,8640,28,-1732,-4715,23,-340,-156,133
530,8632,-25,-1734,-4710,23,-350,-155,144
531,8654,7,-1703,-4709,23,-343,-151,127
532,8636,0,-1738,-4717,23,-345,-149,135
533,8649,17,-1693,-4726,23,-343,-148,132
534,8631,18,-1717,-4716,23,-334,-153,144
535,8642,17,-1678,-4714,23,-342,-158,136
536,8627,21,-1718,-4717,23,-347,-152,139
537,8650,0,-1745,-4717,23,-328,-150,146
538,8660,18,-1725,-4720,23,-341,-141,135
539,8622,27,-1691,-4714,23,-343,-145,142
540,8651,13,-1690,-4705,23,-361,-162,145
541,8647,27,-1704,-4710,23,-353,-141,152
542,8652,-5,-1734,-4714,23,-342,-155,127
543,8639,17,-1677,-4709,23,-345,-147,145
544,8618,-30,-1671,-4705,23,-344,-155,131
545,8660,15,-1705,-4708,23,-342,-151,135
546,8628,-2,-1671,-4717,23,-353,-157,138
547,8623,12,-1675,-4719,23,-348,-145,145
548,8646,1,-1669,-4717,23,-343,-144,135
549,8644,-1,-1739,-4714,23,-345,-153,136
550,8619,-3,-1701,-4714,23,-353,-149,131
551,8667,24,-1729,-4705,23,-363,-143,143
552,8618,14,-1676,-4707,23,-339,-149,135
553,8664,-33,-1719,-4713,23,-348,-154,132
554,8604,0,-1702,-4715,23,-350,-159,141
555,8630,11,-1723,-4704,23,-350,-147,138
556,8656,1,-1682,-4706,23,-336,-153,148
557,8639,9,-1725,-4714,23,-361,-156,140
558,8674,4,-1695,-4716,23,-340,-153,145
559,8664,-4,-1678,-4712,23,-348,-151,131
560,8649,12,-1687,-4715,23,-342,-152,136
561,8638,44,-1695,-4703,23,-343,-151,138
562,8653,-15,-1693,-4712,23,-332,-169,134
563,8626,12,-1707,-4707,23,-351,-154,134
564,8642,19,-1663,-4716,23,-353,-157,141
565,8640,-10,-1694,-4723,23,-333,-148,149
566,8629,-10,-1715,-4715,23,-344,-142,148
567,8648,18,-1746,-4712,23,-341,-158,124
568,8636,13,-1652,-4707,23,-338,-146,133
569,8600,12,-1713,-4706,23,-352,-142,144
570,8639,10,-1725,-4713,23,-353,-165,138
571,8621,23,-1736,-4716,23,-350,-150,135
572,8647,42,-1697,-4702,23,-346,-159,154
573,8633,-32,-1681,-4712,23,-353,-153,127
574,8640,-16,-1737,-4718,23,-349,-146,137
575,8652,-11,-1705,-4726,23,-350,-147,140
576,8649,-3,-1719,-4715,23,-337,-145,132
577,8671,2,-1725,-4710,23,-329,-145,135
578,8630,-4,-1699,-4711,23,-345,-161,139
579,8654,-9,-1707,-4711,23,-339,-148,146
580,8685,1,-1676,-4710,23,-339,-140,141
581,8640,17,-1760,-4715,23,-345,-155,138
582,8624,-12,-1708,-4717,23,-348,-151,130
583,8632,16,-1752,-4723,23,-339,-156,138
584,8668,21,-1722,-4725,23,-342,-148,124
585,8658,13,-1701,-4720,23,-343,-150,139
586,8629,22,-1681,-4707,23,-356,-142,147
587,8646,20,-1698,-4713,23,-358,-149,142
588,8678,-5,-1695,-4708,23,-340,-153,129
589,8662,3,-1752,-4703,23,-356,-153,147
590,8637,33,-1683,-4712,23,-326,-148,134
591,8602,-10,-1739,-4705,23,-339,-140,148
592,8659,10,-1663,-4716,23,-335,-164,157
593,8633,-23,-1708,-4702,23,-356,-142,135
594,8669,-10,-1716,-4715,23,-350,-147,142
595,8655,13,-1718,-4712,23,-346,-148,148
596,8615,-34,-1711,-4718,23,-342,-157,139
597,8627,-11,-1701,-4717,23,-337,-144,137
598,8640,21,-1693,-4708,23,-352,-137,140
599,8611,18,-1713,-4705,23,-337,-166,142
600,8633,0,-1708,-4716,23,-349,-135,144
601,8634,-17,-1699,-4722,23,-338,-163,134
602,8629,9,-1721,-4715,23,-342,-158,138
603,8626,0,-1660,-4713,23,-351,-142,147
604,8633,13,-1703,-4717,23,-356,-156,146
605,8635,-6,-1748,-4708,23,-338,-143,145
606,8654,42,-1672,-4709,23,-354,-145,141
607,8658,6,-1690,-4709,23,-352,-138,136
608,8652,3,-1652,-4722,23,-349,-160,144
609,8616,-14,-1775,-4710,23,-344,-157,145
610,8649,30,-1663,-4717,23,-343,-174,131
611,8653,3,-1700,-4710,23,-348,-136,124
612,8637,-4,-1684,-4705,23,-363,-152,141
613,8655,8,-1734,-4709,23,-340,-143,129
614,8626,-49,-1700,-4708,23,-353,-158,142
615,8620,1,-1692,-4711,23,-339,-156,132
616,8686,7,-1701,-4703,23,-342,-154,141
617,8643,-7,-1726,-4705,23,-344,-152,129
618,8659,-2,-1709,-4707,23,-349,-155,135
619,8637,5,-1718,-4704,23,-349,-151,147
620,8648,7,-1660,-4708,23,-339,-151,133
621,8655,36,-1729,-4702,23,-350,-145,134
622,8642,-18,-1702,-4706,23,-342,-143,159
623,8657,-4,-1701,-4716,23,-335,-143,136
624,8628,-39,-1642,-4710,23,-345,-146,141
625,8672,-3,-1732,-4707,23,-345,-149,148
626,8632,-8,-1729,-4707,23,-343,-136,136
627,8621,-7,-1685,-4706,23,-350,-140,137
628,8646,3,-1698,-4712,23,-352,-147,138
629,8683,5,-1689,-4709,23,-357,-155,138
630,8647,11,-1677,-4700,23,-346,-152,145
631,8619,-17,-1712,-4711,23,-351,-165,148
632,8591,14,-1688,-4715,23,-341,-144,130
633,8641,-21,-1699,-4713,23,-343,-148,143
634,8631,33,-1693,-4707,23,-342,-139,132
635,8661,20,-1681,-4717,23,-334,-166,138
636,8643,-22,-1704,-4722,23,-346,-163,149
637,8627,3,-1699,-4708,23,-346,-139,135
638,8641,-5,-1723,-4713,23,-354,-142,150
639,8613,-12,-1674,-4707,23,-359,-149,134
640,8635,11,-1734,-4708,23,-344,-157,126
641,8632,-6,-1682,-4722,23,-344,-148,141
642,8633,-17,-1683,-4702,23,-344,-144,143
643,8637,-12,-1703,-4709,23,-352,-159,144
644,8652,4,-1665,-4709,23,-354,-147,140
645,8638,16,-1686,-4703,23,-349,-161,147
646,8601,20,-1647,-4714,23,-353,-137,150
647,8646,37,-1694,-4711,23,-335,-145,142
648,8666,-18,-1736,-4716,23,-345,-134,142
649,8634,14,-1715,-4709,23,-343,-150,128
650,8635,14,-1682,-4711,23,-336,-146,143
651,8655,5,-1674,-4719,23,-343,-161,148
652,8625,43,-1698,-4712,23,-347,-146,136
653,8648,5,-1721,-4716,23,-357,-152,138
654,8646,45,-1696,-4710,23,-343,-143,138
655,8637,24,-1726,-4703,23,-348,-155,153
656,8634,-9,-1744,-4707,23,-337,-166,136
657,8641,7,-1701,-4705,23,-346,-146,145
658,8628,39,-1702,-4706,23,-344,-154,139
659,8635,13,-1736,-4712,23,-342,-148,134
660,8649,-12,-1743,-4705,23,-339,-135,147
661,8648,-10,-1760,-4712,23,-355,-141,137
662,8627,-9,-1685,-4712,23,-351,-155,130
663,8657,12,-1708,-4717,23,-349,-139,136
664,8641,-10,-1696,-4712,23,-341,-137,138
665,8662,29,-1709,-4709,23,-344,-160,134
666,8641,-3,-1695,-4710,23,-340,-152,137
667,8633,12,-1755,-4704,23,-360,-146,138
668,8609,4,-1711,-4712,23,-338,-143,149
669,8633,16,-1713,-4702,23,-350,-137,133
670,8636,-10,-1676,-4714,23,-338,-148,136
671,8641,4,-1684,-4717,23,-352,-146,139
672,8653,31,-1654,-4713,23,-345,-149,146
673,8638,11,-1691,-4710,23,-347,-151,126
674,8651,6,-1709,-4704,23,-342,-163,150
675,8646,44,-1721,-4701,23,-347,-149,128
676,8662,-3,-1693,-4697,23,-350,-136,146
677,8607,-2,-1682,-4711,23,-358,-148,132
678,8651,32,-1704,-4712,23,-341,-143,132
679,8657,3,-1669,-4706,23,-345,-157,144
680,8637,9,-1693,-4710,23,-356,-153,142
681,8650,11,-1681,-4701,23,-350,-143,139
682,8645,1,-1706,-4706,23,-345,-147,127
683,8660,8,-1710,-4714,23,-347,-151,145
684,8639,3,-1687,-4711,23,-347,-139,149
685,8652,3,-1681,-4713,23,-339,-139,134
686,8641,-2,-1719,-4703,23,-341,-152,143
687,8622,-8,-1700,-4701,23,-343,-143,135
688,8626,1,-1662,-4708,23,-354,-151,137
689,8656,-4,-1668,-4705,23,-340,-135,135
690,8641,15,-1659,-4711,23,-351,-148,150
691,8655,-12,-1664,-4702,23,-353,-160,124
692,8608,19,-1690,-4702,23,-349,-148,133
693,8642,-6,-1689,-4709,23,-347,-148,142
694,8667,12,-1715,-4704,23,-344,-149,141
695,8621,1,-1666,-4708,23,-338,-159,144
696,8640,15,-1717,-4703,23,-352,-147,141
697,8647,36,-1673,-4705,23,-345,-155,130
698,8634,19,-1694,-4702,23,-337,-157,134
699,8638,1,-1708,-4700,23,-352,-149,140
700,8645,2,-1681,-4711,23,-360,-166,139
701,8638,1,-1701,-4711,23,-349,-150,138
702,8637,-19,-1666,-4709,23,-344,-162,132
703,8655,2,-1687,-4708,23,-353,-137,161
704,8623,27,-1720,-4709,23,-358,-165,136
705,8626,-24,-1738,-4708,23,-355,-144,146
706,8629,-7,-1729,-4709,23,-350,-149,132
707,8617,4,-1767,-4714,23,-356,-157,134
708,8642,23,-1702,-4706,23,-354,-143,136
709,8652,5,-1718,-4703,23,-345,-147,149
710,8627,-14,-1695,-4717,23,-334,-168,145
711,8652,-6,-1702,-4712,23,-346,-133,131
712,8645,-8,-1725,-4717,23,-334,-147,135
713,8635,-13,-1663,-4707,23,-342,-150,141
714,8663,-7,-1679,-4697,23,-347,-144,138
715,8633,-14,-1689,-4705,23,-344,-150,145
716,8609,15,-1696,-4716,23,-344,-158,140
717,8664,-7,-1735,-4705,23,-344,-155,152
718,8588,0,-1703,-4716,23,-342,-156,140
719,8644,0,-1713,-4703,23,-330,-155,136
720,8620,-9,-1722,-4713,23,-355,-142,132
721,8637,-20,-1672,-4703,23,-354,-159,154
722,8639,-8,-1688,-4702,23,-338,-134,134
723,8632,16,-1675,-4699,23,-348,-145,143
724,8618,-3,-1693,-4711,23,-355,-146,148
725,8626,-26,-1715,-4710,23,-341,-144,143
726,8654,3,-1711,-4702,23,-343,-145,146
727,8612,8,-1708,-4718,23,-358,-150,142
728,8636,1,-1702,-4710,23,-353,-153,132
729,8635,21,-1707,-4705,23,-348,-141,131
730,8652,20,-1688,-4708,23,-347,-157,143
731,8638,2,-1728,-4711,23,-363,-146,143
732,8649,34,-1710,-4704,23,-353,-162,132
733,8636,-18,-1691,-4697,23,-348,-152,148
734,8675,-19,-1745,-4710,23,-337,-157,147
735,8662,3,-1713,-4706,23,-348,-131,137
736,8656,-2,-1711,-4710,23,-341,-140,142
737,8622,-5,-1668,-4711,23,-350,-148,142
738,8633,-25,-1746,-4711,23,-349,-149,156
739,8638,-5,-1659,-4708,23,-346,-143,129
740,8644,-5,-1697,-4721,23,-336,-147,134
741,8632,-11,-1729,-4708,23,-356,-159,143
742,8654,-9,-1691,-4708,23,-345,-144,128
743,8636,0,-1711,-4700,23,-347,-147,140
744,8635,13,-1718,-4708,23,-358,-138,139
745,8608,12,-1651,-4699,23,-339,-154,146
746,8627,4,-1661,-4721,23,-359,-156,135
747,8631,18,-1694,-4709,23,-337,-164,134
748,8639,5,-1705,-4716,23,-339,-151,138
749,8621,33,-1681,-4713,23,-354,-166,142
750,8645,-29,-1676,-4712,23,-335,-143,145
751,8657,-11,-1713,-4705,23,-359,-150,143
752,8636,-17,-1706,-4713,23,-348,-127,136
753,8668,8,-1685,-4706,23,-350,-141,135
754,8636,8,-1677,-4719,23,-344,-142,142
755,8632,-17,-1703,-4712,23,-343,-149,136
756,8637,-1,-1679,-4715,23,-343,-161,143
757,8618,-2,-1685,-4704,23,-351,-151,142
758,8650,-13,-1734,-4700,23,-345,-145,146
759,8623,14,-1681,-4711,23,-341,-141,146
760,8632,-8,-1695,-4699,23,-345,-146,144
761,8648,4,-1713,-4703,23,-346,-144,137
762,8648,-20,-1705,-4704,23,-345,-148,135
763,8659,21,-1638,-4715,23,-335,-148,135
764,8646,6,-1743,-4706,23,-343,-145,140
765,8649,-6,-1669,-4714,23,-347,-156,133
766,8625,20,-1722,-4712,23,-347,-151,144
767,8649,13,-1717,-4700,23,-347,-158,138
768,8657,-16,-1695,-4702,23,-336,-164,138
769,8634,-1,-1720,-4705,23,-356,-141,139
770,8642,10,-1732,-4708,23,-347,-140,132
771,8667,19,-1709,-4708,23,-341,-144,137
772,8645,13,-1693,-4707,23,-349,-142,128
773,8624,20,-1721,-4699,23,-351,-154,130
774,8643,1,-1708,-4730,23,-343,-145,141
775,8624,46,-1685,-4713,23,-348,-140,133
776,8655,5,-1678,-4702,23,-348,-148,131
777,8633,-7,-1700,-4715,23,-345,-150,149
778,8663,5,-1625,-4706,23,-357,-153,139
779,8607,4,-1706,-4714,23,-342,-152,136
780,8625,7,-1698,-4723,23,-346,-153,137
781,8631,-1,-1704,-4712,23,-348,-153,137
782,8634,-13,-1681,-4701,23,-356,-143,134
783,8619,16,-1705,-4699,23,-344,-165,134
784,8657,-16,-1696,-4714,23,-347,-148,132
785,8639,-2,-1686,-4700,23,-343,-146,145
786,8650,19,-1680,-4709,23,-337,-152,135
787,8673,-22,-1682,-4697,23,-341,-141,143
788,8646,16,-1679,-4703,23,-345,-143,136
789,8616,8,-1762,-4701,23,-350,-149,141
790,8622,8,-1770,-4704,23,-348,-145,130
791,8640,12,-1722,-4701,23,-354,-156,139
792,8641,19,-1732,-4709,23,-336,-165,137
793,8649,-26,-1677,-4704,23,-353,-145,155
794,8654,35,-1677,-4692,23,-344,-153,137
795,8651,26,-1739,-4708,23,-340,-147,142
796,8631,25,-1704,-4711,23,-339,-165,141
797,8653,36,-1684,-4697,23,-354,-153,143
798,8643,-21,-1719,-4704,23,-344,-136,134
799,8624,-2,-1764,-4708,23,-339,-151,127
800,8638,-9,-1702,-4711,23,-344,-139,130
801,8618,40,-1712,-4705,23,-347,-155,136
802,8652,17,-1692,-4700,23,-349,-145,144
803,8631,26,-1680,-4700,23,-358,-139,131
804,8653,1,-1677,-4703,23,-341,-146,145
805,8660,-17,-1667,-4706,23,-345,-152,145
806,8660,-22,-1721,-4701,23,-352,-140,136
807,8618,8,-1725,-4710,23,-354,-148,135
808,8619,-10,-1699,-4704,23,-331,-158,154
809,8620,0,-1679,-4708,23,-355,-149,137
810,8635,-11,-1714,-4707,23,-333,-146,142
811,8651,-9,-1724,-4700,23,-341,-142,134
812,8618,10,-1683,-4713,23,-342,-154,140
813,8641,-16,-1716,-4703,23,-335,-146,148
814,8651,12,-1653,-4704,23,-340,-144,145
815,8617,1,-1701,-4700,23,-347,-145,142
816,8609,1,-1701,-4708,23,-337,-166,138
817,8622,-6,-1689,-4701,23,-339,-150,135
818,8651,-12,-1668,-4697,23,-342,-141,145
819,8612,38,-1717,-4712,23,-346,-153,132
820,8661,18,-1690,-4698,23,-359,-164,144
821,8619,-18,-1679,-4710,23,-362,-155,152
822,8640,18,-1734,-4704,23,-334,-147,141
823,8651,22,-1698,-4704,23,-341,-155,133
824,8643,11,-1703,-4697,23,-340,-144,140
825,8621,2,-1675,-4698,23,-349,-147,135
826,8679,13,-1696,-4711,23,-345,-161,144
827,8646,-15,-1684,-4700,23,-348,-148,143
828,8615,2,-1667,-4703,23,-340,-161,144
829,8625,17,-1702,-4701,23,-349,-150,130
830,8626,8,-1723,-4707,23,-355,-152,126
831,8657,20,-1702,-4698,23,-338,-139,146
832,8648,31,-1689,-4710,23,-356,-149,146
833,8609,-31,-1666,-4695,23,-353,-152,128
834,8619,25,-1725,-4717,23,-345,-149,144
835,8623,-3,-1694,-4701,23,-347,-143,137
836,8626,-6,-1729,-4707,23,-347,-154,134
837,8642,-1,-1696,-4700,23,-345,-150,141
838,8660,-17,-1676,-4700,23,-334,-138,150
839,8639,6,-1660,-4695,23,-344,-150,134
840,8636,33,-1724,-4705,23,-351,-149,151
841,8642,-8,-1646,-4705,23,-342,-144,146
842,8628,-16,-1726,-4708,23,-343,-153,137
843,8641,8,-1669,-4713,23,-335,-133,140
844,8610,18,-1712,-4698,23,-346,-148,146
845,8631,-4,-1692,-4715,23,-345,-148,138
846,8644,5,-1666,-4706,23,-343,-153,146
847,8652,-10,-1702,-4700,23,-358,-141,139
848,8646,7,-1696,-4699,23,-338,-148,143
849,8626,-20,-1673,-4698,23,-343,-157,131
850,8632,17,-1697,-4703,23,-352,-152,135
851,8630,26,-1746,-4707,23,-366,-154,137
852,8642,-15,-1719,-4692,23,-336,-158,141
853,8663,4,-1702,-4708,23,-344,-168,141
854,8630,-12,-1740,-4704,23,-341,-149,146
855,8677,5,-1656,-4705,23,-353,-161,141
856,8631,-17,-1709,-4694,23,-352,-140,124
857,8660,33,-1675,-4709,23,-348,-142,134
858,8623,2,-1657,-4691,23,-344,-137,125
859,8624,3,-1723,-4708,23,-346,-147,136
860,8641,-24,-1690,-4705,23,-342,-156,133
861,8597,9,-1695,-4707,23,-343,-158,150
862,8663,19,-1699,-4703,23,-345,-146,135
863,8646,12,-1729,-4701,23,-339,-154,136
864,8613,10,-1735,-4706,23,-355,-152,145
865,8626,9,-1682,-4712,23,-338,-140,146
866,8642,33,-1715,-4704,23,-341,-169,149
867,8655,-2,-1646,-4700,23,-360,-143,151
868,8660,-3,-1642,-4690,23,-353,-148,136
869,8630,3,-1701,-4698,23,-357,-153,150
870,8633,5,-1694,-4690,23,-345,-146,139
871,8661,24,-1662,-4702,23,-358,-158,136
872,8639,-11,-1700,-4706,23,-350,-158,145
873,8635,7,-1651,-4704,23,-347,-151,148
874,8657,38,-1731,-4696,23,-352,-147,139
875,8625,18,-1676,-4697,23,-341,-156,148
876,8649,22,-1730,-4693,23,-341,-140,138
877,8695,17,-1724,-4713,23,-344,-154,141
878,8665,25,-1692,-4697,23,-336,-147,143
879,8654,3,-1703,-4702,23,-340,-136,136
880,8627,-17,-1706,-4704,23,-357,-143,142
881,8653,-7,-1703,-4705,23,-335,-155,146
882,8618,5,-1662,-4691,23,-337,-150,161
883,8643,14,-1672,-4692,23,-360,-152,143
884,8654,-14,-1667,-4710,23,-338,-155,135
885,8617,-15,-1694,-4701,23,-333,-149,133
886,8634,-2,-1715,-4707,23,-353,-146,135
887,8639,11,-1728,-4707,23,-334,-149,131
888,8630,21,-1693,-4709,23,-352,-145,141
889,8636,-32,-1732,-4707,23,-351,-164,128
890,8644,23,-1613,-4707,23,-338,-155,151
891,8627,-31,-1694,-4687,23,-351,-158,129
892,8626,11,-1660,-4691,23,-332,-155,138
893,8663,-14,-1678,-4702,23,-350,-152,145
894,8641,-14,-1648,-4705,23,-352,-143,142
895,8655,4,-1701,-4700,23,-333,-157,142
896,8610,6,-1695,-4696,23,-355,-137,128
897,8647,-23,-1722,-4696,23,-348,-150,136
898,8615,-17,-1713,-4710,23,-346,-134,138
899,8628,-5,-1702,-4694,23,-350,-144,145
900,8656,0,-1715,-4713,23,-347,-140,144
901,8625,23,-1728,-4711,23,-362,-145,135
902,8647,18,-1679,-4696,23,-347,-146,129
903,8640,51,-1761,-4692,23,-351,-143,138
904,8656,-6,-1702,-4694,23,-342,-155,128
905,8629,11,-1670,-4702,23,-346,-160,146
906,8657,-6,-1677,-4698,23,-344,-152,139
907,8638,29,-1690,-4701,23,-340,-152,143
908,8626,23,-1724,-4706,23,-358,-159,134
909,8634,-2,-1716,-4697,23,-338,-157,147
910,8614,16,-1697,-4702,23,-350,-141,126
911,8612,-15,-1704,-4697,23,-367,-142,127
912,8622,3,-1732,-4712,23,-350,-147,141
913,8640,19,-1755,-4706,23,-323,-147,136
914,8611,28,-1681,-4698,23,-334,-156,138
915,8614,32,-1696,-4699,23,-350,-161,134
916,8628,-1,-1703,-4709,23,-349,-148,138
917,8625,-4,-1710,-4705,23,-356,-143,142
918,8629,3,-1678,-4697,23,-339,-163,134
919,8645,7,-1704,-4709,23,-344,-146,135
920,8652,40,-1707,-4703,23,-335,-141,148
921,8631,14,-1722,-4696,23,-345,-150,149
922,8596,15,-1643,-4701,23,-340,-160,133
923,8647,16,-1674,-4696,23,-348,-151,144
924,8619,8,-1682,-4696,23,-341,-152,138
925,8657,7,-1712,-4695,23,-345,-150,136
926,8653,9,-1699,-4701,23,-335,-156,123
927,8624,22,-1666,-4694,23,-349,-149,140
928,8620,22,-1647,-4695,23,-348,-132,144
929,8643,17,-1705,-4699,23,-348,-150,133
930,8639,16,-1744,-4692,23,-350,-144,128
931,8667,-2,-1759,-4695,23,-347,-149,142
932,8616,44,-1680,-4705,23,-352,-164,142
933,8669,2,-1672,-4716,23,-334,-151,143
934,8630,-4,-1749,-4689,23,-353,-139,140
935,8652,-11,-1721,-4694,23,-342,-158,138
936,8649,12,-1724,-4697,23,-335,-147,136
937,8656,12,-1714,-4692,23,-331,-146,148
938,8630,28,-1657,-4699,23,-345,-144,144
939,8647,-31,-1723,-4699,23,-352,-142,145
940,8609,-6,-1689,-4695,23,-337,-142,142
941,8654,13,-1652,-4698,23,-351,-149,141
942,8647,13,-1699,-4714,23,-341,-156,145
943,8607,-3,-1693,-4702,23,-352,-147,140
944,8657,11,-1706,-4713,23,-357,-147,140
945,8661,5,-1665,-4714,23,-345,-156,132
946,8647,55,-1668,-4710,23,-355,-150,143
947,8617,-13,-1724,-4701,23,-341,-140,144
948,8663,13,-1739,-4710,23,-340,-152,132
949,8649,6,-1735,-4695,23,-359,-146,150
950,8639,16,-1715,-4703,23,-340,-144,144
951,8655,36,-1708,-4706,23,-349,-146,136
952,8622,24,-1657,-4701,23,-343,-159,133
953,8667,-20,-1661,-4692,23,-332,-166,137
954,8647,9,-1687,-4693,23,-341,-148,143
955,8656,-23,-1731,-4706,23,-335,-149,139
956,8647,-5,-1693,-4706,23,-348,-136,129
957,8657,17,-1667,-4697,23,-341,-148,132
958,8640,10,-1702,-4698,23,-353,-165,142
959,8633,10,-1714,-4705,23,-336,-142,139
960,8649,3,-1675,-4694,23,-341,-149,130
961,8636,-7,-1746,-4695,23,-343,-156,134
962,8614,-24,-1668,-4713,23,-341,-149,133
963,8623,15,-1661,-4703,23,-345,-146,149
964,8629,-5,-1714,-4699,23,-336,-147,140
965,8607,26,-1661,-4696,23,-345,-143,137
966,8663,3,-1684,-4700,23,-339,-158,125
967,8644,-1,-1684,-4695,23,-348,-151,135
968,8641,31,-1730,-4696,23,-358,-148,144
969,8621,14,-1694,-4709,23,-347,-157,129
970,8633,20,-1695,-4696,23,-352,-149,141
971,8638,-6,-1665,-4694,23,-357,-155,151
972,8661,23,-1684,-4704,23,-349,-151,150
973,8632,3,-1701,-4702,23,-343,-144,146
974,8628,14,-1693,-4699,23,-338,-147,137
975,8639,-12,-1647,-4694,23,-349,-146,133
976,8636,5,-1696,-4695,23,-331,-149,140
977,8656,-5,-1679,-4692,23,-355,-140,141
978,8646,-16,-1725,-4701,23,-352,-138,146
979,8649,-7,-1704,-4702,23,-358,-159,132
980,8647,-10,-1687,-4700,23,-338,-158,128
981,8658,-5,-1744,-4689,23,-362,-135,149
982,8655,-33,-1691,-4697,23,-349,-145,142
983,8640,36,-1682,-4696,23,-346,-163,141
984,8601,11,-1679,-4691,23,-334,-151,135
985,8635,7,-1697,-4713,23,-342,-152,148
986,8614,-4,-1717,-4708,23,-342,-157,133
987,8645,32,-1696,-4691,23,-339,-160,147
988,8644,24,-1688,-4693,23,-338,-147,145
989,8619,-2,-1702,-4703,23,-354,-151,139
990,8628,32,-1712,-4701,23,-338,-141,128
991,8644,-15,-1674,-4697,23,-355,-158,142
992,8620,10,-1660,-4694,23,-356,-128,142
993,8627,22,-1726,-4693,23,-347,-153,139
994,8648,-1,-1675,-4697,23,-337,-151,151
995,8645,4,-1703,-4708,23,-344,-156,138
996,8666,12,-1684,-4698,23,-361,-156,146
997,8613,-8,-1645,-4698,23,-356,-150,134
998,8632,2,-1685,-4698,23,-367,-152,154
