,acc_X,acc_Y,acc_Z,temp,tempC,gyr_X,gyr_Y,gyr_Z
0,8640,6,-1700,-4648,23,-87,-38,34
1,8639,9,-1706,-4647,23,-87,-38,34
2,8639,5,-1708,-4646,23,-87,-38,34
3,8640,5,-1703,-4645,23,-87,-38,34
4,8642,2,-1703,-4645,23,-87,-38,33
5,8641,3,-1698,-4645,23,-87,-38,34
6,8640,7,-1702,-4644,23,-87,-38,34
7,8643,8,-1704,-4643,23,-86,-38,34
8,8642,10,-1714,-4643,23,-86,-39,34
9,8644,11,-1706,-4644,23,-86,-39,34
10,8642,12,-1698,-4644,23,-87,-39,34
11,8640,14,-1703,-4644,23,-87,-39,34
12,8638,10,-1695,-4646,23,-88,-39,34
13,8636,10,-1699,-4644,23,-87,-39,34
14,8640,11,-1700,-4644,23,-87,-38,34
15,8645,14,-1698,-4643,23,-88,-38,34
16,8643,15,-1699,-4644,23,-87,-39,34
17,8644,13,-1701,-4646,23,-87,-38,33
18,8641,15,-1701,-4646,23,-88,-39,34
19,8644,12,-1703,-4648,23,-88,-38,35
20,8640,11,-1698,-4648,23,-87,-38,35
21,8637,12,-1687,-4647,23,-87,-38,35
22,8637,9,-1686,-4647,23,-87,-38,35
23,8640,2,-1687,-4647,23,-86,-38,35
24,8638,4,-1688,-4647,23,-86,-38,35
25,8639,5,-1688,-4648,23,-86,-38,35
26,8636,0,-1688,-4649,23,-86,-39,35
27,8635,-3,-1688,-4650,23,-87,-39,34
28,8635,3,-1687,-4649,23,-87,-39,35
29,8633,2,-1686,-4650,23,-87,-39,34
30,8636,-1,-1687,-4648,23,-87,-38,35
31,8637,1,-1693,-4647,23,-87,-38,34
32,8635,5,-1695,-4646,23,-87,-39,35
33,8634,7,-1695,-4646,23,-86,-39,35
34,8630,4,-1700,-4647,23,-86,-38,35
35,8630,6,-1698,-4647,23,-86,-39,35
36,8631,4,-1698,-4647,23,-86,-38,35
37,8641,5,-1695,-4647,23,-87,-38,35
38,8641,7,-1694,-4648,23,-87,-37,35
39,8644,2,-1696,-4649,23,-87,-38,35
40,8640,4,-1702,-4647,23,-87,-37,35
41,8640,4,-1703,-4647,23,-87,-37,35
42,8641,1,-1703,-4646,23,-87,-37,35
43,8637,9,-1701,-4647,23,-87,-37,35
44,8636,8,-1699,-4647,23,-87,-37,35
45,8634,5,-1696,-4646,23,-87,-38,35
46,8636,6,-1690,-4646,23,-86,-38,35
47,8638,7,-1693,-4647,23,-87,-38,35
48,8637,10,-1694,-4647,23,-87,-38,35
49,8638,9,-1688,-4648,23,-87,-38,34
50,8639,7,-1685,-4649,23,-87,-38,34
51,8638,9,-1690,-4650,23,-87,-38,34
52,8638,9,-1689,-4649,23,-87,-38,35
53,8636,5,-1691,-4648,23,-87,-37,35
54,8630,3,-1695,-4650,23,-87,-37,35
55,8633,3,-1696,-4648,23,-87,-37,35
56,8633,4,-1703,-4647,23,-87,-38,35
57,8634,3,-1701,-4647,23,-87,-38,36
58,8639,0,-1710,-4646,23,-87,-39,36
59,8637,1,-1708,-4646,23,-87,-39,35
60,8642,0,-1709,-4646,23,-88,-39,35
61,8641,6,-1698,-4647,23,-87,-39,35
62,8640,3,-1688,-4649,23,-87,-39,36
63,8640,4,-1689,-4649,23,-87,-39,35
64,8636,4,-1689,-4648,23,-87,-38,35
65,8639,5,-1686,-4647,23,-87,-38,35
66,8636,2,-1684,-4648,23,-87,-38,34
67,8638,-3,-1691,-4646,23,-88,-38,34
68,8644,1,-1686,-4646,23,-88,-38,34
69,8644,0,-1688,-4647,23,-87,-38,34
70,8645,-1,-1692,-4647,23,-87,-38,34
71,8643,3,-1688,-4646,23,-87,-38,34
72,8640,2,-1691,-4645,23,-87,-38,35
73,8636,6,-1695,-4646,23,-87,-38,35
74,8638,11,-1700,-4644,23,-86,-37,35
75,8636,5,-1700,-4645,23,-87,-37,35
76,8640,8,-1700,-4643,23,-87,-38,35
77,8641,8,-1708,-4645,23,-87,-38,35
78,8639,5,-1703,-4646,23,-87,-38,35
79,8645,4,-1702,-4647,23,-87,-38,35
80,8643,2,-1697,-4647,23,-87,-38,35
81,8644,-5,-1703,-4648,23,-86,-38,35
82,8645,-6,-1699,-4646,23,-87,-38,36
83,8646,-5,-1691,-4647,23,-86,-38,35
84,8642,-2,-1699,-4646,23,-87,-38,35
85,8633,-2,-1706,-4644,23,-87,-39,35
86,8634,-1,-1704,-4646,23,-88,-39,35
87,8635,6,-1698,-4645,23,-88,-39,35
88,8635,4,-1701,-4644,23,-87,-39,35
89,8635,11,-1703,-4644,23,-87,-39,34
90,8638,7,-1706,-4644,23,-87,-38,35
91,8640,7,-1703,-4644,23,-87,-38,35
92,8640,2,-1698,-4645,23,-87,-38,35
93,8644,0,-1697,-4646,23,-87,-38,34
94,8644,0,-1700,-4644,23,-87,-38,34
95,8644,-1,-1702,-4645,23,-87,-37,35
96,8641,4,-1696,-4646,23,-87,-37,34
97,8634,4,-1700,-4648,23,-87,-38,35
98,8635,3,-1695,-4648,23,-88,-38,35
99,8634,2,-1695,-4650,23,-88,-38,35
100,8637,1,-1694,-4650,23,-87,-38,34
101,8641,0,-1692,-4649,23,-87,-38,35
102,8639,1,-1692,-4651,23,-88,-38,35
103,8642,0,-1689,-4649,23,-87,-38,34
104,8645,1,-1699,-4649,23,-87,-38,35
105,8643,0,-1705,-4649,23,-87,-38,34
106,8645,-4,-1704,-4649,23,-87,-39,35
107,8639,0,-1703,-4648,23,-87,-38,34
108,8643,-1,-1706,-4649,23,-87,-38,34
109,8641,-3,-1700,-4647,23,-88,-39,35
110,8644,-1,-1702,-4648,23,-87,-39,34
111,8643,-1,-1695,-4648,23,-87,-38,35
112,8642,-2,-1688,-4646,23,-87,-38,35
113,8641,2,-1679,-4644,23,-87,-38,35
114,8641,9,-1678,-4645,23,-87,-38,35
115,8640,8,-1678,-4645,23,-87,-38,35
116,8641,9,-1682,-4646,23,-87,-38,35
117,8640,9,-1682,-4647,23,-87,-38,35
118,8640,12,-1686,-4648,23,-87,-38,35
119,8640,11,-1689,-4648,23,-87,-38,35
120,8637,7,-1694,-4649,23,-88,-39,35
121,8638,7,-1689,-4649,23,-87,-38,35
122,8636,8,-1696,-4648,23,-87,-39,34
123,8634,7,-1697,-4648,23,-87,-38,34
124,8631,3,-1699,-4647,23,-87,-39,35
125,8635,4,-1704,-4645,23,-86,-39,35
126,8635,1,-1697,-4647,23,-86,-39,35
127,8634,-2,-1694,-4646,23,-87,-39,35
128,8633,-2,-1693,-4645,23,-87,-39,35
129,8633,-8,-1702,-4644,23,-87,-39,35
130,8638,-7,-1700,-4645,23,-87,-39,35
131,8639,-1,-1695,-4646,23,-86,-38,35
132,8645,-1,-1694,-4646,23,-86,-38,35
133,8643,-2,-1699,-4647,23,-86,-38,36
134,8647,0,-1693,-4648,23,-87,-38,35
135,8642,1,-1696,-4650,23,-87,-37,35
136,8640,2,-1689,-4647,23,-87,-38,34
137,8634,7,-1689,-4648,23,-87,-38,35
138,8631,5,-1689,-4646,23,-87,-37,35
139,8631,4,-1687,-4648,23,-87,-38,34
140,8630,2,-1687,-4647,23,-87,-38,35
141,8632,4,-1690,-4646,23,-87,-38,35
142,8630,8,-1692,-4647,23,-87,-38,34
143,8633,10,-1691,-4646,23,-87,-38,34
144,8633,12,-1701,-4646,23,-87,-38,34
145,8634,9,-1707,-4646,23,-87,-38,35
146,8635,9,-1703,-4646,23,-86,-38,35
147,8636,7,-1696,-4646,23,-87,-38,35
148,8635,10,-1697,-4645,23,-87,-37,35
149,8637,9,-1696,-4647,23,-87,-37,35
150,8636,11,-1694,-4646,23,-86,-37,35
151,8641,7,-1692,-4646,23,-86,-38,35
152,8641,6,-1686,-4646,23,-87,-38,35
153,8638,6,-1684,-4646,23,-87,-38,35
154,8636,7,-1683,-4647,23,-87,-38,35
155,8632,6,-1689,-4648,23,-87,-38,35
156,8630,6,-1689,-4649,23,-87,-38,35
157,8630,10,-1684,-4651,23,-88,-39,35
158,8638,12,-1693,-4651,23,-87,-39,35
159,8635,13,-1691,-4649,23,-87,-38,34
160,8633,13,-1690,-4647,23,-87,-38,34
161,8635,9,-1690,-4648,23,-87,-39,34
162,8641,13,-1689,-4647,23,-87,-39,34
163,8642,10,-1694,-4645,23,-87,-38,34
164,8645,10,-1697,-4646,23,-87,-39,35
165,8645,6,-1696,-4646,23,-88,-38,35
166,8643,6,-1701,-4645,23,-88,-38,35
167,8639,6,-1702,-4645,23,-87,-38,34
168,8643,2,-1700,-4646,23,-87,-38,35
169,8642,1,-1709,-4643,23,-88,-38,35
170,8638,5,-1707,-4645,23,-88,-38,35
171,8638,3,-1702,-4644,23,-88,-37,35
172,8636,-2,-1698,-4645,23,-88,-38,34
173,8637,-4,-1698,-4646,23,-88,-37,34
174,8636,-6,-1700,-4648,23,-88,-38,34
175,8635,-2,-1689,-4647,23,-88,-38,34
176,8634,-2,-1683,-4648,23,-88,-37,34
177,8634,5,-1681,-4646,23,-88,-38,35
178,8638,3,-1677,-4645,23,-89,-38,35
179,8636,4,-1676,-4646,23,-89,-38,35
180,8636,3,-1681,-4643,23,-88,-38,35
181,8635,6,-1687,-4644,23,-88,-38,35
182,8636,5,-1694,-4644,23,-88,-38,34
183,8633,6,-1698,-4643,23,-88,-38,34
184,8634,6,-1703,-4643,23,-88,-38,34
185,8632,12,-1709,-4643,23,-88,-38,35
186,8637,13,-1703,-4645,23,-88,-38,35
187,8629,13,-1711,-4645,23,-87,-38,35
188,8627,16,-1703,-4647,23,-87,-38,36
189,8631,16,-1701,-4647,23,-88,-37,35
190,8630,15,-1696,-4647,23,-87,-38,36
191,8630,7,-1699,-4646,23,-87,-38,35
192,8634,6,-1702,-4645,23,-88,-38,36
193,8638,7,-1695,-4646,23,-87,-37,35
194,8640,9,-1694,-4646,23,-87,-38,35
195,8641,9,-1692,-4645,23,-88,-39,35
196,8640,9,-1692,-4646,23,-87,-38,35
197,8638,8,-1696,-4644,23,-87,-38,35
198,8634,8,-1687,-4645,23,-87,-39,34
199,8637,5,-1686,-4645,23,-87,-38,35
200,8638,10,-1690,-4645,23,-87,-38,34
201,8641,10,-1694,-4645,23,-87,-37,34
202,8640,14,-1710,-4644,23,-87,-37,35
203,8639,15,-1702,-4644,23,-87,-38,35
204,8642,12,-1700,-4644,23,-87,-38,35
205,8646,10,-1701,-4644,23,-88,-38,35
206,8641,7,-1701,-4645,23,-87,-39,35
207,8643,9,-1699,-4645,23,-87,-39,35
208,8642,10,-1697,-4644,23,-87,-39,35
209,8636,9,-1690,-4645,23,-87,-39,35
210,8634,4,-1690,-4644,23,-87,-39,35
211,8633,4,-1685,-4644,23,-87,-39,35
212,8636,5,-1688,-4646,23,-87,-39,35
213,8642,4,-1687,-4643,23,-88,-38,34
214,8641,4,-1687,-4642,23,-88,-38,34
215,8639,5,-1685,-4642,23,-88,-39,35
216,8642,9,-1689,-4643,23,-88,-38,35
217,8640,13,-1700,-4643,23,-89,-38,35
218,8637,13,-1702,-4643,23,-88,-38,34
219,8635,14,-1704,-4644,23,-89,-38,34
220,8638,15,-1700,-4642,23,-89,-39,34
221,8640,4,-1700,-4644,23,-89,-39,34
222,8636,-1,-1700,-4644,23,-89,-38,34
223,8633,2,-1703,-4645,23,-89,-38,34
224,8635,1,-1703,-4644,23,-88,-38,35
225,8638,-2,-1699,-4643,23,-88,-39,35
226,8633,-3,-1701,-4645,23,-88,-39,35
227,8630,3,-1697,-4644,23,-87,-39,35
228,8629,10,-1696,-4644,23,-88,-39,35
229,8635,7,-1693,-4644,23,-87,-39,35
230,8639,9,-1690,-4643,23,-87,-40,35
231,8637,6,-1690,-4645,23,-87,-40,35
232,8639,8,-1691,-4645,23,-87,-40,35
233,8638,8,-1698,-4645,23,-86,-40,35
234,8637,5,-1700,-4644,23,-86,-39,35
235,8635,7,-1699,-4644,23,-87,-39,35
236,8636,10,-1698,-4644,23,-86,-39,34
237,8638,8,-1690,-4643,23,-87,-39,35
238,8636,6,-1693,-4643,23,-87,-39,35
239,8634,9,-1692,-4642,23,-87,-38,34
240,8634,5,-1695,-4643,23,-87,-37,34
241,8635,10,-1689,-4643,23,-86,-37,35
242,8631,11,-1694,-4644,23,-86,-38,35
243,8630,16,-1700,-4646,23,-87,-38,35
244,8632,13,-1700,-4646,23,-87,-38,35
245,8634,10,-1706,-4647,23,-87,-38,35
246,8641,13,-1713,-4646,23,-87,-38,35
247,8639,16,-1712,-4648,23,-87,-38,35
248,8643,17,-1708,-4648,23,-87,-38,35
249,8640,10,-1699,-4650,23,-87,-38,35
250,8642,14,-1696,-4650,23,-86,-38,35
251,8643,18,-1698,-4648,23,-87,-38,35
252,8638,15,-1704,-4648,23,-87,-38,35
253,8636,8,-1704,-4648,23,-87,-38,35
254,8640,3,-1706,-4647,23,-87,-37,35
255,8645,2,-1705,-4645,23,-87,-37,35
256,8648,2,-1707,-4644,23,-86,-37,35
257,8646,0,-1708,-4646,23,-87,-38,35
258,8643,-1,-1699,-4645,23,-86,-37,36
259,8638,0,-1691,-4644,23,-87,-37,36
260,8638,-1,-1682,-4646,23,-87,-38,36
261,8638,-4,-1687,-4646,23,-87,-38,36
262,8640,-2,-1684,-4646,23,-87,-38,35
263,8646,4,-1691,-4646,23,-87,-39,35
264,8645,1,-1689,-4647,23,-87,-38,35
265,8645,-1,-1685,-4648,23,-87,-37,34
266,8644,-4,-1692,-4647,23,-87,-38,35
267,8647,-4,-1692,-4647,23,-87,-38,35
268,8644,-3,-1694,-4646,23,-87,-38,35
269,8642,-4,-1692,-4646,23,-87,-37,35
270,8643,-5,-1701,-4646,23,-87,-39,35
271,8642,-3,-1704,-4646,23,-88,-38,35
272,8636,-6,-1704,-4649,23,-87,-38,35
273,8638,-3,-1705,-4648,23,-87,-38,36
274,8633,-1,-1705,-4646,23,-88,-38,35
275,8635,0,-1701,-4645,23,-88,-37,35
276,8633,-6,-1693,-4646,23,-88,-38,35
277,8632,-4,-1690,-4646,23,-88,-38,35
278,8632,-4,-1685,-4647,23,-88,-38,35
279,8635,-1,-1689,-4647,23,-88,-38,35
280,8635,3,-1692,-4647,23,-88,-38,35
281,8636,4,-1688,-4646,23,-88,-38,35
282,8640,1,-1687,-4645,23,-89,-38,35
283,8640,-4,-1686,-4645,23,-88,-38,34
284,8645,-3,-1683,-4645,23,-89,-37,34
285,8645,-4,-1685,-4645,23,-88,-38,34
286,8642,0,-1686,-4645,23,-88,-38,35
287,8645,2,-1683,-4646,23,-88,-38,34
288,8647,6,-1686,-4646,23,-88,-38,34
289,8644,4,-1691,-4646,23,-88,-38,34
290,8642,4,-1694,-4647,23,-87,-38,34
291,8642,4,-1696,-4647,23,-87,-39,35
292,8636,3,-1693,-4646,23,-87,-39,34
293,8639,2,-1689,-4646,23,-87,-38,34
294,8640,1,-1690,-4645,23,-87,-39,34
295,8643,-4,-1689,-4646,23,-87,-38,34
296,8644,0,-1687,-4646,23,-87,-39,35
297,8644,0,-1690,-4646,23,-87,-38,34
298,8637,-1,-1696,-4646,23,-87,-38,34
299,8638,1,-1689,-4646,23,-87,-38,34
300,8639,3,-1696,-4645,23,-87,-38,34
301,8637,10,-1698,-4645,23,-87,-38,35
302,8643,10,-1699,-4645,23,-87,-38,35
303,8639,9,-1696,-4644,23,-87,-38,36
304,8637,8,-1693,-4645,23,-87,-39,36
305,8640,5,-1693,-4642,23,-88,-38,36
306,8638,5,-1705,-4642,23,-88,-38,36
307,8640,6,-1698,-4642,23,-88,-38,36
308,8640,6,-1698,-4643,23,-88,-38,35
309,8641,7,-1699,-4644,23,-88,-38,35
310,8644,7,-1695,-4645,23,-87,-39,35
311,8642,7,-1695,-4643,23,-87,-38,35
312,8643,12,-1696,-4645,23,-87,-38,35
313,8640,7,-1690,-4646,23,-87,-38,35
314,8639,10,-1695,-4647,23,-87,-38,35
315,8639,8,-1703,-4646,23,-87,-38,35
316,8634,5,-1702,-4645,23,-87,-38,34
317,8630,1,-1701,-4644,23,-87,-38,35
318,8631,1,-1697,-4645,23,-87,-38,35
319,8631,2,-1703,-4646,23,-87,-38,35
320,8630,4,-1700,-4644,23,-86,-38,35
321,8635,10,-1702,-4644,23,-87,-38,35
322,8637,7,-1701,-4645,23,-87,-39,35
323,8638,4,-1699,-4646,23,-87,-38,35
324,8638,3,-1697,-4646,23,-87,-38,35
325,8637,-3,-1700,-4649,23,-87,-38,35
326,8637,0,-1703,-4648,23,-87,-38,35
327,8634,3,-1705,-4646,23,-87,-38,35
328,8635,8,-1698,-4647,23,-87,-38,35
329,8636,8,-1701,-4646,23,-87,-38,35
330,8638,4,-1702,-4645,23,-87,-38,35
331,8638,2,-1698,-4646,23,-87,-39,35
332,8638,1,-1701,-4645,23,-88,-39,35
333,8637,6,-1700,-4644,23,-88,-39,35
334,8640,6,-1694,-4644,23,-88,-38,35
335,8634,9,-1695,-4646,23,-88,-38,35
336,8629,8,-1692,-4646,23,-88,-37,35
337,8632,10,-1694,-4644,23,-87,-37,35
338,8633,9,-1691,-4645,23,-87,-38,35
339,8636,10,-1691,-4646,23,-87,-38,35
340,8637,13,-1696,-4646,23,-87,-38,35
341,8636,11,-1693,-4643,23,-87,-38,35
342,8633,9,-1696,-4643,23,-87,-38,35
343,8637,7,-1695,-4646,23,-86,-39,35
344,8638,7,-1699,-4646,23,-87,-38,35
345,8637,6,-1694,-4645,23,-87,-38,35
346,8640,3,-1691,-4646,23,-87,-39,34
347,8635,1,-1687,-4645,23,-87,-39,35
348,8637,0,-1682,-4644,23,-87,-38,35
349,8641,1,-1689,-4644,23,-87,-38,34
350,8639,2,-1692,-4645,23,-87,-38,35
351,8639,-1,-1693,-4646,23,-87,-38,35
352,8643,4,-1697,-4648,23,-87,-38,34
353,8641,4,-1709,-4648,23,-87,-38,34
354,8634,9,-1705,-4648,23,-86,-38,35
355,8632,9,-1703,-4649,23,-87,-38,35
356,8636,6,-1698,-4647,23,-87,-38,35
357,8640,3,-1699,-4648,23,-87,-37,35
358,8641,9,-1699,-4648,23,-88,-38,35
359,8645,9,-1692,-4648,23,-87,-37,34
360,8648,8,-1696,-4645,23,-87,-38,34
361,8645,11,-1701,-4646,23,-87,-38,34
362,8649,10,-1691,-4644,23,-87,-37,34
363,8642,7,-1692,-4645,23,-87,-37,34
364,8639,10,-1696,-4646,23,-87,-38,35
365,8638,9,-1705,-4646,23,-87,-38,35
366,8636,6,-1699,-4646,23,-87,-37,35
367,8635,2,-1696,-4647,23,-87,-38,35
368,8629,4,-1696,-4646,23,-88,-37,35
369,8631,6,-1700,-4646,23,-88,-37,35
370,8636,5,-1692,-4648,23,-87,-37,35
371,8641,10,-1701,-4646,23,-87,-37,34
372,8643,10,-1698,-4645,23,-88,-38,35
373,8641,15,-1699,-4646,23,-88,-38,35
374,8638,17,-1695,-4645,23,-87,-38,35
375,8641,12,-1697,-4646,23,-88,-38,35
376,8642,6,-1695,-4646,23,-87,-38,35
377,8640,5,-1698,-4646,23,-87,-38,34
378,8641,7,-1699,-4648,23,-87,-38,34
379,8640,4,-1701,-4647,23,-87,-38,34
380,8638,-2,-1703,-4645,23,-87,-38,34
381,8641,-2,-1699,-4644,23,-88,-38,35
382,8639,-4,-1697,-4646,23,-87,-38,35
383,8641,-8,-1700,-4646,23,-87,-39,35
384,8635,-1,-1697,-4645,23,-87,-38,35
385,8636,2,-1699,-4643,23,-87,-38,35
386,8634,7,-1702,-4644,23,-88,-38,35
387,8633,5,-1699,-4644,23,-88,-38,36
388,8632,8,-1700,-4643,23,-88,-38,36
389,8634,12,-1702,-4645,23,-88,-38,35
390,8632,7,-1705,-4644,23,-88,-38,35
391,8632,8,-1703,-4645,23,-88,-38,35
392,8637,9,-1703,-4646,23,-88,-38,35
393,8633,5,-1699,-4645,23,-87,-39,35
394,8631,5,-1702,-4646,23,-87,-38,35
395,8631,4,-1698,-4647,23,-87,-38,35
396,8631,9,-1699,-4647,23,-87,-38,35
397,8633,7,-1700,-4646,23,-87,-38,35
398,8633,6,-1704,-4645,23,-87,-38,35
399,8636,9,-1705,-4646,23,-87,-39,34
400,8642,11,-1699,-4646,23,-87,-38,34
401,8643,4,-1701,-4646,23,-87,-38,34
402,8642,10,-1701,-4646,23,-87,-38,34
403,8641,11,-1699,-4646,23,-87,-38,34
404,8635,13,-1695,-4644,23,-87,-38,34
405,8636,11,-1691,-4645,23,-87,-38,34
406,8634,11,-1689,-4646,23,-87,-38,34
407,8634,12,-1680,-4646,23,-87,-38,34
408,8635,8,-1683,-4645,23,-88,-37,34
409,8637,7,-1685,-4645,23,-88,-37,34
410,8639,7,-1686,-4644,23,-88,-37,34
411,8641,6,-1690,-4644,23,-88,-37,35
412,8638,5,-1688,-4644,23,-88,-37,35
413,8641,7,-1686,-4645,23,-87,-38,34
414,8639,3,-1691,-4645,23,-87,-38,34
415,8640,2,-1688,-4645,23,-87,-39,34
416,8636,12,-1701,-4645,23,-87,-39,34
417,8637,12,-1697,-4645,23,-87,-39,35
418,8639,5,-1697,-4645,23,-87,-39,35
419,8638,5,-1691,-4645,23,-87,-39,35
420,8640,2,-1688,-4646,23,-87,-39,34
421,8639,2,-1691,-4646,23,-87,-39,35
422,8639,2,-1688,-4646,23,-87,-39,35
423,8641,8,-1684,-4646,23,-87,-39,35
424,8639,3,-1679,-4645,23,-87,-39,35
425,8638,10,-1685,-4645,23,-88,-39,35
426,8632,11,-1688,-4644,23,-87,-39,35
427,8635,7,-1695,-4644,23,-87,-39,35
428,8633,5,-1693,-4643,23,-88,-38,34
429,8636,0,-1691,-4642,23,-87,-38,34
430,8638,3,-1690,-4642,23,-87,-38,34
431,8631,1,-1685,-4643,23,-87,-38,34
432,8634,3,-1686,-4642,23,-88,-38,34
433,8640,2,-1686,-4643,23,-88,-38,34
434,8640,2,-1688,-4645,23,-87,-38,34
435,8638,0,-1686,-4645,23,-87,-38,35
436,8640,-1,-1685,-4644,23,-88,-38,34
437,8644,-1,-1686,-4643,23,-88,-38,34
438,8640,2,-1689,-4644,23,-88,-38,35
439,8639,2,-1695,-4645,23,-88,-38,35
440,8640,6,-1689,-4645,23,-88,-38,35
441,8641,8,-1685,-4644,23,-88,-38,35
442,8639,6,-1684,-4644,23,-88,-37,35
443,8641,7,-1683,-4645,23,-87,-38,35
444,8638,5,-1689,-4644,23,-87,-38,35
445,8638,4,-1692,-4646,23,-87,-38,35
446,8637,9,-1697,-4646,23,-87,-38,35
447,8633,11,-1702,-4644,23,-87,-38,35
448,8636,10,-1705,-4646,23,-87,-38,36
449,8640,6,-1696,-4646,23,-87,-39,35
450,8640,5,-1700,-4648,23,-88,-38,35
451,8640,1,-1700,-4647,23,-88,-38,35
452,8641,3,-1695,-4646,23,-88,-39,34
453,8638,2,-1695,-4647,23,-88,-38,35
454,8639,1,-1691,-4646,23,-88,-39,35
455,8635,3,-1689,-4645,23,-88,-39,35
456,8632,-1,-1690,-4642,23,-88,-39,35
457,8634,0,-1690,-4641,23,-87,-38,34
458,8633,-2,-1693,-4642,23,-88,-39,35
459,8637,-2,-1696,-4640,23,-87,-39,35
460,8635,4,-1697,-4640,23,-87,-39,35
461,8636,10,-1703,-4641,23,-88,-38,35
462,8638,8,-1709,-4643,23,-87,-38,35
463,8642,8,-1710,-4644,23,-87,-38,35
464,8645,6,-1703,-4645,23,-87,-38,35
465,8645,9,-1701,-4644,23,-87,-38,35
466,8641,9,-1697,-4644,23,-87,-38,35
467,8638,9,-1693,-4644,23,-88,-38,35
468,8636,11,-1688,-4644,23,-87,-38,35
469,8640,12,-1692,-4645,23,-87,-38,34
470,8640,10,-1690,-4644,23,-87,-38,35
471,8636,13,-1697,-4643,23,-87,-38,35
472,8638,14,-1695,-4644,23,-87,-38,35
473,8642,12,-1700,-4643,23,-87,-38,35
474,8645,6,-1697,-4645,23,-87,-37,35
475,8639,7,-1694,-4644,23,-87,-38,35
476,8635,7,-1689,-4643,23,-87,-38,35
477,8637,7,-1697,-4644,23,-87,-38,35
478,8638,6,-1700,-4644,23,-87,-38,35
479,8644,6,-1693,-4644,23,-87,-38,35
480,8646,6,-1694,-4646,23,-88,-38,35
481,8650,6,-1695,-4647,23,-87,-38,35
482,8644,3,-1689,-4646,23,-87,-38,34
483,8642,6,-1685,-4644,23,-87,-38,34
484,8640,3,-1690,-4645,23,-87,-38,34
485,8638,1,-1687,-4643,23,-87,-38,34
486,8645,-1,-1689,-4643,23,-87,-38,34
487,8645,1,-1699,-4645,23,-87,-38,34
488,8645,1,-1705,-4644,23,-87,-38,34
489,8642,2,-1705,-4644,23,-86,-38,34
490,8641,3,-1699,-4644,23,-86,-38,35
491,8641,1,-1696,-4644,23,-86,-39,34
492,8639,3,-1699,-4643,23,-86,-39,35
493,8642,5,-1700,-4642,23,-86,-38,35
494,8640,3,-1697,-4641,23,-87,-38,35
495,8638,6,-1697,-4643,23,-87,-38,35
496,8635,5,-1703,-4643,23,-87,-38,35
497,8636,0,-1704,-4642,23,-88,-38,35
498,8635,1,-1705,-4641,23,-88,-37,35
499,8633,8,-1702,-4643,23,-88,-38,35
500,8629,5,-1701,-4643,23,-88,-38,35
501,8632,3,-1697,-4643,23,-88,-38,35
502,8632,0,-1694,-4643,23,-87,-37,35
503,8630,3,-1698,-4643,23,-87,-38,35
504,8633,2,-1694,-4643,23,-87,-38,34
505,8629,3,-1693,-4643,23,-87,-38,35
506,8638,1,-1686,-4645,23,-86,-38,35
507,8639,7,-1693,-4648,23,-86,-38,34
508,8636,9,-1693,-4647,23,-86,-38,35
509,8637,7,-1697,-4646,23,-87,-38,35
510,8638,5,-1693,-4646,23,-87,-38,35
511,8634,6,-1693,-4644,23,-87,-38,34
512,8630,4,-1697,-4644,23,-87,-38,34
513,8632,6,-1690,-4643,23,-88,-38,34
514,8633,7,-1695,-4643,23,-88,-38,34
515,8629,11,-1693,-4643,23,-88,-38,35
516,8628,9,-1695,-4644,23,-88,-38,35
517,8631,3,-1696,-4645,23,-87,-38,35
518,8629,7,-1693,-4646,23,-87,-38,35
519,8630,6,-1693,-4644,23,-87,-38,35
520,8633,1,-1691,-4644,23,-87,-37,35
521,8633,-1,-1696,-4645,23,-87,-38,35
522,8633,-1,-1696,-4644,23,-87,-38,35
523,8636,0,-1697,-4643,23,-87,-38,35
524,8635,4,-1695,-4643,23,-87,-38,35
525,8637,5,-1697,-4643,23,-88,-38,35
526,8640,7,-1703,-4642,23,-87,-38,35
527,8631,9,-1693,-4641,23,-88,-38,35
528,8635,10,-1703,-4642,23,-88,-38,35
529,8639,16,-1698,-4643,23,-88,-38,35
530,8641,15,-1696,-4644,23,-88,-38,35
531,8641,12,-1697,-4643,23,-88,-37,35
532,8645,14,-1694,-4644,23,-88,-38,35
533,8643,14,-1694,-4644,23,-88,-38,35
534,8644,12,-1695,-4643,23,-88,-38,35
535,8649,7,-1700,-4644,23,-88,-38,35
536,8646,3,-1699,-4645,23,-88,-38,35
537,8646,-1,-1699,-4645,23,-88,-38,35
538,8648,5,-1704,-4644,23,-89,-38,35
539,8645,8,-1704,-4642,23,-88,-37,34
540,8642,9,-1709,-4645,23,-88,-38,35
541,8644,7,-1701,-4647,23,-88,-39,34
542,8642,7,-1692,-4646,23,-88,-38,34
543,8640,10,-1690,-4646,23,-89,-39,34
544,8639,10,-1696,-4646,23,-89,-39,34
545,8643,9,-1700,-4644,23,-88,-39,34
546,8639,11,-1701,-4644,23,-88,-39,34
547,8636,13,-1706,-4646,23,-88,-39,34
548,8639,15,-1701,-4646,23,-88,-39,34
549,8634,16,-1700,-4645,23,-88,-39,34
550,8638,14,-1705,-4644,23,-88,-39,34
551,8639,12,-1699,-4643,23,-88,-38,35
552,8640,14,-1693,-4642,23,-88,-38,35
553,8644,16,-1697,-4642,23,-88,-38,35
554,8643,14,-1694,-4641,23,-88,-38,35
555,8640,16,-1696,-4643,23,-88,-38,34
556,8641,11,-1701,-4643,23,-87,-38,34
557,8643,8,-1699,-4643,23,-87,-39,34
558,8644,8,-1699,-4644,23,-87,-39,35
559,8641,9,-1701,-4644,23,-86,-39,34
560,8643,6,-1699,-4642,23,-86,-39,34
561,8639,5,-1700,-4644,23,-87,-39,34
562,8638,6,-1703,-4644,23,-87,-39,34
563,8633,6,-1700,-4641,23,-87,-39,35
564,8636,4,-1696,-4640,23,-87,-39,35
565,8643,5,-1694,-4641,23,-87,-39,35
566,8643,6,-1697,-4643,23,-87,-38,35
567,8640,6,-1704,-4644,23,-87,-38,34
568,8640,6,-1695,-4643,23,-87,-38,34
569,8641,3,-1699,-4643,23,-87,-39,35
570,8638,4,-1705,-4643,23,-87,-39,35
571,8642,5,-1712,-4644,23,-87,-38,34
572,8639,5,-1716,-4644,23,-88,-38,34
573,8641,7,-1716,-4646,23,-88,-38,34
574,8639,6,-1711,-4646,23,-87,-39,34
575,8637,9,-1703,-4644,23,-87,-38,34
576,8635,10,-1702,-4644,23,-87,-38,34
577,8635,5,-1701,-4644,23,-87,-39,34
578,8639,3,-1705,-4646,23,-86,-38,34
579,8635,2,-1710,-4647,23,-87,-38,35
580,8636,3,-1706,-4647,23,-87,-38,34
581,8641,4,-1709,-4645,23,-87,-38,34
582,8638,1,-1707,-4644,23,-87,-38,34
583,8632,1,-1704,-4643,23,-88,-38,35
584,8634,3,-1711,-4642,23,-88,-38,34
585,8639,-1,-1712,-4641,23,-87,-38,34
586,8640,3,-1708,-4640,23,-88,-38,34
587,8637,8,-1703,-4642,23,-88,-38,35
588,8635,12,-1699,-4642,23,-88,-38,35
589,8638,8,-1699,-4643,23,-88,-38,35
590,8636,5,-1698,-4643,23,-88,-38,35
591,8631,4,-1697,-4642,23,-88,-39,34
592,8633,5,-1701,-4642,23,-88,-38,34
593,8636,5,-1698,-4643,23,-87,-38,34
594,8632,10,-1697,-4643,23,-87,-39,34
595,8634,11,-1697,-4642,23,-87,-39,34
596,8633,8,-1706,-4641,23,-87,-38,34
597,8633,4,-1700,-4642,23,-88,-38,35
598,8636,7,-1705,-4641,23,-88,-38,35
599,8635,9,-1703,-4641,23,-87,-38,35
600,8634,7,-1702,-4641,23,-88,-38,35
601,8633,8,-1699,-4641,23,-88,-39,35
602,8633,7,-1701,-4640,23,-88,-39,34
603,8633,10,-1698,-4643,23,-88,-39,35
604,8637,8,-1691,-4643,23,-87,-38,35
605,8644,4,-1697,-4644,23,-87,-38,34
606,8648,-1,-1706,-4644,23,-87,-38,34
607,8648,0,-1701,-4644,23,-87,-38,34
608,8643,-2,-1701,-4646,23,-87,-37,34
609,8645,-4,-1699,-4646,23,-87,-37,34
610,8639,1,-1705,-4646,23,-86,-37,34
611,8638,3,-1704,-4645,23,-87,-37,34
612,8639,7,-1701,-4644,23,-87,-37,34
613,8633,9,-1704,-4642,23,-87,-37,34
614,8633,6,-1700,-4642,23,-88,-37,34
615,8635,2,-1702,-4642,23,-88,-38,35
616,8635,1,-1698,-4642,23,-88,-37,35
617,8636,-1,-1696,-4642,23,-88,-37,35
618,8636,4,-1699,-4642,23,-88,-37,35
619,8638,1,-1703,-4644,23,-88,-38,35
620,8636,1,-1705,-4643,23,-88,-38,35
621,8639,2,-1703,-4643,23,-87,-38,36
622,8633,6,-1693,-4644,23,-88,-38,35
623,8638,9,-1692,-4645,23,-89,-39,35
624,8641,12,-1685,-4645,23,-88,-39,35
625,8639,12,-1682,-4643,23,-88,-39,35
626,8640,13,-1695,-4641,23,-88,-39,35
627,8638,14,-1699,-4642,23,-88,-39,35
628,8635,10,-1706,-4645,23,-88,-39,35
629,8637,12,-1707,-4644,23,-88,-38,35
630,8635,8,-1705,-4643,23,-88,-38,35
631,8640,8,-1701,-4642,23,-87,-38,35
632,8641,4,-1704,-4645,23,-87,-39,35
633,8639,1,-1698,-4644,23,-87,-38,35
634,8640,-5,-1702,-4644,23,-87,-38,35
635,8639,-5,-1705,-4644,23,-87,-38,35
636,8638,-2,-1702,-4645,23,-87,-37,35
637,8638,3,-1704,-4643,23,-87,-38,35
638,8641,-1,-1698,-4642,23,-88,-38,35
639,8639,-2,-1703,-4642,23,-88,-38,35
640,8635,-3,-1701,-4645,23,-88,-38,35
641,8633,3,-1697,-4644,23,-88,-38,35
642,8634,0,-1694,-4644,23,-88,-39,35
643,8640,1,-1695,-4645,23,-88,-38,35
644,8638,0,-1694,-4644,23,-87,-38,35
645,8639,2,-1691,-4642,23,-87,-39,35
646,8643,3,-1697,-4642,23,-87,-39,34
647,8645,1,-1695,-4642,23,-87,-39,35
648,8645,5,-1695,-4643,23,-87,-39,35
649,8643,8,-1700,-4644,23,-87,-39,34
650,8637,1,-1703,-4643,23,-87,-38,34
651,8640,4,-1701,-4642,23,-87,-38,34
652,8636,7,-1699,-4640,23,-87,-38,35
653,8639,2,-1697,-4641,23,-87,-38,34
654,8639,3,-1703,-4641,23,-87,-38,34
655,8637,5,-1705,-4641,23,-88,-38,34
656,8635,5,-1704,-4641,23,-87,-39,34
657,8638,6,-1705,-4643,23,-88,-38,34
658,8639,12,-1706,-4642,23,-88,-39,34
659,8636,8,-1693,-4644,23,-87,-39,34
660,8634,4,-1706,-4645,23,-87,-38,34
661,8640,7,-1704,-4646,23,-88,-37,34
662,8637,5,-1703,-4646,23,-87,-37,34
663,8633,7,-1710,-4644,23,-87,-38,34
664,8632,6,-1710,-4644,23,-87,-38,34
665,8636,8,-1708,-4643,23,-87,-38,34
666,8639,7,-1708,-4643,23,-87,-39,35
667,8639,10,-1700,-4643,23,-86,-38,34
668,8634,9,-1693,-4642,23,-87,-38,34
669,8629,6,-1701,-4642,23,-87,-38,35
670,8631,5,-1701,-4643,23,-87,-39,34
671,8629,9,-1697,-4643,23,-88,-39,34
672,8636,10,-1701,-4641,23,-87,-38,34
673,8638,11,-1708,-4640,23,-88,-38,34
674,8640,12,-1701,-4640,23,-88,-38,34
675,8641,8,-1701,-4640,23,-88,-38,34
676,8640,10,-1699,-4640,23,-87,-38,34
677,8640,7,-1705,-4641,23,-87,-38,34
678,8636,14,-1705,-4642,23,-87,-38,34
679,8638,13,-1706,-4641,23,-87,-38,34
680,8639,12,-1710,-4641,23,-87,-39,35
681,8641,12,-1711,-4642,23,-87,-38,35
682,8638,13,-1713,-4643,23,-87,-38,35
683,8642,14,-1705,-4642,23,-88,-38,35
684,8639,14,-1704,-4643,23,-87,-38,35
685,8635,17,-1710,-4645,23,-87,-38,35
686,8644,17,-1716,-4644,23,-87,-38,35
687,8643,16,-1708,-4643,23,-88,-38,35
688,8644,9,-1698,-4643,23,-88,-38,35
689,8642,8,-1706,-4644,23,-88,-38,35
690,8646,6,-1713,-4643,23,-88,-38,35
691,8643,7,-1715,-4644,23,-87,-38,35
692,8642,11,-1713,-4645,23,-87,-38,34
693,8646,19,-1711,-4643,23,-87,-39,34
694,8650,16,-1711,-4642,23,-87,-39,34
695,8646,12,-1709,-4644,23,-87,-39,34
696,8638,14,-1713,-4645,23,-88,-39,34
697,8639,14,-1714,-4645,23,-87,-38,34
698,8640,11,-1704,-4646,23,-88,-38,35
699,8647,14,-1696,-4645,23,-88,-38,35
700,8647,11,-1688,-4644,23,-88,-38,35
701,8648,10,-1684,-4645,23,-87,-38,35
702,8643,10,-1694,-4644,23,-87,-38,35
703,8643,9,-1697,-4643,23,-88,-38,35
704,8642,8,-1697,-4642,23,-88,-38,35
705,8639,4,-1699,-4644,23,-88,-38,34
706,8640,2,-1696,-4645,23,-88,-38,35
707,8644,0,-1696,-4644,23,-87,-38,35
708,8647,2,-1701,-4644,23,-87,-38,34
709,8640,4,-1710,-4644,23,-86,-39,35
710,8640,6,-1710,-4645,23,-87,-39,35
711,8640,5,-1705,-4645,23,-86,-39,35
712,8639,5,-1708,-4645,23,-86,-39,35
713,8639,6,-1703,-4645,23,-86,-39,34
714,8640,2,-1694,-4645,23,-87,-38,34
715,8642,5,-1688,-4646,23,-87,-38,34
716,8640,3,-1693,-4648,23,-87,-38,34
717,8638,0,-1694,-4646,23,-87,-38,35
718,8643,1,-1690,-4647,23,-87,-38,34
719,8638,3,-1699,-4646,23,-88,-38,34
720,8639,3,-1701,-4646,23,-87,-38,35
721,8638,8,-1696,-4644,23,-88,-37,35
722,8636,7,-1705,-4644,23,-87,-37,36
723,8634,9,-1698,-4643,23,-87,-37,35
724,8634,7,-1694,-4641,23,-87,-37,35
725,8637,5,-1690,-4642,23,-87,-37,35
726,8638,3,-1692,-4641,23,-87,-38,34
727,8636,4,-1689,-4642,23,-87,-38,35
728,8639,5,-1685,-4642,23,-87,-39,35
729,8634,2,-1690,-4643,23,-87,-39,34
730,8632,3,-1697,-4643,23,-87,-39,34
731,8634,2,-1703,-4643,23,-87,-38,34
732,8635,0,-1704,-4642,23,-87,-38,35
733,8637,-3,-1692,-4643,23,-88,-38,35
734,8638,-1,-1696,-4643,23,-88,-38,35
735,8642,0,-1694,-4645,23,-88,-38,35
736,8639,1,-1693,-4646,23,-87,-39,35
737,8645,5,-1698,-4646,23,-87,-39,35
738,8644,-2,-1701,-4646,23,-87,-39,35
739,8642,-2,-1703,-4645,23,-87,-38,35
740,8637,1,-1712,-4644,23,-86,-38,35
741,8634,0,-1706,-4643,23,-87,-39,35
742,8634,3,-1702,-4645,23,-87,-38,35
743,8641,5,-1709,-4644,23,-87,-38,35
744,8645,6,-1710,-4644,23,-87,-38,35
745,8645,5,-1707,-4646,23,-88,-38,35
746,8643,9,-1707,-4646,23,-87,-38,36
747,8642,6,-1708,-4644,23,-87,-38,36
748,8642,3,-1710,-4645,23,-87,-38,36
749,8639,5,-1698,-4644,23,-88,-38,36
750,8641,5,-1702,-4644,23,-87,-38,35
751,8638,4,-1704,-4643,23,-87,-38,35
752,8638,-1,-1702,-4644,23,-87,-38,35
753,8639,1,-1695,-4644,23,-86,-38,35
754,8640,5,-1696,-4645,23,-86,-38,34
755,8639,6,-1693,-4644,23,-86,-38,34
756,8640,8,-1698,-4645,23,-87,-38,35
757,8646,10,-1699,-4645,23,-87,-38,35
758,8646,7,-1701,-4645,23,-88,-38,34
759,8647,7,-1691,-4645,23,-88,-38,34
760,8644,9,-1694,-4644,23,-87,-39,34
761,8640,5,-1693,-4645,23,-87,-39,34
762,8636,3,-1687,-4645,23,-86,-39,35
763,8642,3,-1692,-4645,23,-87,-39,35
764,8647,4,-1693,-4645,23,-87,-39,35
765,8642,1,-1702,-4645,23,-87,-39,34
766,8642,3,-1700,-4643,23,-87,-40,34
767,8638,6,-1697,-4644,23,-87,-39,34
768,8636,8,-1691,-4643,23,-87,-39,34
769,8638,9,-1702,-4642,23,-87,-39,34
770,8638,3,-1696,-4642,23,-88,-40,34
771,8640,4,-1694,-4642,23,-88,-39,34
772,8643,5,-1697,-4642,23,-87,-39,34
773,8642,7,-1696,-4643,23,-88,-39,34
774,8647,9,-1693,-4642,23,-87,-38,35
775,8649,11,-1700,-4644,23,-87,-39,35
776,8646,8,-1699,-4645,23,-88,-39,35
777,8647,2,-1701,-4643,23,-87,-39,35
778,8645,1,-1701,-4643,23,-87,-39,36
779,8643,3,-1698,-4642,23,-87,-39,36
780,8642,4,-1707,-4643,23,-87,-39,35
781,8645,10,-1708,-4642,23,-87,-38,35
782,8645,7,-1704,-4642,23,-87,-38,35
783,8642,4,-1707,-4642,23,-88,-38,35
784,8641,2,-1702,-4642,23,-88,-38,35
785,8638,2,-1699,-4641,23,-88,-38,35
786,8639,4,-1701,-4642,23,-87,-38,35
787,8636,3,-1700,-4642,23,-88,-38,35
788,8637,7,-1700,-4646,23,-87,-38,35
789,8633,7,-1699,-4645,23,-87,-38,36
790,8633,5,-1702,-4643,23,-87,-38,35
791,8633,8,-1706,-4643,23,-87,-38,35
792,8632,1,-1702,-4643,23,-88,-38,35
793,8634,6,-1700,-4643,23,-87,-38,35
794,8641,10,-1704,-4644,23,-87,-38,35
795,8639,5,-1701,-4642,23,-88,-38,34
796,8634,9,-1696,-4642,23,-88,-38,35
797,8637,8,-1691,-4642,23,-87,-38,34
798,8642,8,-1694,-4644,23,-87,-39,35
799,8643,8,-1693,-4643,23,-87,-39,35
800,8640,5,-1693,-4642,23,-88,-39,35
801,8634,7,-1697,-4642,23,-87,-38,34
802,8635,2,-1700,-4641,23,-87,-38,35
803,8638,-5,-1699,-4643,23,-87,-38,35
804,8640,-3,-1695,-4642,23,-88,-38,35
805,8641,-4,-1696,-4643,23,-88,-38,35
806,8641,6,-1696,-4644,23,-88,-38,35
807,8642,8,-1698,-4642,23,-88,-38,34
808,8642,6,-1694,-4643,23,-88,-38,34
809,8644,4,-1692,-4643,23,-87,-38,35
810,8647,6,-1689,-4643,23,-88,-38,35
811,8645,5,-1695,-4643,23,-88,-38,35
812,8642,7,-1700,-4642,23,-88,-38,36
813,8638,6,-1698,-4643,23,-88,-38,36
814,8639,5,-1694,-4644,23,-87,-38,35
815,8643,5,-1701,-4643,23,-86,-39,35
816,8639,1,-1700,-4643,23,-87,-39,35
817,8642,5,-1696,-4644,23,-87,-39,35
818,8640,7,-1696,-4644,23,-87,-39,35
819,8639,7,-1700,-4646,23,-87,-39,35
820,8639,10,-1701,-4645,23,-87,-39,35
821,8641,9,-1705,-4645,23,-87,-38,35
822,8640,7,-1706,-4642,23,-87,-38,35
823,8640,8,-1707,-4642,23,-87,-39,35
824,8637,8,-1694,-4641,23,-88,-38,35
825,8637,9,-1695,-4642,23,-88,-37,35
826,8636,11,-1704,-4643,23,-88,-38,35
827,8639,10,-1712,-4644,23,-87,-38,35
828,8642,10,-1714,-4643,23,-88,-38,35
829,8639,9,-1713,-4643,23,-88,-39,35
830,8638,12,-1708,-4642,23,-88,-39,36
831,8636,8,-1704,-4641,23,-88,-38,35
832,8641,8,-1706,-4641,23,-88,-38,35
833,8642,11,-1708,-4641,23,-88,-38,35
834,8636,8,-1712,-4642,23,-87,-38,35
835,8636,8,-1709,-4642,23,-87,-39,36
836,8635,7,-1705,-4642,23,-88,-38,35
837,8635,9,-1703,-4642,23,-88,-39,35
838,8637,1,-1705,-4642,23,-87,-38,36
839,8640,1,-1703,-4643,23,-87,-38,35
840,8640,2,-1695,-4642,23,-87,-38,35
841,8642,3,-1695,-4642,23,-87,-38,35
842,8640,2,-1696,-4643,23,-87,-38,35
843,8639,-3,-1692,-4643,23,-87,-38,35
844,8645,-3,-1694,-4642,23,-87,-38,35
845,8645,-3,-1695,-4642,23,-87,-38,35
846,8651,-1,-1695,-4643,23,-87,-38,35
847,8649,3,-1690,-4642,23,-87,-38,35
848,8644,10,-1693,-4642,23,-88,-38,35
849,8639,13,-1692,-4644,23,-88,-38,35
850,8636,16,-1698,-4642,23,-87,-38,35
851,8637,16,-1693,-4642,23,-88,-38,34
852,8643,6,-1693,-4643,23,-87,-38,34
853,8640,3,-1693,-4642,23,-87,-38,34
854,8639,3,-1695,-4645,23,-87,-38,34
855,8641,3,-1699,-4644,23,-87,-38,34
856,8643,3,-1701,-4645,23,-88,-39,34
857,8642,3,-1702,-4645,23,-88,-39,34
858,8638,6,-1701,-4643,23,-88,-39,34
859,8638,11,-1697,-4644,23,-88,-39,34
860,8637,11,-1688,-4643,23,-88,-39,34
861,8636,9,-1687,-4643,23,-88,-39,34
862,8633,11,-1693,-4643,23,-88,-39,34
863,8634,7,-1695,-4642,23,-88,-39,34
864,8634,4,-1688,-4642,23,-88,-38,34
865,8630,4,-1690,-4641,23,-88,-39,34
866,8631,7,-1707,-4640,23,-88,-39,34
867,8629,7,-1709,-4640,23,-88,-40,34
868,8629,7,-1706,-4641,23,-88,-39,34
869,8633,10,-1705,-4640,23,-87,-39,35
870,8635,8,-1709,-4642,23,-87,-38,35
871,8635,8,-1707,-4644,23,-87,-38,35
872,8634,12,-1706,-4644,23,-87,-39,35
873,8637,8,-1710,-4643,23,-87,-39,35
874,8638,7,-1707,-4643,23,-86,-39,35
875,8637,5,-1706,-4643,23,-87,-39,35
876,8638,4,-1706,-4642,23,-86,-38,36
877,8639,3,-1698,-4643,23,-87,-38,36
878,8639,7,-1703,-4643,23,-87,-38,36
879,8641,6,-1701,-4641,23,-87,-38,36
880,8637,10,-1703,-4641,23,-88,-38,35
881,8641,5,-1694,-4642,23,-88,-38,35
882,8640,9,-1694,-4642,23,-88,-38,35
883,8639,9,-1697,-4643,23,-88,-38,34
884,8636,9,-1698,-4641,23,-88,-38,34
885,8636,4,-1696,-4640,23,-88,-38,34
886,8634,9,-1698,-4640,23,-88,-38,35
887,8634,7,-1697,-4641,23,-88,-38,35
888,8637,3,-1701,-4640,23,-87,-38,35
889,8637,9,-1700,-4641,23,-87,-39,35
890,8632,7,-1704,-4644,23,-87,-39,35
891,8634,4,-1706,-4642,23,-87,-39,35
892,8632,8,-1705,-4642,23,-87,-39,35
893,8633,5,-1706,-4642,23,-87,-39,34
894,8635,5,-1704,-4643,23,-87,-39,34
895,8634,10,-1708,-4643,23,-87,-39,34
896,8632,10,-1704,-4643,23,-87,-39,33
897,8631,8,-1702,-4643,23,-87,-38,34
898,8630,6,-1696,-4643,23,-87,-38,33
899,8633,4,-1700,-4644,23,-88,-38,34
900,8637,5,-1702,-4644,23,-88,-38,34
901,8634,4,-1702,-4644,23,-88,-38,35
902,8639,7,-1692,-4642,23,-88,-38,35
903,8639,10,-1686,-4641,23,-88,-37,35
904,8637,8,-1689,-4641,23,-88,-37,35
905,8638,7,-1695,-4641,23,-88,-38,35
906,8632,13,-1699,-4641,23,-87,-38,35
907,8635,12,-1702,-4642,23,-87,-39,35
908,8634,13,-1697,-4642,23,-87,-38,35
909,8635,4,-1699,-4643,23,-87,-38,34
910,8636,4,-1700,-4642,23,-87,-38,34
911,8638,7,-1698,-4643,23,-87,-39,34
912,8633,8,-1696,-4645,23,-87,-39,34
913,8641,13,-1701,-4644,23,-87,-38,34
914,8642,9,-1695,-4644,23,-88,-38,34
915,8644,5,-1694,-4643,23,-87,-38,33
916,8643,8,-1694,-4641,23,-88,-38,33
917,8645,12,-1703,-4643,23,-88,-38,33
918,8644,9,-1698,-4644,23,-87,-38,34
919,8643,6,-1701,-4645,23,-87,-38,34
920,8642,7,-1704,-4644,23,-88,-37,33
921,8641,6,-1701,-4641,23,-87,-37,34
922,8639,10,-1690,-4643,23,-87,-38,34
923,8635,9,-1692,-4642,23,-87,-38,34
924,8636,7,-1701,-4641,23,-86,-38,34
925,8636,5,-1701,-4640,23,-87,-38,34
926,8636,5,-1703,-4641,23,-87,-38,35
927,8637,6,-1696,-4642,23,-86,-38,35
928,8630,9,-1694,-4642,23,-87,-38,35
929,8634,5,-1699,-4642,23,-87,-37,35
930,8636,4,-1706,-4641,23,-86,-38,35
931,8635,10,-1705,-4642,23,-87,-37,35
932,8634,13,-1706,-4643,23,-87,-37,35
933,8634,11,-1702,-4644,23,-87,-37,35
934,8638,11,-1695,-4644,23,-87,-39,35
935,8635,8,-1690,-4643,23,-87,-38,35
936,8640,6,-1685,-4643,23,-87,-38,35
937,8641,4,-1687,-4643,23,-87,-38,35
938,8637,3,-1686,-4642,23,-86,-38,35
939,8636,2,-1691,-4642,23,-87,-38,35
940,8634,2,-1689,-4641,23,-87,-39,35
941,8634,5,-1688,-4641,23,-87,-38,35
942,8632,4,-1693,-4641,23,-87,-38,34
943,8637,10,-1693,-4638,23,-88,-38,34
944,8640,7,-1695,-4640,23,-87,-38,34
945,8633,5,-1693,-4640,23,-87,-38,34
946,8630,0,-1693,-4641,23,-87,-38,34
947,8635,-4,-1697,-4643,23,-87,-38,34
948,8639,-3,-1702,-4642,23,-87,-37,35
949,8637,-3,-1708,-4639,23,-87,-38,34
950,8637,0,-1705,-4640,23,-87,-37,34
951,8637,-1,-1703,-4639,23,-87,-38,34
952,8636,2,-1698,-4637,23,-87,-37,35
953,8635,3,-1705,-4635,23,-87,-38,34
954,8638,6,-1704,-4636,23,-87,-38,34
955,8638,10,-1698,-4637,23,-87,-39,34
956,8641,4,-1689,-4638,23,-87,-39,34
957,8642,3,-1694,-4638,23,-87,-38,34
958,8640,4,-1697,-4639,23,-87,-38,34
959,8637,1,-1696,-4640,23,-87,-38,35
960,8637,3,-1686,-4641,23,-88,-38,34
961,8635,3,-1691,-4640,23,-88,-38,35
962,8630,3,-1690,-4640,23,-88,-39,35
963,8634,3,-1696,-4643,23,-88,-39,35
964,8638,6,-1697,-4644,23,-87,-39,35
965,8639,5,-1703,-4643,23,-87,-39,35
966,8639,-1,-1704,-4644,23,-87,-39,35
967,8643,-3,-1703,-4642,23,-87,-38,34
968,8643,-1,-1705,-4642,23,-87,-38,34
969,8643,-4,-1709,-4642,23,-87,-39,34
970,8641,-2,-1708,-4641,23,-87,-38,34
971,8645,1,-1696,-4643,23,-87,-39,34
972,8644,3,-1699,-4643,23,-87,-38,34
973,8645,2,-1701,-4642,23,-87,-39,34
974,8646,-1,-1696,-4642,23,-87,-39,34
975,8640,2,-1705,-4641,23,-87,-39,34
976,8633,3,-1705,-4643,23,-87,-39,34
977,8632,3,-1707,-4644,23,-87,-39,34
978,8629,4,-1709,-4643,23,-88,-39,34
979,8627,7,-1709,-4643,23,-87,-39,34
980,8630,10,-1705,-4641,23,-88,-38,35
981,8634,12,-1696,-4642,23,-87,-38,35
982,8630,9,-1695,-4643,23,-87,-38,35
983,8632,6,-1699,-4644,23,-87,-38,35
984,8630,4,-1702,-4642,23,-87,-38,35
985,8635,5,-1696,-4643,23,-87,-38,35
986,8637,10,-1689,-4645,23,-88,-38,35
987,8640,10,-1686,-4644,23,-87,-37,35
988,8641,7,-1683,-4646,23,-87,-37,35
989,8639,7,-1690,-4644,23,-87,-38,35
990,8642,6,-1692,-4645,23,-87,-39,34
991,8637,3,-1691,-4646,23,-87,-39,35
992,8637,3,-1688,-4646,23,-88,-39,35
993,8639,9,-1689,-4646,23,-87,-39,35
994,8641,14,-1690,-4644,23,-87,-38,35
995,8642,14,-1691,-4643,23,-87,-39,35
996,8639,18,-1701,-4641,23,-87,-39,35
997,8635,18,-1703,-4641,23,-87,-39,35
998,8642,16,-1699,-4642,23,-87,-39,35
