,acc_X,acc_Y,acc_Z,temp,tempC,gyr_X,gyr_Y,gyr_Z
0,4318,3,-849,-4656,23,-351,-153,141
1,4315,4,-847,-4655,23,-350,-150,142
2,4315,4,-846,-4653,23,-350,-150,142
3,4315,5,-844,-4653,23,-348,-149,142
4,4312,4,-847,-4653,23,-350,-149,140
5,4315,4,-845,-4653,23,-350,-149,142
6,4315,4,-844,-4654,23,-351,-148,141
7,4315,5,-845,-4652,23,-349,-149,140
8,4316,5,-843,-4653,23,-347,-150,141
9,4318,2,-844,-4651,23,-349,-153,143
10,4316,2,-844,-4651,23,-349,-153,143
11,4316,2,-846,-4651,23,-349,-153,141
12,4317,1,-846,-4652,23,-348,-153,141
13,4317,0,-847,-4651,23,-348,-156,138
14,4317,0,-842,-4653,23,-348,-154,138
15,4317,2,-843,-4651,23,-350,-152,141
16,4314,4,-844,-4653,23,-349,-155,140
17,4315,6,-844,-4652,23,-348,-152,140
18,4316,6,-846,-4653,23,-349,-153,140
19,4317,6,-843,-4653,23,-349,-152,138
20,4319,5,-848,-4652,23,-348,-151,140
21,4316,4,-850,-4653,23,-348,-149,139
22,4318,4,-852,-4651,23,-349,-150,139
23,4315,6,-854,-4652,23,-348,-152,140
24,4317,3,-852,-4656,23,-349,-150,139
25,4316,2,-848,-4656,23,-351,-149,139
26,4316,2,-847,-4654,23,-351,-148,138
27,4316,1,-849,-4656,23,-351,-147,138
28,4317,3,-849,-4655,23,-349,-146,139
29,4318,4,-851,-4655,23,-348,-147,140
30,4319,5,-856,-4657,23,-348,-150,140
31,4318,3,-856,-4658,23,-349,-149,140
32,4320,3,-857,-4658,23,-349,-151,142
33,4317,3,-854,-4658,23,-350,-150,141
34,4318,3,-856,-4659,23,-352,-148,140
35,4317,5,-855,-4659,23,-348,-148,142
36,4317,4,-853,-4657,23,-349,-150,142
37,4317,6,-852,-4654,23,-348,-150,139
38,4317,6,-850,-4654,23,-347,-152,141
39,4316,4,-848,-4656,23,-348,-152,141
40,4317,2,-847,-4654,23,-349,-150,142
41,4317,1,-847,-4653,23,-348,-149,140
42,4317,2,-844,-4652,23,-349,-149,139
43,4321,2,-844,-4653,23,-349,-148,139
44,4319,0,-844,-4650,23,-348,-148,138
45,4319,0,-849,-4653,23,-348,-148,137
46,4319,0,-850,-4651,23,-347,-150,138
47,4318,-3,-846,-4651,23,-346,-150,139
48,4320,-3,-850,-4652,23,-348,-149,140
49,4320,-3,-847,-4650,23,-349,-151,140
50,4322,-2,-851,-4651,23,-350,-151,139
51,4319,0,-851,-4651,23,-347,-151,140
52,4321,2,-854,-4652,23,-348,-151,140
53,4320,4,-854,-4653,23,-348,-148,142
54,4320,7,-850,-4655,23,-347,-147,142
55,4316,5,-854,-4656,23,-347,-149,140
56,4318,2,-850,-4656,23,-346,-148,139
57,4318,2,-854,-4657,23,-348,-149,140
58,4317,4,-850,-4657,23,-347,-150,140
59,4320,6,-851,-4656,23,-347,-149,140
60,4318,5,-845,-4656,23,-345,-149,142
61,4317,3,-845,-4658,23,-345,-150,141
62,4318,3,-849,-4657,23,-348,-150,139
63,4320,4,-848,-4657,23,-349,-151,141
64,4320,3,-848,-4657,23,-350,-151,141
65,4318,3,-846,-4655,23,-348,-153,139
66,4317,5,-846,-4653,23,-348,-153,138
67,4317,4,-850,-4652,23,-348,-152,139
68,4317,1,-850,-4651,23,-348,-151,139
69,4317,1,-850,-4651,23,-346,-150,140
70,4320,0,-848,-4651,23,-346,-151,139
71,4320,0,-847,-4653,23,-345,-151,141
72,4319,0,-849,-4653,23,-344,-149,142
73,4319,3,-851,-4655,23,-346,-150,144
74,4319,2,-848,-4655,23,-347,-148,141
75,4319,4,-852,-4654,23,-349,-147,141
76,4319,3,-854,-4655,23,-349,-148,140
77,4319,3,-854,-4655,23,-351,-148,141
78,4322,3,-853,-4655,23,-350,-148,139
79,4325,3,-850,-4652,23,-348,-148,139
80,4324,2,-848,-4654,23,-348,-147,139
81,4325,3,-846,-4653,23,-346,-148,138
82,4322,4,-846,-4653,23,-346,-147,139
83,4321,3,-845,-4653,23,-347,-148,141
84,4320,6,-846,-4654,23,-348,-151,140
85,4320,5,-845,-4653,23,-347,-151,140
86,4320,4,-846,-4653,23,-345,-151,142
87,4319,6,-845,-4653,23,-345,-151,141
88,4320,7,-842,-4653,23,-348,-152,140
89,4320,8,-846,-4653,23,-347,-153,138
90,4319,7,-845,-4654,23,-349,-153,137
91,4317,5,-844,-4653,23,-350,-152,138
92,4318,4,-846,-4652,23,-349,-154,141
93,4320,5,-845,-4653,23,-347,-153,143
94,4323,6,-844,-4652,23,-348,-153,146
95,4322,3,-845,-4652,23,-349,-153,145
96,4321,3,-844,-4652,23,-349,-154,144
97,4321,4,-841,-4652,23,-346,-153,141
98,4320,0,-840,-4652,23,-346,-152,142
99,4320,2,-846,-4650,23,-345,-151,141
100,4319,2,-846,-4650,23,-345,-153,141
101,4320,4,-846,-4650,23,-349,-155,142
102,4321,5,-846,-4650,23,-348,-155,140
103,4321,4,-846,-4652,23,-346,-154,143
104,4319,2,-844,-4652,23,-346,-155,142
105,4319,2,-848,-4653,23,-346,-154,142
106,4319,0,-847,-4651,23,-346,-154,144
107,4317,1,-848,-4653,23,-345,-154,142
108,4316,1,-849,-4652,23,-347,-153,142
109,4316,3,-853,-4651,23,-348,-152,141
110,4315,5,-851,-4651,23,-347,-151,141
111,4315,6,-853,-4650,23,-345,-153,141
112,4314,6,-850,-4649,23,-347,-153,140
113,4315,4,-848,-4650,23,-348,-152,140
114,4319,6,-844,-4651,23,-348,-154,140
115,4320,4,-838,-4650,23,-349,-152,139
116,4322,2,-840,-4650,23,-351,-153,139
117,4324,3,-842,-4652,23,-350,-150,139
118,4321,4,-841,-4653,23,-348,-149,139
119,4323,5,-840,-4654,23,-349,-151,140
120,4322,7,-845,-4653,23,-347,-152,140
121,4320,7,-847,-4653,23,-348,-154,141
122,4319,7,-848,-4652,23,-347,-152,139
123,4320,7,-847,-4652,23,-346,-149,142
124,4318,6,-849,-4651,23,-346,-151,141
125,4319,4,-848,-4651,23,-348,-150,140
126,4317,4,-847,-4649,23,-348,-151,140
127,4315,1,-847,-4650,23,-346,-152,139
128,4316,4,-846,-4650,23,-348,-154,138
129,4317,6,-846,-4650,23,-348,-153,138
130,4314,3,-844,-4651,23,-347,-152,139
131,4317,3,-846,-4650,23,-348,-151,140
132,4317,0,-846,-4651,23,-347,-152,142
133,4317,2,-847,-4652,23,-348,-154,143
134,4317,5,-847,-4652,23,-348,-153,143
135,4319,4,-850,-4653,23,-348,-150,143
136,4319,3,-849,-4654,23,-347,-151,142
137,4318,0,-850,-4654,23,-349,-148,142
138,4319,-1,-850,-4654,23,-349,-149,140
139,4318,-1,-848,-4655,23,-350,-148,141
140,4318,-1,-846,-4653,23,-348,-149,141
141,4321,0,-844,-4652,23,-350,-150,141
142,4319,1,-842,-4652,23,-350,-150,140
143,4320,3,-845,-4652,23,-348,-150,138
144,4320,4,-845,-4653,23,-346,-152,139
145,4321,4,-845,-4653,23,-346,-150,138
146,4324,6,-845,-4654,23,-346,-149,138
147,4322,7,-847,-4654,23,-344,-149,138
148,4321,6,-846,-4654,23,-343,-150,139
149,4320,7,-851,-4654,23,-345,-152,138
150,4323,5,-851,-4655,23,-344,-152,138
151,4318,5,-853,-4655,23,-345,-154,137
152,4317,3,-853,-4655,23,-349,-154,137
153,4318,2,-853,-4655,23,-351,-155,139
154,4317,-1,-854,-4655,23,-351,-153,139
155,4317,1,-856,-4654,23,-352,-154,140
156,4318,1,-854,-4653,23,-351,-152,140
157,4317,0,-852,-4653,23,-349,-153,139
158,4319,2,-849,-4652,23,-349,-154,142
159,4318,0,-848,-4651,23,-348,-153,142
160,4318,1,-847,-4651,23,-349,-154,139
161,4317,-1,-850,-4652,23,-349,-151,137
162,4318,0,-853,-4651,23,-349,-153,140
163,4319,0,-851,-4651,23,-349,-151,140
164,4317,0,-851,-4650,23,-350,-153,142
165,4317,1,-853,-4650,23,-348,-153,142
166,4318,2,-854,-4649,23,-347,-154,140
167,4317,2,-849,-4648,23,-348,-151,139
168,4317,2,-846,-4650,23,-348,-152,138
169,4318,3,-843,-4652,23,-348,-151,139
170,4318,4,-844,-4651,23,-347,-153,139
171,4319,4,-845,-4650,23,-347,-154,140
172,4319,5,-850,-4648,23,-346,-151,141
173,4319,4,-851,-4649,23,-347,-149,140
174,4320,5,-849,-4649,23,-348,-149,140
175,4321,4,-851,-4651,23,-348,-148,142
176,4322,6,-850,-4652,23,-348,-150,141
177,4320,7,-850,-4651,23,-347,-150,141
178,4320,6,-854,-4650,23,-346,-151,140
179,4321,7,-854,-4651,23,-347,-150,140
180,4321,5,-855,-4652,23,-348,-150,140
181,4321,4,-852,-4651,23,-350,-151,141
182,4322,3,-852,-4654,23,-350,-151,141
183,4320,1,-853,-4651,23,-349,-150,141
184,4320,2,-854,-4650,23,-346,-151,140
185,4319,5,-856,-4651,23,-348,-151,141
186,4319,7,-856,-4650,23,-346,-152,141
187,4317,3,-854,-4649,23,-347,-151,140
188,4316,5,-852,-4649,23,-347,-150,139
189,4317,5,-846,-4649,23,-346,-149,140
190,4317,7,-846,-4650,23,-347,-151,138
191,4317,7,-845,-4651,23,-347,-150,139
192,4316,6,-846,-4652,23,-348,-151,138
193,4316,0,-848,-4652,23,-347,-153,138
194,4316,0,-844,-4651,23,-349,-154,138
195,4315,3,-847,-4651,23,-349,-155,139
196,4316,5,-848,-4653,23,-349,-158,140
197,4318,4,-848,-4652,23,-350,-158,138
198,4319,2,-848,-4653,23,-349,-157,137
199,4320,4,-849,-4652,23,-348,-155,136
200,4320,4,-854,-4652,23,-349,-154,137
201,4321,6,-852,-4649,23,-349,-154,136
202,4322,4,-849,-4650,23,-348,-150,136
203,4322,4,-849,-4651,23,-346,-150,137
204,4322,3,-849,-4653,23,-346,-149,139
205,4322,2,-851,-4652,23,-349,-149,139
206,4322,2,-852,-4651,23,-349,-150,140
207,4318,2,-854,-4650,23,-349,-150,140
208,4316,3,-851,-4651,23,-347,-149,139
209,4315,2,-851,-4650,23,-346,-151,140
210,4316,3,-852,-4650,23,-347,-150,141
211,4315,1,-847,-4651,23,-347,-152,141
212,4316,0,-850,-4649,23,-347,-151,141
213,4317,1,-846,-4648,23,-348,-150,141
214,4315,4,-849,-4648,23,-348,-149,140
215,4313,4,-850,-4648,23,-346,-148,140
216,4313,5,-851,-4649,23,-347,-148,139
217,4316,3,-846,-4651,23,-347,-149,139
218,4314,4,-848,-4651,23,-349,-149,138
219,4316,5,-845,-4650,23,-347,-150,139
220,4318,6,-846,-4652,23,-348,-151,138
221,4318,7,-845,-4653,23,-347,-151,139
222,4317,8,-846,-4652,23,-345,-150,141
223,4318,7,-846,-4653,23,-345,-148,142
224,4317,6,-846,-4653,23,-347,-148,142
225,4319,6,-844,-4652,23,-346,-149,142
226,4318,4,-846,-4652,23,-347,-150,141
227,4317,3,-844,-4652,23,-347,-149,141
228,4319,2,-847,-4652,23,-347,-148,138
229,4317,2,-846,-4651,23,-349,-149,137
230,4319,0,-844,-4651,23,-350,-149,139
231,4319,1,-843,-4651,23,-349,-149,140
232,4319,-2,-847,-4651,23,-350,-150,140
233,4318,-3,-849,-4651,23,-349,-151,140
234,4318,0,-848,-4654,23,-352,-152,139
235,4319,-1,-851,-4652,23,-351,-151,139
236,4321,-1,-850,-4651,23,-349,-151,141
237,4321,-1,-849,-4650,23,-349,-151,140
238,4320,1,-850,-4650,23,-348,-149,140
239,4318,4,-848,-4652,23,-349,-147,138
240,4316,3,-845,-4652,23,-350,-148,141
241,4314,4,-847,-4652,23,-350,-150,141
242,4313,5,-849,-4653,23,-350,-151,142
243,4314,5,-846,-4651,23,-350,-152,143
244,4317,4,-847,-4650,23,-350,-151,142
245,4318,3,-849,-4651,23,-351,-147,141
246,4318,4,-849,-4653,23,-350,-148,142
247,4319,2,-845,-4652,23,-350,-150,139
248,4319,2,-844,-4653,23,-348,-150,137
249,4318,3,-849,-4652,23,-347,-151,139
250,4318,1,-850,-4654,23,-346,-152,139
251,4319,2,-847,-4655,23,-346,-151,138
252,4316,2,-846,-4655,23,-347,-151,136
253,4317,2,-846,-4654,23,-347,-152,136
254,4314,1,-844,-4653,23,-347,-151,138
255,4316,0,-848,-4653,23,-348,-151,137
256,4317,1,-852,-4653,23,-347,-151,137
257,4319,3,-851,-4652,23,-345,-152,137
258,4319,2,-853,-4652,23,-344,-151,138
259,4320,2,-854,-4649,23,-346,-149,140
260,4322,1,-853,-4650,23,-345,-148,140
261,4321,2,-852,-4651,23,-347,-150,138
262,4321,3,-853,-4650,23,-349,-150,142
263,4322,0,-848,-4651,23,-348,-150,142
264,4323,-1,-847,-4650,23,-348,-151,145
265,4322,0,-847,-4651,23,-350,-148,145
266,4319,1,-845,-4652,23,-350,-149,142
267,4321,-2,-846,-4650,23,-349,-148,143
268,4317,-2,-850,-4652,23,-349,-148,142
269,4318,1,-849,-4652,23,-351,-147,144
270,4321,0,-849,-4652,23,-348,-147,142
271,4319,1,-847,-4653,23,-349,-147,140
272,4319,4,-843,-4653,23,-349,-149,138
273,4317,5,-842,-4653,23,-349,-147,138
274,4319,4,-843,-4652,23,-349,-148,141
275,4319,3,-844,-4653,23,-350,-149,142
276,4319,1,-848,-4652,23,-350,-150,141
277,4318,2,-850,-4651,23,-349,-147,140
278,4318,2,-848,-4650,23,-349,-148,141
279,4316,4,-848,-4651,23,-348,-149,141
280,4316,5,-851,-4651,23,-346,-147,141
281,4318,2,-848,-4651,23,-345,-147,140
282,4319,2,-846,-4650,23,-345,-146,143
283,4318,2,-842,-4651,23,-346,-145,140
284,4318,3,-843,-4649,23,-347,-146,140
285,4318,0,-843,-4650,23,-345,-147,142
286,4321,-1,-842,-4650,23,-345,-150,141
287,4321,-4,-843,-4650,23,-344,-151,140
288,4317,-2,-846,-4650,23,-344,-151,140
289,4316,-2,-848,-4652,23,-345,-149,141
290,4316,1,-844,-4653,23,-345,-149,140
291,4315,-1,-841,-4654,23,-347,-150,140
292,4315,2,-840,-4654,23,-346,-149,139
293,4316,3,-845,-4655,23,-346,-149,140
294,4317,6,-845,-4655,23,-346,-146,139
295,4316,6,-848,-4655,23,-350,-147,139
296,4318,4,-846,-4654,23,-348,-149,138
297,4318,4,-841,-4653,23,-350,-149,138
298,4318,6,-842,-4652,23,-350,-149,136
299,4318,6,-845,-4652,23,-348,-151,136
300,4320,3,-846,-4651,23,-346,-152,137
301,4321,5,-843,-4651,23,-345,-151,139
302,4320,3,-845,-4652,23,-346,-152,140
303,4320,3,-847,-4652,23,-347,-153,141
304,4319,3,-848,-4655,23,-348,-150,140
305,4319,1,-846,-4654,23,-349,-147,138
306,4321,1,-848,-4654,23,-348,-150,138
307,4320,0,-848,-4654,23,-349,-152,137
308,4321,2,-847,-4652,23,-347,-152,139
309,4322,2,-850,-4653,23,-347,-151,139
310,4319,2,-851,-4654,23,-348,-149,138
311,4320,1,-852,-4654,23,-347,-149,138
312,4320,-2,-852,-4652,23,-347,-147,139
313,4319,-4,-850,-4651,23,-347,-146,140
314,4318,-1,-848,-4651,23,-348,-149,139
315,4317,-1,-846,-4650,23,-346,-147,140
316,4317,1,-846,-4650,23,-348,-147,141
317,4315,0,-845,-4650,23,-347,-149,141
318,4316,1,-845,-4651,23,-348,-148,141
319,4317,-2,-843,-4650,23,-350,-149,141
320,4317,-2,-845,-4649,23,-350,-150,141
321,4313,1,-844,-4648,23,-348,-150,139
322,4314,0,-848,-4648,23,-346,-151,140
323,4314,1,-846,-4649,23,-344,-152,138
324,4315,0,-846,-4649,23,-345,-153,137
325,4315,1,-846,-4650,23,-347,-154,136
326,4314,2,-848,-4649,23,-350,-155,135
327,4313,2,-850,-4648,23,-350,-154,135
328,4313,4,-845,-4648,23,-348,-152,134
329,4315,7,-849,-4649,23,-349,-152,135
330,4315,7,-853,-4650,23,-347,-152,137
331,4316,4,-853,-4651,23,-348,-151,137
332,4317,5,-850,-4651,23,-348,-150,139
333,4314,3,-850,-4651,23,-346,-151,139
334,4316,3,-848,-4648,23,-346,-150,138
335,4320,6,-847,-4648,23,-348,-150,139
336,4320,4,-847,-4648,23,-349,-151,138
337,4321,2,-845,-4649,23,-349,-151,140
338,4320,2,-848,-4650,23,-346,-149,139
339,4318,4,-847,-4649,23,-348,-150,140
340,4320,3,-846,-4650,23,-346,-149,138
341,4322,2,-844,-4651,23,-349,-147,137
342,4320,1,-847,-4649,23,-348,-147,139
343,4318,2,-849,-4650,23,-349,-149,140
344,4317,2,-847,-4649,23,-348,-149,140
345,4316,3,-849,-4648,23,-348,-151,138
346,4318,3,-853,-4649,23,-349,-151,138
347,4318,4,-855,-4649,23,-349,-152,140
348,4317,4,-858,-4650,23,-347,-149,139
349,4319,3,-862,-4650,23,-345,-150,140
350,4319,4,-859,-4651,23,-347,-149,140
351,4317,0,-853,-4648,23,-346,-148,139
352,4317,2,-849,-4649,23,-345,-149,140
353,4319,3,-852,-4649,23,-345,-150,139
354,4321,3,-851,-4647,23,-346,-151,139
355,4321,3,-848,-4647,23,-346,-150,139
356,4320,2,-850,-4648,23,-348,-148,139
357,4320,2,-849,-4646,23,-348,-149,138
358,4319,3,-850,-4647,23,-349,-147,141
359,4318,2,-853,-4647,23,-347,-147,142
360,4318,1,-848,-4647,23,-349,-146,142
361,4318,1,-849,-4648,23,-345,-145,143
362,4320,2,-851,-4648,23,-345,-148,144
363,4320,2,-853,-4646,23,-346,-148,144
364,4320,3,-852,-4647,23,-346,-152,145
365,4321,2,-852,-4648,23,-347,-151,142
366,4318,2,-853,-4647,23,-346,-152,141
367,4318,0,-852,-4648,23,-344,-149,140
368,4319,-2,-853,-4649,23,-345,-151,140
369,4319,-3,-851,-4649,23,-344,-152,140
370,4321,-1,-847,-4648,23,-343,-152,138
371,4321,0,-846,-4647,23,-345,-152,139
372,4320,1,-847,-4647,23,-346,-151,139
373,4319,3,-847,-4648,23,-347,-153,140
374,4320,1,-848,-4649,23,-347,-154,140
375,4321,4,-849,-4649,23,-349,-154,140
376,4321,2,-850,-4648,23,-351,-151,137
377,4325,2,-854,-4648,23,-349,-150,140
378,4322,2,-853,-4647,23,-349,-149,140
379,4320,2,-851,-4648,23,-348,-149,140
380,4321,1,-849,-4648,23,-348,-149,141
381,4321,4,-852,-4650,23,-348,-150,141
382,4322,6,-852,-4650,23,-347,-148,139
383,4320,6,-851,-4650,23,-349,-151,138
384,4319,9,-850,-4650,23,-349,-150,137
385,4318,6,-855,-4650,23,-349,-149,139
386,4318,4,-852,-4651,23,-350,-148,140
387,4318,5,-852,-4652,23,-349,-148,143
388,4320,6,-855,-4651,23,-348,-148,143
389,4320,5,-852,-4651,23,-349,-146,141
390,4320,4,-850,-4650,23,-349,-149,139
391,4321,4,-846,-4649,23,-347,-151,140
392,4320,3,-845,-4647,23,-348,-154,139
393,4318,3,-843,-4649,23,-349,-155,139
394,4315,3,-842,-4648,23,-349,-156,139
395,4317,4,-844,-4649,23,-347,-156,138
396,4318,5,-843,-4648,23,-347,-155,140
397,4318,5,-844,-4648,23,-346,-154,141
398,4318,3,-846,-4650,23,-345,-153,141
399,4319,3,-848,-4651,23,-346,-152,141
400,4320,3,-849,-4652,23,-347,-152,139
401,4319,2,-849,-4652,23,-348,-153,138
402,4321,3,-850,-4652,23,-348,-153,137
403,4320,1,-851,-4652,23,-346,-152,139
404,4317,3,-853,-4652,23,-345,-151,139
405,4319,2,-853,-4652,23,-344,-151,141
406,4320,1,-853,-4652,23,-346,-150,142
407,4317,5,-851,-4652,23,-346,-149,141
408,4317,5,-848,-4652,23,-347,-150,141
409,4318,7,-847,-4649,23,-346,-150,139
410,4318,7,-849,-4649,23,-348,-148,140
411,4318,7,-845,-4649,23,-346,-148,141
412,4319,8,-845,-4651,23,-346,-149,142
413,4319,9,-843,-4652,23,-347,-150,140
414,4320,8,-847,-4652,23,-348,-149,141
415,4322,6,-845,-4652,23,-347,-152,143
416,4324,5,-847,-4652,23,-347,-150,143
417,4323,6,-849,-4651,23,-345,-152,142
418,4319,5,-848,-4650,23,-347,-154,142
419,4317,6,-846,-4651,23,-347,-151,142
420,4320,5,-846,-4651,23,-347,-152,139
421,4320,5,-848,-4652,23,-347,-151,139
422,4320,6,-846,-4650,23,-348,-151,141
423,4317,4,-849,-4649,23,-347,-150,140
424,4320,4,-849,-4649,23,-350,-149,140
425,4321,4,-848,-4648,23,-350,-149,138
426,4319,4,-846,-4647,23,-347,-151,138
427,4321,4,-848,-4646,23,-346,-150,135
428,4319,1,-850,-4647,23,-346,-152,136
429,4319,-1,-848,-4646,23,-349,-153,137
430,4318,2,-846,-4644,23,-347,-152,137
431,4317,2,-844,-4647,23,-352,-152,139
432,4318,1,-847,-4647,23,-350,-151,140
433,4317,1,-847,-4646,23,-351,-150,140
434,4316,3,-847,-4647,23,-349,-151,137
435,4317,0,-848,-4647,23,-348,-152,137
436,4319,0,-849,-4646,23,-349,-153,137
437,4318,1,-846,-4646,23,-349,-151,137
438,4317,2,-851,-4649,23,-353,-151,139
439,4317,2,-847,-4649,23,-352,-150,137
440,4318,2,-845,-4651,23,-350,-152,138
441,4319,-1,-844,-4651,23,-349,-152,139
442,4316,-2,-843,-4651,23,-348,-151,141
443,4317,-1,-845,-4651,23,-347,-152,140
444,4316,-1,-844,-4653,23,-346,-152,141
445,4316,2,-846,-4651,23,-348,-151,141
446,4316,4,-845,-4651,23,-346,-151,139
447,4317,2,-841,-4649,23,-346,-151,141
448,4319,3,-842,-4647,23,-348,-152,142
449,4318,2,-842,-4645,23,-348,-151,141
450,4319,5,-848,-4644,23,-348,-150,140
451,4319,6,-850,-4646,23,-346,-149,140
452,4321,6,-852,-4645,23,-346,-150,139
453,4321,5,-849,-4646,23,-344,-152,140
454,4320,6,-849,-4648,23,-342,-151,141
455,4318,5,-850,-4647,23,-342,-152,141
456,4316,3,-850,-4647,23,-341,-152,141
457,4317,3,-849,-4648,23,-341,-150,141
458,4315,3,-850,-4648,23,-345,-148,141
459,4316,2,-850,-4647,23,-345,-148,140
460,4320,2,-849,-4647,23,-346,-149,139
461,4318,1,-852,-4646,23,-349,-151,139
462,4318,3,-851,-4644,23,-350,-149,139
463,4320,4,-846,-4647,23,-350,-148,141
464,4319,5,-847,-4647,23,-350,-151,141
465,4320,4,-849,-4647,23,-349,-150,141
466,4322,3,-847,-4648,23,-350,-151,140
467,4324,4,-848,-4650,23,-349,-151,139
468,4323,6,-851,-4650,23,-347,-149,138
469,4324,7,-850,-4651,23,-347,-152,139
470,4323,6,-850,-4650,23,-347,-153,138
471,4322,4,-845,-4649,23,-349,-151,139
472,4321,1,-845,-4650,23,-350,-152,140
473,4322,2,-845,-4650,23,-351,-151,141
474,4324,3,-847,-4648,23,-352,-153,141
475,4324,4,-846,-4648,23,-354,-152,140
476,4323,4,-849,-4647,23,-354,-150,141
477,4323,4,-851,-4646,23,-353,-153,142
478,4321,5,-851,-4644,23,-353,-150,140
479,4320,7,-854,-4645,23,-352,-152,139
480,4318,6,-855,-4646,23,-352,-151,139
481,4318,3,-855,-4647,23,-351,-150,139
482,4318,4,-852,-4646,23,-352,-151,139
483,4320,4,-851,-4646,23,-350,-151,140
484,4321,4,-850,-4649,23,-348,-150,140
485,4321,5,-846,-4649,23,-350,-150,139
486,4322,4,-847,-4648,23,-349,-148,141
487,4321,4,-847,-4647,23,-349,-149,142
488,4319,4,-846,-4648,23,-347,-149,140
489,4316,4,-845,-4648,23,-348,-150,142
490,4317,6,-848,-4649,23,-347,-149,143
491,4318,5,-849,-4653,23,-346,-150,143
492,4318,5,-846,-4653,23,-347,-147,142
493,4322,2,-841,-4653,23,-348,-148,141
494,4321,4,-842,-4651,23,-344,-148,139
495,4320,4,-846,-4650,23,-344,-150,138
496,4320,3,-847,-4649,23,-341,-150,137
497,4319,4,-846,-4648,23,-343,-150,138
498,4318,3,-847,-4647,23,-343,-150,138
499,4315,2,-849,-4646,23,-344,-146,139
500,4315,0,-850,-4646,23,-344,-148,140
501,4315,4,-849,-4645,23,-345,-145,139
502,4316,2,-846,-4645,23,-346,-148,138
503,4316,1,-846,-4647,23,-347,-149,140
504,4316,2,-847,-4645,23,-345,-149,139
505,4318,4,-847,-4646,23,-347,-151,139
506,4318,3,-846,-4646,23,-345,-154,141
507,4319,4,-847,-4647,23,-347,-155,140
508,4320,4,-850,-4646,23,-347,-154,142
509,4318,3,-848,-4647,23,-348,-155,141
510,4319,4,-850,-4648,23,-345,-152,138
511,4320,1,-847,-4649,23,-346,-151,137
512,4320,3,-849,-4651,23,-348,-153,137
513,4321,0,-847,-4650,23,-347,-153,137
514,4318,-3,-848,-4649,23,-346,-152,141
515,4319,-2,-847,-4648,23,-348,-153,142
516,4317,1,-846,-4647,23,-348,-152,143
517,4317,2,-846,-4649,23,-348,-154,142
518,4318,4,-845,-4649,23,-348,-154,141
519,4319,4,-846,-4650,23,-348,-152,140
520,4316,3,-844,-4649,23,-349,-154,143
521,4319,1,-848,-4648,23,-350,-154,141
522,4316,1,-847,-4648,23,-350,-155,139
523,4317,3,-848,-4649,23,-350,-154,138
524,4316,3,-846,-4650,23,-349,-154,139
525,4314,4,-843,-4649,23,-347,-153,140
526,4315,4,-841,-4648,23,-348,-152,140
527,4314,5,-846,-4648,23,-347,-152,142
528,4316,5,-847,-4648,23,-346,-152,141
529,4319,6,-852,-4649,23,-347,-153,141
530,4320,3,-853,-4649,23,-348,-152,142
531,4320,4,-853,-4649,23,-348,-150,142
532,4323,3,-849,-4651,23,-349,-149,142
533,4320,4,-849,-4650,23,-348,-147,141
534,4319,3,-850,-4649,23,-348,-148,142
535,4316,3,-852,-4649,23,-349,-148,144
536,4315,7,-854,-4647,23,-349,-150,143
537,4317,6,-852,-4648,23,-348,-151,142
538,4317,5,-848,-4649,23,-348,-150,141
539,4317,3,-848,-4648,23,-348,-152,142
540,4318,4,-847,-4648,23,-347,-152,141
541,4315,6,-843,-4648,23,-346,-152,143
542,4317,2,-843,-4648,23,-346,-152,142
543,4318,2,-842,-4646,23,-343,-153,143
544,4317,0,-844,-4645,23,-344,-153,142
545,4318,-2,-843,-4645,23,-344,-151,140
546,4316,-2,-845,-4646,23,-344,-152,141
547,4316,-3,-850,-4646,23,-347,-153,139
548,4318,0,-849,-4646,23,-347,-150,140
549,4319,1,-846,-4648,23,-347,-151,141
550,4320,1,-848,-4646,23,-344,-151,141
551,4321,0,-849,-4646,23,-343,-153,142
552,4323,1,-848,-4646,23,-343,-151,142
553,4323,2,-846,-4646,23,-344,-151,139
554,4324,2,-846,-4648,23,-344,-150,140
555,4323,4,-844,-4647,23,-346,-150,139
556,4320,3,-843,-4645,23,-347,-147,137
557,4318,4,-842,-4644,23,-348,-149,138
558,4318,3,-839,-4645,23,-349,-150,140
559,4318,5,-840,-4646,23,-349,-148,141
560,4318,5,-843,-4646,23,-350,-150,142
561,4320,4,-846,-4645,23,-350,-149,140
562,4319,2,-845,-4644,23,-350,-148,141
563,4319,1,-845,-4646,23,-350,-149,143
564,4320,2,-846,-4645,23,-349,-149,141
565,4320,3,-851,-4646,23,-348,-149,142
566,4319,3,-851,-4646,23,-347,-150,142
567,4319,2,-848,-4646,23,-347,-149,142
568,4318,1,-848,-4646,23,-346,-151,143
569,4320,3,-849,-4646,23,-345,-150,144
570,4318,4,-846,-4647,23,-345,-151,143
571,4317,3,-846,-4647,23,-346,-151,143
572,4318,2,-844,-4647,23,-348,-150,144
573,4318,1,-844,-4647,23,-349,-153,144
574,4320,0,-848,-4648,23,-350,-153,143
575,4320,-1,-847,-4648,23,-351,-154,144
576,4320,0,-846,-4648,23,-349,-154,143
577,4319,1,-848,-4647,23,-348,-154,142
578,4320,-1,-849,-4647,23,-348,-156,142
579,4318,-1,-850,-4647,23,-347,-154,142
580,4316,0,-849,-4645,23,-345,-154,141
581,4316,0,-847,-4643,23,-344,-153,141
582,4317,0,-850,-4641,23,-343,-154,140
583,4318,1,-850,-4642,23,-344,-156,140
584,4317,3,-849,-4643,23,-344,-153,138
585,4318,5,-852,-4643,23,-344,-149,140
586,4319,5,-847,-4645,23,-346,-149,139
587,4319,4,-845,-4645,23,-346,-150,141
588,4319,3,-847,-4647,23,-346,-150,141
589,4319,5,-846,-4647,23,-346,-151,142
590,4318,6,-844,-4646,23,-346,-151,140
591,4317,4,-844,-4646,23,-345,-149,139
592,4317,4,-843,-4646,23,-345,-150,140
593,4318,2,-845,-4647,23,-344,-152,141
594,4317,2,-848,-4644,23,-344,-152,139
595,4318,1,-847,-4645,23,-345,-153,141
596,4318,0,-845,-4646,23,-346,-153,142
597,4318,-1,-846,-4647,23,-348,-154,142
598,4319,-2,-848,-4648,23,-349,-152,141
599,4320,-1,-847,-4648,23,-346,-151,140
600,4318,1,-847,-4648,23,-346,-152,140
601,4318,1,-847,-4647,23,-347,-153,138
602,4318,1,-848,-4646,23,-347,-151,138
603,4317,-1,-842,-4645,23,-347,-152,139
604,4318,0,-843,-4647,23,-348,-151,139
605,4317,1,-843,-4646,23,-348,-151,138
606,4319,-2,-842,-4647,23,-348,-150,139
607,4317,-1,-843,-4648,23,-348,-150,142
608,4316,-2,-845,-4646,23,-349,-149,142
609,4319,0,-847,-4646,23,-350,-147,141
610,4318,3,-849,-4647,23,-350,-148,141
611,4318,2,-850,-4646,23,-350,-147,139
612,4319,4,-845,-4645,23,-350,-150,140
613,4318,4,-846,-4644,23,-350,-150,137
614,4318,5,-846,-4647,23,-350,-153,135
615,4319,3,-848,-4647,23,-349,-154,139
616,4321,3,-847,-4647,23,-350,-152,138
617,4320,1,-848,-4648,23,-349,-149,138
618,4321,1,-847,-4649,23,-349,-151,139
619,4321,0,-847,-4650,23,-347,-151,138
620,4321,4,-843,-4649,23,-347,-151,137
621,4321,0,-845,-4648,23,-349,-150,139
622,4322,1,-844,-4647,23,-350,-147,140
623,4321,2,-843,-4648,23,-350,-148,139
624,4320,5,-846,-4648,23,-350,-148,138
625,4319,4,-845,-4647,23,-351,-151,138
626,4318,5,-847,-4644,23,-353,-153,138
627,4320,5,-852,-4644,23,-351,-151,138
628,4319,7,-853,-4645,23,-352,-152,139
629,4320,8,-852,-4644,23,-350,-149,139
630,4320,8,-853,-4644,23,-348,-151,143
631,4321,5,-850,-4645,23,-347,-150,144
632,4320,4,-849,-4645,23,-347,-150,145
633,4318,4,-851,-4646,23,-347,-150,144
634,4318,2,-853,-4647,23,-346,-148,142
635,4319,2,-855,-4648,23,-348,-150,142
636,4320,4,-854,-4649,23,-349,-149,141
637,4320,3,-850,-4649,23,-348,-149,143
638,4322,2,-852,-4650,23,-349,-149,142
639,4317,3,-852,-4650,23,-350,-149,140
640,4320,2,-853,-4649,23,-350,-151,140
641,4318,2,-853,-4649,23,-351,-151,140
642,4318,1,-850,-4649,23,-351,-154,139
643,4320,3,-852,-4649,23,-350,-153,138
644,4321,4,-850,-4647,23,-347,-152,138
645,4320,6,-845,-4647,23,-347,-149,139
646,4318,6,-849,-4647,23,-344,-148,140
647,4316,5,-846,-4648,23,-344,-148,138
648,4315,6,-848,-4646,23,-345,-148,139
649,4317,5,-846,-4646,23,-344,-149,140
650,4318,4,-852,-4645,23,-344,-153,140
651,4318,5,-852,-4646,23,-346,-152,140
652,4317,6,-847,-4647,23,-348,-151,138
653,4318,5,-848,-4647,23,-350,-150,139
654,4317,3,-848,-4646,23,-348,-150,140
655,4318,2,-850,-4646,23,-347,-151,139
656,4317,3,-851,-4646,23,-347,-150,140
657,4317,0,-849,-4647,23,-348,-149,139
658,4318,0,-853,-4649,23,-346,-150,141
659,4318,2,-850,-4647,23,-346,-150,141
660,4320,-1,-849,-4648,23,-346,-150,142
661,4320,0,-852,-4647,23,-347,-152,141
662,4319,0,-853,-4648,23,-345,-152,141
663,4318,3,-854,-4647,23,-344,-152,140
664,4318,3,-853,-4647,23,-345,-152,139
665,4319,5,-853,-4650,23,-346,-152,140
666,4319,5,-847,-4649,23,-346,-151,139
667,4320,4,-845,-4650,23,-346,-152,140
668,4320,2,-842,-4650,23,-346,-152,140
669,4320,2,-841,-4649,23,-345,-152,142
670,4319,3,-845,-4649,23,-345,-153,140
671,4317,3,-843,-4648,23,-347,-152,142
672,4319,4,-849,-4648,23,-346,-151,141
673,4321,6,-849,-4647,23,-345,-152,143
674,4320,4,-847,-4647,23,-345,-150,144
675,4318,4,-846,-4647,23,-344,-152,143
676,4317,4,-844,-4647,23,-346,-153,142
677,4319,4,-843,-4648,23,-345,-153,142
678,4321,2,-847,-4646,23,-347,-152,142
679,4320,2,-849,-4646,23,-347,-151,140
680,4319,3,-850,-4645,23,-347,-155,140
681,4322,3,-851,-4647,23,-348,-154,140
682,4323,3,-852,-4647,23,-347,-154,137
683,4321,1,-853,-4649,23,-350,-155,138
684,4323,0,-856,-4648,23,-349,-156,139
685,4324,2,-853,-4648,23,-349,-154,139
686,4324,1,-851,-4646,23,-347,-153,142
687,4322,3,-851,-4648,23,-346,-151,141
688,4321,2,-854,-4649,23,-347,-151,141
689,4323,1,-856,-4646,23,-347,-153,140
690,4323,0,-857,-4646,23,-348,-150,139
691,4324,2,-855,-4644,23,-347,-151,139
692,4323,3,-856,-4644,23,-348,-152,139
693,4321,3,-855,-4644,23,-346,-153,139
694,4320,3,-846,-4646,23,-346,-154,139
695,4321,3,-848,-4646,23,-347,-152,139
696,4320,5,-847,-4647,23,-348,-153,139
697,4318,5,-850,-4646,23,-348,-152,139
698,4318,3,-850,-4648,23,-346,-151,143
699,4319,1,-846,-4645,23,-346,-152,141
700,4321,2,-844,-4646,23,-347,-152,141
701,4320,2,-846,-4647,23,-348,-153,143
702,4320,2,-850,-4647,23,-349,-150,142
703,4319,2,-850,-4648,23,-350,-150,142
704,4322,2,-854,-4648,23,-351,-151,141
705,4322,2,-852,-4648,23,-352,-152,143
706,4320,2,-854,-4646,23,-351,-153,142
707,4321,3,-854,-4645,23,-351,-154,140
708,4321,1,-854,-4646,23,-351,-155,141
709,4320,1,-852,-4647,23,-354,-153,141
710,4321,-1,-848,-4646,23,-353,-151,140
711,4322,-2,-846,-4647,23,-351,-152,139
712,4322,-1,-850,-4646,23,-350,-153,138
713,4321,-3,-852,-4646,23,-349,-153,139
714,4320,-2,-855,-4645,23,-351,-152,140
715,4322,2,-850,-4645,23,-350,-152,137
716,4320,1,-849,-4645,23,-347,-152,138
717,4320,1,-848,-4645,23,-345,-153,140
718,4321,1,-851,-4646,23,-346,-153,141
719,4320,3,-849,-4645,23,-346,-154,140
720,4319,2,-849,-4643,23,-347,-151,139
721,4317,3,-851,-4644,23,-347,-150,141
722,4319,3,-854,-4644,23,-347,-150,140
723,4317,2,-848,-4645,23,-350,-152,141
724,4319,3,-849,-4646,23,-348,-150,141
725,4319,4,-847,-4645,23,-349,-150,142
726,4320,4,-846,-4644,23,-349,-151,143
727,4323,5,-847,-4646,23,-350,-149,141
728,4324,3,-849,-4646,23,-349,-149,143
729,4323,1,-850,-4647,23,-349,-148,144
730,4321,0,-851,-4647,23,-349,-148,140
731,4319,-1,-852,-4646,23,-349,-150,141
732,4317,-2,-850,-4647,23,-348,-150,141
733,4319,-1,-854,-4647,23,-350,-150,141
734,4318,0,-852,-4646,23,-350,-151,140
735,4317,-1,-846,-4647,23,-348,-153,140
736,4319,-1,-847,-4648,23,-349,-152,140
737,4321,0,-848,-4647,23,-351,-152,140
738,4323,3,-848,-4646,23,-351,-152,141
739,4325,3,-849,-4646,23,-352,-152,143
740,4324,3,-853,-4647,23,-352,-151,142
741,4324,3,-852,-4646,23,-352,-152,141
742,4321,6,-852,-4646,23,-352,-153,142
743,4320,5,-849,-4646,23,-352,-152,141
744,4320,4,-849,-4648,23,-350,-153,142
745,4320,2,-849,-4648,23,-347,-152,140
746,4322,3,-851,-4648,23,-348,-151,141
747,4321,3,-847,-4646,23,-349,-150,141
748,4321,6,-845,-4647,23,-348,-150,138
749,4321,5,-843,-4646,23,-349,-150,138
750,4322,1,-842,-4646,23,-348,-150,140
751,4320,3,-844,-4647,23,-349,-149,140
752,4318,3,-844,-4649,23,-349,-147,140
753,4320,3,-846,-4650,23,-351,-147,140
754,4319,2,-845,-4649,23,-349,-150,141
755,4320,2,-845,-4649,23,-347,-150,141
756,4320,2,-845,-4649,23,-345,-152,142
757,4321,1,-847,-4647,23,-345,-150,143
758,4321,0,-849,-4647,23,-346,-150,145
759,4322,1,-849,-4646,23,-346,-150,145
760,4319,3,-850,-4647,23,-348,-149,143
761,4318,2,-849,-4648,23,-347,-149,143
762,4317,4,-851,-4648,23,-345,-149,143
763,4315,6,-852,-4645,23,-348,-150,144
764,4317,3,-857,-4645,23,-349,-152,140
765,4316,4,-857,-4647,23,-349,-153,139
766,4316,3,-857,-4646,23,-346,-151,141
767,4316,3,-852,-4646,23,-346,-150,141
768,4316,0,-852,-4645,23,-346,-151,139
769,4314,2,-853,-4645,23,-344,-149,140
770,4312,3,-851,-4644,23,-346,-150,139
771,4313,3,-849,-4645,23,-347,-148,138
772,4313,5,-853,-4645,23,-345,-151,137
773,4312,5,-852,-4645,23,-346,-151,138
774,4313,5,-852,-4646,23,-347,-151,137
775,4316,4,-853,-4647,23,-348,-148,135
776,4314,3,-852,-4647,23,-346,-149,135
777,4314,4,-851,-4647,23,-347,-149,136
778,4315,0,-847,-4647,23,-345,-150,138
779,4318,3,-848,-4647,23,-344,-151,140
780,4319,2,-847,-4646,23,-346,-152,141
781,4320,3,-847,-4646,23,-349,-153,141
782,4319,4,-848,-4647,23,-348,-152,141
783,4315,4,-849,-4646,23,-348,-151,140
784,4320,4,-850,-4646,23,-346,-153,142
785,4320,5,-854,-4646,23,-347,-153,141
786,4322,2,-856,-4647,23,-347,-154,142
787,4322,2,-853,-4647,23,-348,-154,143
788,4319,3,-855,-4648,23,-347,-155,142
789,4319,2,-852,-4647,23,-347,-153,144
790,4322,3,-850,-4648,23,-346,-153,142
791,4321,1,-849,-4646,23,-346,-152,141
792,4322,0,-850,-4647,23,-347,-153,142
793,4322,3,-849,-4648,23,-346,-153,144
794,4322,2,-850,-4648,23,-346,-151,142
795,4322,3,-850,-4647,23,-345,-149,143
796,4320,1,-850,-4646,23,-350,-149,144
797,4320,1,-850,-4646,23,-350,-152,143
798,4319,2,-851,-4645,23,-350,-152,139
799,4319,1,-851,-4645,23,-350,-153,137
800,4318,4,-849,-4644,23,-349,-152,140
801,4317,1,-851,-4646,23,-347,-154,140
802,4317,4,-848,-4645,23,-348,-153,141
803,4318,2,-846,-4644,23,-350,-153,140
804,4316,0,-843,-4645,23,-350,-154,140
805,4318,1,-845,-4645,23,-349,-154,140
806,4316,3,-844,-4644,23,-347,-152,143
807,4316,2,-845,-4646,23,-347,-152,143
808,4317,3,-848,-4645,23,-349,-153,143
809,4315,3,-850,-4646,23,-348,-152,142
810,4314,1,-849,-4646,23,-348,-154,141
811,4315,0,-847,-4646,23,-348,-152,142
812,4313,-1,-846,-4648,23,-347,-151,142
813,4316,0,-851,-4648,23,-348,-150,139
814,4315,-1,-850,-4649,23,-346,-148,138
815,4315,0,-849,-4648,23,-349,-148,137
816,4318,1,-848,-4647,23,-351,-148,136
817,4318,1,-850,-4648,23,-350,-149,139
818,4319,3,-853,-4648,23,-347,-150,140
819,4318,2,-854,-4648,23,-348,-149,138
820,4318,2,-854,-4647,23,-348,-149,139
821,4317,3,-856,-4648,23,-348,-149,141
822,4317,2,-854,-4645,23,-348,-150,141
823,4317,-1,-855,-4645,23,-349,-151,142
824,4316,0,-854,-4645,23,-349,-152,141
825,4320,2,-852,-4646,23,-350,-153,142
826,4321,2,-848,-4647,23,-350,-153,139
827,4318,3,-850,-4647,23,-351,-151,140
828,4318,3,-850,-4646,23,-351,-152,139
829,4318,4,-847,-4646,23,-350,-151,142
830,4321,4,-849,-4648,23,-348,-149,142
831,4321,4,-847,-4648,23,-349,-149,141
832,4320,1,-848,-4649,23,-348,-149,142
833,4319,2,-846,-4648,23,-350,-148,141
834,4319,3,-847,-4648,23,-349,-146,139
835,4315,5,-848,-4647,23,-349,-148,139
836,4315,3,-844,-4644,23,-349,-148,139
837,4314,2,-847,-4645,23,-349,-151,139
838,4315,3,-851,-4644,23,-347,-151,141
839,4320,3,-853,-4643,23,-346,-152,141
840,4322,3,-854,-4641,23,-343,-152,138
841,4323,5,-855,-4642,23,-342,-153,138
842,4321,3,-853,-4644,23,-345,-154,139
843,4318,2,-855,-4645,23,-344,-154,141
844,4320,6,-855,-4646,23,-345,-151,142
845,4320,7,-850,-4646,23,-346,-151,141
846,4318,7,-846,-4646,23,-348,-150,141
847,4318,8,-843,-4647,23,-346,-150,143
848,4317,6,-845,-4646,23,-347,-148,142
849,4317,8,-848,-4646,23,-347,-149,142
850,4317,7,-847,-4647,23,-348,-152,141
851,4317,6,-847,-4647,23,-348,-153,141
852,4319,6,-847,-4648,23,-348,-155,140
853,4319,6,-848,-4647,23,-352,-156,141
854,4319,4,-845,-4646,23,-352,-154,142
855,4319,2,-846,-4645,23,-352,-154,143
856,4319,0,-846,-4645,23,-353,-154,144
857,4318,-1,-846,-4647,23,-351,-153,144
858,4320,-3,-848,-4646,23,-350,-152,144
859,4320,0,-849,-4646,23,-349,-153,142
860,4322,0,-850,-4645,23,-350,-153,142
861,4318,4,-850,-4646,23,-350,-151,140
862,4317,4,-848,-4646,23,-346,-150,140
863,4317,5,-850,-4645,23,-348,-150,141
864,4315,4,-849,-4646,23,-351,-150,141
865,4314,3,-848,-4646,23,-349,-150,141
866,4316,5,-848,-4646,23,-351,-152,140
867,4315,7,-850,-4645,23,-350,-151,142
868,4316,8,-853,-4646,23,-349,-153,144
869,4316,7,-850,-4647,23,-350,-151,143
870,4317,7,-849,-4648,23,-350,-154,143
871,4315,6,-848,-4650,23,-350,-154,143
872,4316,7,-847,-4649,23,-349,-155,143
873,4319,6,-846,-4649,23,-350,-151,143
874,4320,6,-849,-4648,23,-349,-150,143
875,4318,5,-850,-4646,23,-349,-150,141
876,4319,5,-847,-4647,23,-348,-151,139
877,4318,5,-849,-4647,23,-345,-149,137
878,4317,3,-845,-4646,23,-348,-150,138
879,4315,2,-848,-4647,23,-348,-150,140
880,4317,2,-848,-4647,23,-347,-151,141
881,4316,3,-851,-4648,23,-345,-151,140
882,4318,3,-850,-4648,23,-346,-149,140
883,4318,3,-848,-4648,23,-346,-154,140
884,4320,0,-849,-4647,23,-349,-151,139
885,4319,1,-850,-4647,23,-350,-149,140
886,4318,3,-853,-4648,23,-351,-150,140
887,4319,4,-854,-4646,23,-350,-151,140
888,4317,7,-855,-4647,23,-349,-151,140
889,4317,5,-852,-4648,23,-348,-151,140
890,4316,2,-852,-4647,23,-347,-149,139
891,4317,2,-850,-4648,23,-348,-150,137
892,4318,1,-847,-4648,23,-348,-152,140
893,4316,0,-849,-4648,23,-349,-153,142
894,4315,2,-851,-4647,23,-350,-152,143
895,4314,2,-849,-4646,23,-348,-150,144
896,4315,1,-849,-4649,23,-348,-151,143
897,4316,3,-849,-4647,23,-347,-152,141
898,4318,4,-849,-4645,23,-349,-154,139
899,4319,5,-849,-4644,23,-348,-153,138
900,4318,3,-849,-4643,23,-348,-152,139
901,4317,3,-849,-4644,23,-349,-151,138
902,4318,2,-847,-4647,23,-348,-152,137
903,4318,0,-847,-4647,23,-348,-150,138
904,4318,-2,-847,-4648,23,-348,-149,139
905,4317,0,-846,-4650,23,-348,-151,138
906,4318,-1,-850,-4648,23,-350,-153,138
907,4318,-2,-854,-4647,23,-348,-155,138
908,4321,-3,-856,-4648,23,-347,-150,139
909,4320,-1,-852,-4648,23,-346,-150,140
910,4317,1,-851,-4649,23,-346,-149,142
911,4318,1,-853,-4650,23,-346,-152,140
912,4316,3,-851,-4648,23,-348,-151,139
913,4317,3,-849,-4648,23,-348,-152,140
914,4319,4,-844,-4648,23,-349,-152,140
915,4318,3,-847,-4647,23,-348,-152,140
916,4317,3,-847,-4646,23,-347,-153,140
917,4315,3,-851,-4646,23,-348,-151,142
918,4317,0,-851,-4646,23,-347,-153,141
919,4318,2,-849,-4644,23,-347,-153,141
920,4319,1,-846,-4643,23,-348,-151,140
921,4320,1,-846,-4645,23,-347,-151,141
922,4320,0,-848,-4647,23,-347,-149,142
923,4323,0,-848,-4647,23,-349,-148,142
924,4320,1,-849,-4647,23,-349,-147,141
925,4321,1,-855,-4647,23,-349,-148,141
926,4319,3,-854,-4645,23,-346,-148,140
927,4319,2,-850,-4644,23,-347,-150,141
928,4319,0,-850,-4644,23,-347,-150,141
929,4318,0,-851,-4644,23,-347,-151,139
930,4315,2,-855,-4644,23,-348,-147,140
931,4315,3,-852,-4643,23,-348,-147,140
932,4315,4,-850,-4644,23,-346,-150,140
933,4315,3,-854,-4646,23,-345,-152,143
934,4316,5,-852,-4646,23,-346,-152,141
935,4316,3,-848,-4647,23,-346,-150,140
936,4318,6,-847,-4647,23,-345,-151,139
937,4316,6,-847,-4648,23,-344,-150,139
938,4316,7,-848,-4646,23,-345,-151,140
939,4317,8,-844,-4646,23,-345,-151,140
940,4318,7,-844,-4646,23,-347,-149,141
941,4319,4,-845,-4646,23,-347,-149,140
942,4318,1,-847,-4648,23,-347,-151,142
943,4318,1,-846,-4646,23,-348,-152,141
944,4317,3,-843,-4645,23,-346,-150,141
945,4319,1,-844,-4643,23,-346,-151,143
946,4317,0,-844,-4647,23,-348,-151,142
947,4317,0,-845,-4648,23,-345,-151,139
948,4318,2,-846,-4649,23,-345,-154,139
949,4317,3,-850,-4647,23,-347,-154,139
950,4317,4,-849,-4647,23,-347,-153,140
951,4318,6,-855,-4647,23,-348,-151,140
952,4317,5,-853,-4647,23,-347,-149,139
953,4317,5,-850,-4647,23,-349,-148,139
954,4317,7,-849,-4647,23,-349,-146,139
955,4317,7,-851,-4646,23,-347,-147,140
956,4317,7,-847,-4647,23,-347,-145,138
957,4316,7,-847,-4647,23,-349,-146,138
958,4316,7,-852,-4646,23,-349,-146,137
959,4316,6,-852,-4647,23,-347,-149,138
960,4316,3,-851,-4647,23,-348,-147,136
961,4315,1,-853,-4646,23,-350,-147,138
962,4316,2,-853,-4644,23,-349,-149,139
963,4319,2,-854,-4644,23,-349,-150,140
964,4319,0,-854,-4645,23,-346,-151,140
965,4320,1,-851,-4644,23,-346,-152,140
966,4319,2,-845,-4644,23,-348,-149,142
967,4318,6,-843,-4644,23,-348,-149,141
968,4318,4,-844,-4644,23,-346,-148,142
969,4319,3,-845,-4643,23,-347,-150,141
970,4320,2,-850,-4645,23,-349,-149,142
971,4320,1,-852,-4644,23,-347,-146,144
972,4320,0,-850,-4645,23,-349,-147,142
973,4321,1,-853,-4644,23,-347,-147,143
974,4322,1,-852,-4644,23,-348,-150,141
975,4320,2,-850,-4645,23,-350,-148,139
976,4320,2,-850,-4647,23,-349,-151,139
977,4320,3,-850,-4647,23,-351,-151,139
978,4319,3,-850,-4646,23,-350,-149,140
979,4319,2,-849,-4643,23,-350,-149,141
980,4318,0,-847,-4643,23,-349,-152,141
981,4316,3,-849,-4645,23,-348,-152,140
982,4316,3,-850,-4642,23,-348,-150,137
983,4318,3,-852,-4643,23,-346,-152,138
984,4317,2,-851,-4644,23,-349,-152,137
985,4319,3,-854,-4645,23,-349,-152,138
986,4319,5,-851,-4646,23,-345,-154,139
987,4320,4,-852,-4645,23,-344,-155,141
988,4317,5,-851,-4645,23,-345,-154,139
989,4314,3,-846,-4646,23,-344,-153,140
990,4316,3,-851,-4645,23,-343,-152,140
991,4318,1,-851,-4645,23,-345,-152,140
992,4320,2,-850,-4644,23,-347,-152,142
993,4321,1,-855,-4645,23,-346,-150,141
994,4322,2,-851,-4645,23,-346,-149,141
995,4321,1,-852,-4644,23,-345,-148,141
996,4322,5,-851,-4644,23,-346,-149,142
997,4320,5,-856,-4644,23,-347,-150,142
998,4323,3,-855,-4643,23,-347,-151,142
