,acc_X,acc_Y,acc_Z,temp,tempC,gyr_X,gyr_Y,gyr_Z
0,8638,-15,-1715,-4754,23,-86,-40,34
1,8677,4,-1697,-4751,23,-85,-42,35
2,8645,-3,-1681,-4753,23,-88,-37,31
3,8591,20,-1632,-4766,22,-85,-37,34
4,8673,37,-1691,-4755,23,-87,-38,36
5,8604,31,-1741,-4751,23,-87,-36,31
6,8645,38,-1699,-4754,23,-82,-41,32
7,8612,13,-1671,-4751,23,-87,-43,33
8,8635,30,-1720,-4763,22,-87,-33,39
9,8640,-40,-1696,-4756,23,-88,-35,31
10,8602,17,-1676,-4746,23,-88,-38,36
11,8678,2,-1684,-4745,23,-84,-37,35
12,8648,31,-1660,-4756,23,-89,-37,32
13,8663,41,-1735,-4749,23,-88,-44,37
14,8631,17,-1709,-4757,23,-84,-36,33
15,8632,12,-1740,-4754,23,-84,-42,38
16,8607,41,-1690,-4748,23,-85,-36,34
17,8644,-19,-1726,-4748,23,-89,-35,31
18,8654,27,-1727,-4759,23,-84,-37,32
19,8626,10,-1709,-4754,23,-85,-41,31
20,8583,12,-1701,-4748,23,-84,-40,36
21,8636,-36,-1683,-4769,22,-89,-38,31
22,8614,-16,-1699,-4744,23,-86,-41,32
23,8651,8,-1700,-4750,23,-86,-36,29
24,8653,-13,-1676,-4748,23,-88,-33,35
25,8612,-25,-1683,-4756,23,-85,-40,31
26,8621,6,-1701,-4757,23,-90,-31,36
27,8632,14,-1676,-4753,23,-86,-38,38
28,8649,-21,-1726,-4757,23,-86,-35,33
29,8647,29,-1686,-4749,23,-84,-38,31
30,8694,49,-1705,-4739,23,-83,-37,35
31,8629,-4,-1633,-4762,22,-88,-33,34
32,8657,1,-1654,-4761,22,-89,-37,33
33,8644,3,-1683,-4753,23,-86,-39,33
34,8644,-1,-1647,-4764,22,-85,-32,34
35,8645,3,-1676,-4760,22,-89,-43,33
36,8622,12,-1730,-4763,22,-84,-42,31
37,8630,34,-1721,-4759,23,-87,-38,31
38,8666,-6,-1680,-4756,23,-87,-38,32
39,8624,-8,-1660,-4768,22,-93,-36,33
40,8633,-23,-1694,-4748,23,-87,-35,33
41,8676,-9,-1706,-4743,23,-84,-38,33
42,8649,-8,-1647,-4769,22,-89,-34,36
43,8640,-16,-1694,-4753,23,-91,-36,36
44,8591,38,-1698,-4749,23,-87,-34,35
45,8634,-33,-1623,-4745,23,-86,-35,34
46,8620,-13,-1691,-4745,23,-85,-40,36
47,8607,2,-1659,-4757,23,-88,-40,34
48,8600,0,-1713,-4763,22,-89,-36,35
49,8644,27,-1668,-4748,23,-90,-35,30
50,8626,-18,-1692,-4755,23,-88,-40,33
51,8667,-20,-1719,-4749,23,-86,-37,32
52,8628,-25,-1710,-4752,23,-85,-38,35
53,8664,0,-1741,-4739,23,-84,-37,34
54,8652,42,-1730,-4759,23,-85,-41,31
55,8645,-33,-1750,-4751,23,-86,-37,29
56,8648,1,-1647,-4758,23,-89,-38,36
57,8645,-20,-1709,-4759,23,-85,-36,35
58,8634,3,-1707,-4738,23,-86,-40,37
59,8645,-22,-1734,-4742,23,-87,-41,29
60,8623,-4,-1671,-4754,23,-87,-41,37
61,8644,-8,-1629,-4749,23,-86,-38,36
62,8582,-29,-1734,-4735,23,-88,-35,32
63,8603,-2,-1724,-4739,23,-87,-40,38
64,8651,3,-1702,-4739,23,-87,-45,33
65,8660,-12,-1701,-4747,23,-82,-35,35
66,8657,-16,-1682,-4759,23,-87,-38,34
67,8634,13,-1660,-4749,23,-86,-40,36
68,8603,-3,-1674,-4742,23,-84,-38,34
69,8633,50,-1713,-4747,23,-92,-40,33
70,8648,17,-1653,-4749,23,-87,-38,35
71,8627,-10,-1676,-4743,23,-85,-38,30
72,8666,4,-1656,-4738,23,-89,-39,32
73,8654,-27,-1748,-4756,23,-86,-38,34
74,8614,31,-1700,-4755,23,-87,-38,34
75,8619,14,-1676,-4760,22,-89,-38,34
76,8690,-2,-1661,-4753,23,-87,-39,33
77,8623,10,-1722,-4746,23,-91,-41,34
78,8643,-12,-1692,-4757,23,-83,-41,36
79,8654,-9,-1704,-4754,23,-84,-37,31
80,8620,1,-1644,-4736,23,-86,-39,35
81,8670,-18,-1693,-4742,23,-84,-34,32
82,8600,-1,-1733,-4740,23,-84,-38,34
83,8633,10,-1663,-4760,22,-86,-34,35
84,8666,-61,-1679,-4768,22,-87,-39,31
85,8629,5,-1659,-4756,23,-84,-41,36
86,8601,-12,-1728,-4750,23,-86,-39,39
87,8654,21,-1695,-4771,22,-90,-34,34
88,8609,11,-1731,-4747,23,-85,-40,37
89,8642,21,-1664,-4768,22,-86,-37,31
90,8635,-14,-1709,-4754,23,-88,-37,41
91,8614,-26,-1715,-4737,23,-89,-36,34
92,8618,42,-1690,-4751,23,-86,-37,33
93,8659,29,-1712,-4743,23,-86,-39,36
94,8612,-1,-1697,-4757,23,-86,-39,31
95,8655,-22,-1642,-4752,23,-85,-37,37
96,8612,0,-1667,-4744,23,-85,-39,38
97,8651,15,-1690,-4760,22,-88,-42,34
98,8639,-16,-1761,-4754,23,-91,-37,36
99,8631,-6,-1693,-4754,23,-87,-44,32
100,8629,-5,-1703,-4774,22,-85,-38,31
101,8646,18,-1681,-4753,23,-87,-38,32
102,8669,11,-1734,-4747,23,-85,-35,32
103,8662,6,-1677,-4763,22,-86,-35,37
104,8647,16,-1732,-4741,23,-87,-37,37
105,8614,-37,-1731,-4754,23,-88,-40,30
106,8625,1,-1698,-4743,23,-83,-37,36
107,8686,32,-1681,-4760,22,-81,-37,34
108,8649,15,-1702,-4768,22,-86,-39,34
109,8657,-4,-1610,-4749,23,-89,-35,34
110,8621,12,-1742,-4752,23,-89,-38,34
111,8626,-62,-1715,-4744,23,-85,-35,35
112,8618,5,-1664,-4749,23,-87,-33,36
113,8621,-19,-1647,-4760,22,-86,-37,30
114,8675,37,-1699,-4743,23,-86,-42,35
115,8630,9,-1693,-4760,22,-85,-40,35
116,8616,8,-1655,-4753,23,-90,-41,33
117,8607,-28,-1695,-4748,23,-90,-37,33
118,8637,-5,-1720,-4754,23,-84,-38,36
119,8624,6,-1714,-4747,23,-86,-39,32
120,8619,-3,-1708,-4739,23,-88,-41,34
121,8647,35,-1740,-4753,23,-86,-36,36
122,8632,39,-1672,-4743,23,-83,-36,31
123,8621,-4,-1728,-4734,23,-88,-37,33
124,8621,-28,-1666,-4738,23,-87,-34,35
125,8637,42,-1739,-4743,23,-87,-41,36
126,8672,10,-1658,-4745,23,-85,-34,33
127,8683,-17,-1684,-4753,23,-88,-42,33
128,8641,15,-1750,-4737,23,-87,-37,39
129,8641,-21,-1743,-4745,23,-86,-39,34
130,8651,16,-1693,-4747,23,-86,-38,31
131,8652,6,-1680,-4754,23,-87,-37,37
132,8637,-8,-1706,-4763,22,-85,-39,34
133,8637,-11,-1708,-4752,23,-84,-40,34
134,8645,-18,-1763,-4765,22,-87,-38,32
135,8585,-16,-1705,-4762,22,-90,-37,35
136,8660,-23,-1736,-4734,23,-86,-41,38
137,8665,69,-1762,-4750,23,-86,-46,32
138,8606,-10,-1718,-4761,22,-84,-37,34
139,8651,11,-1657,-4746,23,-85,-39,35
140,8646,4,-1699,-4757,23,-90,-36,35
141,8655,-3,-1710,-4751,23,-89,-39,32
142,8627,-1,-1681,-4759,23,-86,-41,35
143,8684,19,-1682,-4753,23,-86,-40,35
144,8668,-9,-1731,-4750,23,-88,-37,33
145,8642,50,-1711,-4749,23,-86,-41,31
146,8681,8,-1751,-4750,23,-84,-32,30
147,8660,20,-1714,-4750,23,-86,-40,34
148,8618,7,-1689,-4749,23,-82,-38,35
149,8666,-19,-1744,-4754,23,-86,-36,30
150,8620,26,-1724,-4750,23,-88,-41,33
151,8624,3,-1691,-4755,23,-86,-38,31
152,8665,-15,-1674,-4752,23,-88,-41,38
153,8645,11,-1716,-4743,23,-87,-45,37
154,8661,-11,-1723,-4747,23,-85,-39,33
155,8580,-4,-1658,-4741,23,-84,-37,35
156,8615,-14,-1747,-4747,23,-86,-41,34
157,8635,-17,-1664,-4748,23,-90,-37,37
158,8632,-11,-1656,-4747,23,-90,-35,36
159,8682,-10,-1764,-4763,22,-87,-36,33
160,8613,5,-1722,-4743,23,-83,-40,35
161,8635,9,-1728,-4747,23,-85,-40,34
162,8637,22,-1684,-4746,23,-88,-32,33
163,8644,20,-1679,-4760,22,-87,-37,39
164,8636,-27,-1687,-4756,23,-82,-35,36
165,8617,31,-1685,-4756,23,-88,-37,33
166,8643,23,-1748,-4741,23,-84,-38,32
167,8644,1,-1689,-4750,23,-88,-39,32
168,8675,0,-1758,-4738,23,-88,-35,37
169,8666,-23,-1640,-4739,23,-84,-39,31
170,8655,17,-1667,-4744,23,-86,-35,39
171,8631,0,-1704,-4747,23,-90,-33,34
172,8667,20,-1727,-4747,23,-83,-36,34
173,8647,20,-1655,-4746,23,-85,-40,32
174,8646,-31,-1766,-4752,23,-84,-35,33
175,8644,-9,-1719,-4746,23,-82,-40,34
176,8638,4,-1697,-4757,23,-89,-37,36
177,8626,10,-1730,-4749,23,-85,-39,35
178,8618,46,-1715,-4747,23,-87,-39,33
179,8575,-10,-1713,-4756,23,-87,-36,36
180,8637,3,-1692,-4753,23,-87,-30,36
181,8648,-5,-1756,-4757,23,-83,-37,35
182,8639,-11,-1661,-4752,23,-89,-36,34
183,8615,-16,-1739,-4741,23,-88,-41,35
184,8650,-1,-1694,-4752,23,-81,-39,36
185,8645,-33,-1750,-4755,23,-94,-36,34
186,8649,-7,-1701,-4743,23,-87,-39,36
187,8633,-22,-1725,-4754,23,-86,-43,30
188,8614,31,-1706,-4748,23,-88,-40,36
189,8633,-2,-1653,-4736,23,-85,-43,34
190,8591,-12,-1689,-4753,23,-88,-34,33
191,8659,-15,-1726,-4744,23,-87,-34,35
192,8594,5,-1707,-4755,23,-88,-37,37
193,8634,-19,-1718,-4759,23,-84,-36,37
194,8655,11,-1705,-4747,23,-86,-40,34
195,8677,-14,-1700,-4752,23,-88,-39,36
196,8607,-4,-1732,-4763,22,-88,-41,41
197,8624,8,-1759,-4758,23,-85,-40,38
198,8615,47,-1702,-4752,23,-87,-38,34
199,8632,16,-1707,-4755,23,-89,-34,35
200,8709,-25,-1673,-4737,23,-88,-31,32
201,8630,9,-1686,-4746,23,-88,-39,33
202,8671,-25,-1679,-4758,23,-83,-39,34
203,8643,-13,-1694,-4750,23,-89,-38,35
204,8632,24,-1660,-4747,23,-86,-39,33
205,8625,9,-1689,-4753,23,-82,-35,30
206,8635,-7,-1725,-4749,23,-88,-37,34
207,8626,-1,-1639,-4742,23,-87,-40,30
208,8605,32,-1725,-4758,23,-84,-38,36
209,8594,-14,-1711,-4746,23,-86,-39,34
210,8635,37,-1710,-4747,23,-89,-38,33
211,8669,30,-1736,-4754,23,-85,-40,35
212,8628,19,-1591,-4738,23,-83,-41,36
213,8651,6,-1666,-4753,23,-93,-38,32
214,8642,-16,-1680,-4743,23,-86,-45,32
215,8654,22,-1653,-4751,23,-87,-38,34
216,8603,22,-1668,-4761,22,-85,-39,36
217,8630,6,-1670,-4758,23,-89,-37,35
218,8631,2,-1709,-4742,23,-83,-35,35
219,8642,-21,-1758,-4743,23,-93,-37,35
220,8657,26,-1715,-4735,23,-89,-36,34
221,8636,-12,-1720,-4754,23,-82,-38,32
222,8633,-17,-1659,-4742,23,-87,-36,32
223,8637,7,-1694,-4752,23,-89,-35,34
224,8592,47,-1710,-4742,23,-87,-35,35
225,8636,-11,-1622,-4751,23,-83,-35,33
226,8670,15,-1712,-4747,23,-91,-35,34
227,8650,-15,-1642,-4742,23,-84,-38,37
228,8645,-10,-1713,-4762,22,-89,-35,30
229,8627,-7,-1664,-4747,23,-88,-37,28
230,8633,-27,-1661,-4747,23,-86,-38,38
231,8632,-7,-1729,-4739,23,-89,-37,32
232,8631,-1,-1685,-4740,23,-87,-37,34
233,8636,7,-1728,-4739,23,-87,-35,33
234,8632,-13,-1675,-4754,23,-86,-40,38
235,8654,8,-1771,-4752,23,-83,-37,33
236,8646,-9,-1691,-4736,23,-90,-38,36
237,8639,-6,-1730,-4763,22,-87,-44,36
238,8625,35,-1693,-4760,22,-92,-36,38
239,8662,-6,-1743,-4753,23,-85,-37,33
240,8662,43,-1655,-4752,23,-86,-40,40
241,8613,-33,-1663,-4755,23,-89,-42,33
242,8667,7,-1671,-4749,23,-87,-37,36
243,8612,-16,-1674,-4748,23,-87,-40,30
244,8672,-26,-1628,-4748,23,-87,-40,30
245,8633,58,-1635,-4743,23,-90,-36,32
246,8666,17,-1669,-4756,23,-86,-33,34
247,8654,36,-1678,-4749,23,-84,-39,35
248,8626,22,-1684,-4750,23,-88,-39,34
249,8645,-20,-1684,-4751,23,-86,-39,32
250,8640,-23,-1763,-4761,22,-89,-36,33
251,8660,0,-1697,-4760,22,-88,-42,34
252,8690,8,-1675,-4733,23,-86,-34,33
253,8609,46,-1661,-4758,23,-81,-35,35
254,8627,-10,-1656,-4753,23,-87,-38,37
255,8666,31,-1765,-4762,22,-86,-39,35
256,8623,27,-1645,-4737,23,-85,-38,34
257,8634,34,-1720,-4758,23,-87,-36,33
258,8633,0,-1708,-4757,23,-86,-40,33
259,8642,-4,-1718,-4749,23,-83,-37,31
260,8684,29,-1717,-4754,23,-86,-36,34
261,8632,-23,-1720,-4744,23,-85,-36,31
262,8648,22,-1740,-4739,23,-88,-39,35
263,8653,41,-1752,-4739,23,-87,-38,28
264,8634,-9,-1723,-4767,22,-90,-31,34
265,8638,30,-1657,-4738,23,-87,-39,35
266,8638,-44,-1679,-4743,23,-88,-36,34
267,8716,-4,-1753,-4760,22,-83,-35,31
268,8640,4,-1692,-4755,23,-84,-41,34
269,8619,37,-1675,-4743,23,-85,-45,35
270,8649,16,-1739,-4746,23,-84,-38,29
271,8661,-21,-1661,-4748,23,-86,-38,34
272,8635,-11,-1722,-4746,23,-85,-32,33
273,8697,-9,-1687,-4751,23,-88,-44,33
274,8687,17,-1692,-4745,23,-88,-38,33
275,8646,10,-1706,-4747,23,-88,-39,35
276,8599,20,-1684,-4741,23,-91,-42,34
277,8623,-2,-1670,-4760,22,-85,-41,34
278,8633,24,-1711,-4747,23,-84,-42,33
279,8629,23,-1723,-4751,23,-87,-42,33
280,8606,29,-1689,-4755,23,-88,-41,35
281,8610,34,-1662,-4756,23,-86,-40,33
282,8640,15,-1719,-4756,23,-84,-40,31
283,8667,13,-1661,-4757,23,-88,-37,39
284,8679,12,-1714,-4749,23,-87,-38,35
285,8638,-6,-1724,-4755,23,-87,-38,34
286,8637,21,-1706,-4766,22,-87,-36,33
287,8670,-9,-1699,-4751,23,-84,-32,35
288,8657,24,-1697,-4756,23,-85,-40,34
289,8632,-5,-1727,-4732,23,-82,-37,31
290,8630,-6,-1670,-4741,23,-88,-31,33
291,8621,16,-1671,-4750,23,-87,-41,36
292,8678,-2,-1701,-4743,23,-85,-39,33
293,8650,50,-1656,-4751,23,-87,-38,36
294,8622,6,-1648,-4759,23,-86,-38,36
295,8642,-10,-1709,-4746,23,-88,-38,33
296,8658,-21,-1676,-4746,23,-84,-37,35
297,8654,-1,-1787,-4747,23,-87,-39,34
298,8611,20,-1740,-4747,23,-82,-37,30
299,8626,-4,-1700,-4751,23,-82,-39,31
300,8656,-20,-1680,-4757,23,-84,-40,33
301,8638,-14,-1697,-4758,23,-85,-39,32
302,8614,-23,-1694,-4747,23,-88,-37,34
303,8635,-18,-1718,-4756,23,-85,-37,36
304,8626,5,-1742,-4742,23,-87,-34,33
305,8625,11,-1659,-4741,23,-80,-38,32
306,8609,16,-1708,-4743,23,-85,-34,30
307,8609,25,-1759,-4750,23,-82,-33,36
308,8665,13,-1713,-4758,23,-87,-41,34
309,8637,-16,-1748,-4761,22,-89,-34,37
310,8610,15,-1736,-4739,23,-88,-38,34
311,8642,-24,-1649,-4758,23,-85,-45,32
312,8651,22,-1700,-4739,23,-86,-38,35
313,8627,13,-1716,-4758,23,-90,-43,35
314,8641,12,-1737,-4745,23,-86,-39,35
315,8610,-5,-1687,-4754,23,-88,-33,32
316,8639,40,-1698,-4753,23,-85,-41,36
317,8645,8,-1734,-4745,23,-89,-38,35
318,8641,7,-1634,-4749,23,-91,-38,34
319,8672,30,-1671,-4751,23,-84,-40,30
320,8651,5,-1723,-4746,23,-80,-38,35
321,8632,-2,-1692,-4752,23,-84,-39,32
322,8669,17,-1743,-4757,23,-84,-34,37
323,8640,37,-1735,-4757,23,-85,-37,30
324,8616,-12,-1705,-4751,23,-83,-43,31
325,8656,7,-1679,-4758,23,-81,-36,39
326,8609,-1,-1703,-4744,23,-83,-36,31
327,8652,-9,-1689,-4749,23,-90,-38,37
328,8648,19,-1659,-4750,23,-90,-33,35
329,8598,32,-1639,-4752,23,-84,-38,33
330,8644,-44,-1674,-4744,23,-90,-39,35
331,8644,-20,-1713,-4760,22,-87,-39,36
332,8650,20,-1652,-4733,23,-89,-40,35
333,8641,4,-1718,-4742,23,-88,-33,36
334,8657,63,-1700,-4762,22,-90,-32,36
335,8635,9,-1733,-4758,23,-90,-37,37
336,8658,1,-1731,-4751,23,-84,-40,35
337,8645,-29,-1726,-4748,23,-85,-37,36
338,8655,-14,-1653,-4745,23,-86,-37,36
339,8628,41,-1658,-4744,23,-86,-39,37
340,8676,-21,-1689,-4756,23,-85,-38,34
341,8653,-12,-1740,-4744,23,-89,-36,33
342,8660,-25,-1673,-4749,23,-88,-44,33
343,8636,46,-1716,-4748,23,-88,-35,32
344,8665,29,-1727,-4749,23,-85,-33,34
345,8636,15,-1774,-4745,23,-87,-40,33
346,8667,47,-1758,-4762,22,-85,-39,37
347,8661,-14,-1697,-4733,23,-90,-34,37
348,8633,-17,-1703,-4750,23,-91,-39,32
349,8651,20,-1758,-4757,23,-88,-35,32
350,8687,-4,-1686,-4738,23,-85,-40,30
351,8635,23,-1666,-4746,23,-82,-42,35
352,8663,-42,-1729,-4739,23,-84,-35,32
353,8646,29,-1660,-4751,23,-86,-38,35
354,8650,27,-1645,-4747,23,-85,-41,33
355,8625,-8,-1738,-4757,23,-85,-41,36
356,8646,15,-1753,-4743,23,-86,-39,39
357,8654,1,-1687,-4758,23,-86,-36,34
358,8670,8,-1686,-4751,23,-88,-45,35
359,8636,4,-1695,-4740,23,-86,-37,33
360,8661,14,-1701,-4748,23,-87,-37,36
361,8634,-29,-1700,-4748,23,-84,-38,35
362,8662,3,-1723,-4763,22,-85,-41,35
363,8633,16,-1727,-4764,22,-85,-37,38
364,8638,46,-1746,-4737,23,-87,-39,33
365,8659,45,-1722,-4758,23,-92,-38,32
366,8663,24,-1719,-4751,23,-85,-38,36
367,8625,12,-1686,-4747,23,-87,-36,31
368,8658,9,-1719,-4756,23,-89,-37,33
369,8648,-7,-1694,-4755,23,-83,-36,36
370,8635,-9,-1705,-4742,23,-88,-39,37
371,8648,-38,-1693,-4737,23,-86,-39,28
372,8650,-29,-1709,-4737,23,-88,-33,36
373,8622,15,-1690,-4749,23,-84,-36,30
374,8633,25,-1667,-4735,23,-87,-34,35
375,8644,17,-1648,-4744,23,-84,-38,32
376,8659,25,-1749,-4759,23,-85,-39,34
377,8680,-21,-1745,-4749,23,-85,-39,40
378,8694,-28,-1701,-4747,23,-88,-37,36
379,8634,6,-1727,-4742,23,-86,-36,33
380,8642,-31,-1718,-4735,23,-85,-39,33
381,8637,45,-1730,-4746,23,-87,-41,37
382,8626,21,-1669,-4744,23,-83,-38,30
383,8655,-11,-1684,-4748,23,-85,-39,34
384,8640,13,-1726,-4745,23,-85,-39,39
385,8654,6,-1651,-4751,23,-85,-43,35
386,8622,19,-1651,-4748,23,-85,-40,33
387,8616,0,-1705,-4750,23,-87,-36,33
388,8621,18,-1718,-4745,23,-87,-37,37
389,8631,27,-1686,-4760,22,-85,-39,36
390,8638,-16,-1701,-4748,23,-83,-42,34
391,8644,-1,-1651,-4751,23,-84,-31,37
392,8647,10,-1699,-4754,23,-87,-39,35
393,8674,13,-1724,-4746,23,-85,-40,33
394,8639,-18,-1677,-4750,23,-87,-35,33
395,8608,8,-1654,-4758,23,-90,-41,34
396,8643,1,-1690,-4745,23,-85,-40,36
397,8631,-28,-1678,-4751,23,-89,-36,33
398,8619,7,-1703,-4736,23,-88,-41,35
399,8626,-9,-1721,-4757,23,-91,-38,31
400,8655,3,-1722,-4744,23,-86,-33,39
401,8666,-12,-1700,-4749,23,-90,-38,30
402,8616,-10,-1641,-4745,23,-86,-41,35
403,8674,-19,-1639,-4749,23,-87,-37,33
404,8630,46,-1772,-4730,23,-91,-35,30
405,8635,-5,-1666,-4739,23,-87,-41,34
406,8625,-7,-1665,-4740,23,-88,-38,35
407,8637,18,-1681,-4751,23,-86,-39,38
408,8629,-4,-1698,-4744,23,-89,-43,34
409,8647,-18,-1702,-4756,23,-88,-40,35
410,8605,-25,-1715,-4747,23,-85,-40,33
411,8652,34,-1615,-4751,23,-84,-35,35
412,8669,4,-1734,-4736,23,-84,-38,37
413,8630,-11,-1677,-4730,23,-89,-34,31
414,8586,-14,-1748,-4755,23,-84,-41,34
415,8620,-17,-1681,-4757,23,-87,-41,35
416,8660,12,-1708,-4740,23,-86,-39,36
417,8634,-18,-1686,-4764,22,-89,-35,31
418,8626,-3,-1709,-4746,23,-89,-38,34
419,8586,8,-1708,-4756,23,-87,-40,39
420,8651,20,-1733,-4735,23,-82,-38,38
421,8663,24,-1690,-4752,23,-90,-36,35
422,8628,12,-1737,-4754,23,-89,-37,35
423,8635,-10,-1683,-4755,23,-85,-34,35
424,8647,3,-1675,-4745,23,-86,-39,34
425,8638,-9,-1683,-4762,22,-85,-37,31
426,8631,52,-1745,-4735,23,-89,-37,33
427,8614,16,-1688,-4757,23,-89,-33,34
428,8644,-7,-1701,-4754,23,-88,-37,33
429,8638,5,-1656,-4758,23,-86,-36,35
430,8666,-6,-1737,-4748,23,-86,-33,33
431,8664,71,-1647,-4747,23,-84,-42,34
432,8655,7,-1730,-4756,23,-88,-36,38
433,8631,-16,-1699,-4745,23,-88,-39,35
434,8645,5,-1672,-4763,22,-84,-42,34
435,8629,-5,-1721,-4749,23,-90,-48,28
436,8626,-21,-1693,-4740,23,-84,-34,34
437,8655,13,-1684,-4745,23,-90,-37,34
438,8630,-22,-1740,-4736,23,-84,-41,32
439,8659,-6,-1645,-4756,23,-87,-43,34
440,8636,16,-1701,-4734,23,-87,-41,34
441,8665,15,-1710,-4745,23,-83,-38,33
442,8615,4,-1674,-4747,23,-85,-38,32
443,8627,0,-1712,-4747,23,-87,-34,33
444,8671,41,-1701,-4750,23,-88,-38,36
445,8632,10,-1720,-4756,23,-87,-40,36
446,8669,6,-1708,-4744,23,-88,-35,31
447,8644,-3,-1666,-4750,23,-89,-39,37
448,8615,12,-1667,-4760,22,-88,-36,33
449,8633,1,-1722,-4746,23,-89,-36,34
450,8624,6,-1712,-4749,23,-87,-36,32
451,8659,-20,-1683,-4755,23,-83,-40,37
452,8662,-27,-1722,-4743,23,-84,-42,33
453,8602,11,-1697,-4762,22,-89,-39,34
454,8664,-23,-1703,-4759,23,-85,-37,35
455,8643,36,-1687,-4750,23,-86,-36,33
456,8648,12,-1649,-4750,23,-88,-36,34
457,8652,-18,-1704,-4750,23,-89,-40,30
458,8624,-9,-1724,-4750,23,-88,-41,33
459,8668,-14,-1716,-4756,23,-85,-44,34
460,8644,-19,-1667,-4744,23,-86,-42,36
461,8664,0,-1733,-4751,23,-87,-41,37
462,8629,15,-1747,-4741,23,-85,-37,34
463,8642,-17,-1680,-4745,23,-85,-37,40
464,8642,-18,-1638,-4739,23,-89,-39,35
465,8667,8,-1683,-4743,23,-85,-41,33
466,8635,-4,-1633,-4771,22,-90,-34,33
467,8598,16,-1694,-4752,23,-86,-37,33
468,8621,2,-1653,-4738,23,-88,-36,41
469,8622,39,-1728,-4753,23,-87,-38,33
470,8644,4,-1706,-4736,23,-87,-38,36
471,8634,-4,-1695,-4732,23,-86,-37,33
472,8635,24,-1730,-4750,23,-80,-37,37
473,8657,-2,-1641,-4750,23,-85,-37,34
474,8617,29,-1746,-4734,23,-86,-34,30
475,8654,-11,-1724,-4756,23,-82,-39,33
476,8663,4,-1689,-4744,23,-85,-39,31
477,8630,11,-1696,-4750,23,-84,-42,33
478,8629,32,-1691,-4745,23,-88,-39,37
479,8652,1,-1728,-4754,23,-87,-32,37
480,8646,15,-1744,-4755,23,-85,-33,33
481,8618,2,-1719,-4748,23,-84,-41,32
482,8688,37,-1680,-4759,23,-89,-42,34
483,8635,-17,-1794,-4743,23,-85,-40,37
484,8662,2,-1739,-4747,23,-84,-37,30
485,8631,42,-1774,-4748,23,-87,-40,36
486,8651,-7,-1664,-4756,23,-86,-40,33
487,8660,31,-1656,-4754,23,-90,-39,32
488,8613,-9,-1694,-4763,22,-86,-39,36
489,8669,13,-1672,-4753,23,-90,-41,32
490,8664,-2,-1702,-4753,23,-85,-41,33
491,8659,2,-1719,-4749,23,-85,-40,36
492,8658,43,-1710,-4754,23,-88,-38,33
493,8684,-13,-1710,-4750,23,-87,-32,33
494,8646,-23,-1698,-4749,23,-87,-37,35
495,8622,32,-1685,-4747,23,-88,-36,38
496,8621,-4,-1776,-4748,23,-86,-40,36
497,8631,16,-1738,-4757,23,-87,-34,38
498,8640,-21,-1696,-4753,23,-87,-36,31
499,8622,28,-1678,-4768,22,-88,-36,37
500,8648,17,-1658,-4751,23,-81,-40,33
501,8660,-47,-1654,-4747,23,-90,-39,29
502,8662,20,-1642,-4745,23,-85,-34,32
503,8648,15,-1643,-4756,23,-82,-39,32
504,8680,3,-1726,-4753,23,-88,-36,38
505,8659,-26,-1681,-4742,23,-91,-43,33
506,8702,27,-1670,-4748,23,-87,-37,36
507,8622,22,-1635,-4750,23,-84,-36,33
508,8645,-19,-1725,-4756,23,-88,-40,30
509,8607,-13,-1705,-4748,23,-86,-38,36
510,8645,13,-1701,-4743,23,-86,-35,35
511,8672,-18,-1682,-4742,23,-83,-36,34
512,8636,-5,-1748,-4742,23,-89,-37,35
513,8624,15,-1689,-4747,23,-91,-43,39
514,8604,-13,-1766,-4757,23,-87,-35,32
515,8637,32,-1675,-4744,23,-86,-40,34
516,8626,19,-1660,-4743,23,-86,-39,36
517,8629,27,-1676,-4744,23,-84,-41,33
518,8620,-15,-1691,-4750,23,-90,-36,33
519,8675,18,-1743,-4737,23,-85,-40,33
520,8662,18,-1680,-4741,23,-83,-39,33
521,8618,-6,-1715,-4735,23,-87,-41,32
522,8653,3,-1731,-4750,23,-85,-37,37
523,8648,2,-1722,-4743,23,-87,-37,31
524,8621,-15,-1702,-4741,23,-85,-39,30
525,8660,17,-1664,-4747,23,-86,-37,31
526,8633,44,-1693,-4744,23,-86,-39,38
527,8615,-12,-1732,-4749,23,-85,-36,35
528,8643,7,-1644,-4743,23,-82,-34,31
529,8648,34,-1721,-4747,23,-86,-37,33
530,8623,34,-1702,-4748,23,-88,-37,35
531,8622,4,-1703,-4745,23,-88,-38,35
532,8630,33,-1728,-4763,22,-86,-37,32
533,8602,18,-1694,-4760,22,-87,-38,37
534,8662,-12,-1713,-4744,23,-89,-37,33
535,8605,3,-1625,-4744,23,-84,-35,35
536,8661,4,-1740,-4752,23,-89,-37,31
537,8643,-39,-1684,-4740,23,-90,-39,33
538,8639,-11,-1599,-4760,22,-90,-39,29
539,8621,16,-1705,-4740,23,-91,-39,35
540,8668,5,-1629,-4743,23,-90,-42,34
541,8613,-15,-1692,-4745,23,-86,-42,32
542,8629,8,-1745,-4762,22,-82,-35,34
543,8659,22,-1713,-4751,23,-90,-41,36
544,8604,-24,-1667,-4752,23,-88,-35,35
545,8672,-9,-1724,-4756,23,-87,-41,34
546,8659,12,-1748,-4741,23,-90,-40,33
547,8629,28,-1661,-4751,23,-90,-38,33
548,8644,-3,-1673,-4753,23,-87,-36,35
549,8645,-23,-1719,-4753,23,-89,-37,36
550,8632,-13,-1736,-4744,23,-90,-34,35
551,8622,15,-1751,-4735,23,-88,-39,35
552,8644,10,-1728,-4738,23,-85,-37,32
553,8653,-34,-1707,-4743,23,-89,-42,31
554,8638,-5,-1667,-4737,23,-88,-39,35
555,8657,12,-1685,-4740,23,-88,-37,38
556,8636,0,-1677,-4761,22,-87,-38,34
557,8656,15,-1625,-4754,23,-83,-37,32
558,8662,-4,-1721,-4739,23,-88,-37,33
559,8647,24,-1698,-4745,23,-88,-38,32
560,8621,-9,-1712,-4735,23,-85,-42,32
561,8656,-17,-1677,-4742,23,-91,-41,32
562,8651,-39,-1679,-4753,23,-89,-38,31
563,8628,-17,-1669,-4748,23,-88,-38,31
564,8630,26,-1684,-4759,23,-83,-37,33
565,8622,68,-1728,-4757,23,-87,-37,35
566,8649,-3,-1694,-4750,23,-84,-40,34
567,8636,3,-1725,-4750,23,-90,-36,32
568,8614,17,-1713,-4757,23,-86,-43,35
569,8663,5,-1762,-4743,23,-93,-37,37
570,8662,-3,-1703,-4754,23,-88,-38,35
571,8645,22,-1758,-4744,23,-86,-41,32
572,8636,-15,-1724,-4744,23,-89,-37,33
573,8626,-25,-1733,-4761,22,-88,-36,37
574,8631,3,-1695,-4754,23,-90,-34,36
575,8606,5,-1761,-4741,23,-85,-41,34
576,8654,-24,-1675,-4760,22,-85,-38,37
577,8627,36,-1664,-4747,23,-87,-34,32
578,8678,30,-1696,-4752,23,-88,-34,37
579,8653,-14,-1673,-4764,22,-84,-36,35
580,8625,23,-1700,-4756,23,-89,-35,34
581,8603,4,-1642,-4741,23,-81,-37,35
582,8675,30,-1686,-4757,23,-86,-39,35
583,8651,-26,-1724,-4753,23,-87,-36,33
584,8645,-12,-1665,-4734,23,-84,-36,32
585,8640,-25,-1749,-4741,23,-88,-38,35
586,8628,-43,-1664,-4749,23,-88,-39,38
587,8638,3,-1681,-4742,23,-88,-35,35
588,8647,-9,-1650,-4745,23,-87,-42,35
589,8662,-21,-1693,-4743,23,-90,-35,32
590,8667,29,-1690,-4749,23,-86,-38,34
591,8678,-11,-1656,-4741,23,-85,-38,36
592,8659,19,-1717,-4756,23,-90,-37,38
593,8644,3,-1721,-4750,23,-88,-32,34
594,8638,19,-1691,-4746,23,-86,-34,35
595,8654,-22,-1665,-4742,23,-85,-42,35
596,8648,-2,-1704,-4761,22,-87,-37,35
597,8628,-8,-1665,-4748,23,-84,-37,30
598,8644,-10,-1749,-4756,23,-90,-35,35
599,8618,-36,-1703,-4748,23,-88,-40,34
600,8634,19,-1672,-4747,23,-87,-34,38
601,8643,35,-1623,-4741,23,-89,-38,35
602,8601,-9,-1741,-4747,23,-90,-39,31
603,8587,-10,-1687,-4758,23,-89,-39,34
604,8641,31,-1729,-4746,23,-87,-36,37
605,8674,1,-1638,-4752,23,-88,-39,32
606,8689,-19,-1765,-4748,23,-85,-40,36
607,8639,-4,-1662,-4754,23,-87,-37,36
608,8646,17,-1722,-4751,23,-85,-41,31
609,8670,-6,-1709,-4752,23,-83,-42,32
610,8642,-16,-1732,-4743,23,-90,-34,35
611,8624,-5,-1744,-4755,23,-87,-37,31
612,8671,24,-1759,-4732,23,-88,-36,35
613,8620,26,-1654,-4748,23,-86,-37,32
614,8658,3,-1758,-4763,22,-84,-34,35
615,8620,60,-1700,-4756,23,-90,-38,33
616,8629,-7,-1698,-4746,23,-86,-38,37
617,8637,-12,-1721,-4739,23,-83,-41,36
618,8642,-19,-1714,-4752,23,-84,-38,36
619,8631,39,-1713,-4762,22,-85,-39,34
620,8663,-47,-1625,-4749,23,-86,-33,36
621,8671,-2,-1722,-4757,23,-85,-40,31
622,8618,27,-1755,-4744,23,-83,-38,34
623,8611,26,-1675,-4756,23,-87,-39,33
624,8630,-6,-1718,-4748,23,-86,-43,32
625,8657,-28,-1694,-4743,23,-87,-41,33
626,8667,-12,-1737,-4750,23,-85,-42,38
627,8610,29,-1758,-4743,23,-85,-39,34
628,8622,-12,-1674,-4752,23,-86,-42,34
629,8612,-10,-1713,-4748,23,-85,-41,32
630,8634,-7,-1681,-4750,23,-87,-37,34
631,8659,7,-1619,-4748,23,-86,-44,33
632,8631,-72,-1643,-4760,22,-87,-39,39
633,8629,4,-1642,-4733,23,-86,-34,36
634,8638,-1,-1682,-4747,23,-88,-34,39
635,8636,16,-1708,-4754,23,-89,-33,38
636,8664,22,-1704,-4747,23,-87,-35,35
637,8625,49,-1686,-4737,23,-85,-35,33
638,8644,30,-1706,-4742,23,-83,-37,35
639,8645,5,-1670,-4748,23,-86,-37,33
640,8600,-13,-1701,-4739,23,-88,-39,33
641,8633,-17,-1735,-4751,23,-85,-41,35
642,8641,13,-1680,-4738,23,-87,-39,31
643,8638,37,-1667,-4751,23,-92,-40,31
644,8657,-36,-1705,-4755,23,-85,-36,37
645,8645,-17,-1641,-4757,23,-84,-42,32
646,8595,-10,-1726,-4741,23,-86,-37,37
647,8653,-3,-1710,-4745,23,-88,-35,33
648,8650,-2,-1756,-4753,23,-84,-36,37
649,8627,9,-1748,-4744,23,-82,-43,36
650,8623,14,-1701,-4738,23,-87,-41,34
651,8630,12,-1743,-4746,23,-83,-43,33
652,8645,31,-1700,-4753,23,-89,-33,34
653,8622,3,-1681,-4744,23,-89,-39,35
654,8679,-2,-1745,-4751,23,-85,-39,34
655,8664,33,-1721,-4745,23,-89,-42,34
656,8678,-5,-1716,-4740,23,-90,-35,34
657,8603,7,-1658,-4741,23,-87,-40,33
658,8644,28,-1702,-4755,23,-85,-40,32
659,8627,41,-1663,-4742,23,-84,-41,36
660,8632,-14,-1688,-4750,23,-85,-37,32
661,8635,-11,-1637,-4757,23,-85,-40,32
662,8683,1,-1703,-4747,23,-85,-38,32
663,8634,2,-1649,-4738,23,-88,-37,34
664,8656,50,-1662,-4752,23,-86,-38,36
665,8644,13,-1711,-4765,22,-88,-40,36
666,8646,48,-1766,-4742,23,-82,-43,33
667,8641,-24,-1754,-4750,23,-87,-40,38
668,8635,8,-1724,-4753,23,-84,-41,37
669,8646,-16,-1663,-4752,23,-89,-38,35
670,8609,-35,-1654,-4754,23,-88,-38,34
671,8680,1,-1737,-4739,23,-87,-37,36
672,8669,-4,-1793,-4734,23,-89,-36,34
673,8642,2,-1683,-4749,23,-84,-43,40
674,8594,8,-1738,-4741,23,-84,-42,35
675,8637,13,-1675,-4733,23,-88,-42,33
676,8593,34,-1689,-4755,23,-81,-39,31
677,8621,2,-1672,-4745,23,-88,-40,37
678,8641,-9,-1718,-4754,23,-89,-35,32
679,8700,10,-1709,-4728,23,-82,-38,35
680,8642,13,-1711,-4743,23,-87,-38,32
681,8635,-10,-1737,-4750,23,-86,-35,32
682,8644,3,-1686,-4752,23,-83,-38,30
683,8625,18,-1730,-4757,23,-89,-35,33
684,8633,23,-1712,-4742,23,-87,-37,32
685,8632,15,-1665,-4743,23,-90,-39,34
686,8656,34,-1721,-4756,23,-85,-39,37
687,8578,-5,-1662,-4739,23,-82,-44,33
688,8630,-34,-1691,-4742,23,-88,-37,35
689,8680,58,-1718,-4742,23,-83,-37,33
690,8638,48,-1666,-4751,23,-85,-39,29
691,8658,12,-1709,-4756,23,-85,-34,35
692,8645,44,-1727,-4740,23,-88,-40,37
693,8650,-4,-1694,-4739,23,-88,-40,35
694,8635,25,-1700,-4750,23,-88,-37,38
695,8639,6,-1696,-4742,23,-84,-39,33
696,8668,16,-1666,-4755,23,-90,-38,33
697,8662,15,-1651,-4758,23,-86,-38,33
698,8617,-29,-1697,-4743,23,-83,-40,33
699,8618,9,-1749,-4743,23,-86,-37,32
700,8660,27,-1713,-4752,23,-87,-31,35
701,8642,15,-1694,-4736,23,-85,-33,36
702,8628,2,-1745,-4750,23,-89,-36,33
703,8635,28,-1743,-4746,23,-88,-40,33
704,8644,43,-1714,-4744,23,-87,-42,35
705,8656,52,-1673,-4748,23,-85,-38,37
706,8613,29,-1630,-4747,23,-88,-36,34
707,8721,-33,-1728,-4745,23,-89,-41,34
708,8632,12,-1692,-4746,23,-88,-38,33
709,8668,7,-1692,-4730,23,-87,-39,31
710,8623,13,-1758,-4743,23,-90,-41,37
711,8645,42,-1678,-4736,23,-87,-42,34
712,8639,3,-1712,-4746,23,-85,-38,35
713,8625,14,-1736,-4752,23,-86,-41,34
714,8615,4,-1693,-4735,23,-89,-36,33
715,8650,-32,-1760,-4756,23,-86,-36,33
716,8639,9,-1717,-4752,23,-89,-36,30
717,8658,56,-1704,-4741,23,-85,-35,30
718,8652,3,-1709,-4743,23,-84,-43,35
719,8664,-23,-1727,-4742,23,-90,-40,32
720,8653,22,-1705,-4750,23,-86,-42,37
721,8607,5,-1659,-4749,23,-84,-39,40
722,8640,-9,-1729,-4749,23,-91,-35,35
723,8643,-10,-1719,-4734,23,-90,-38,30
724,8652,20,-1716,-4750,23,-86,-39,32
725,8641,-6,-1751,-4744,23,-86,-39,36
726,8652,-29,-1719,-4750,23,-87,-38,37
727,8650,13,-1737,-4730,23,-87,-44,31
728,8634,32,-1722,-4749,23,-86,-38,32
729,8649,-32,-1700,-4744,23,-86,-41,34
730,8655,11,-1739,-4746,23,-85,-35,34
731,8634,-19,-1667,-4747,23,-92,-36,36
732,8626,28,-1689,-4748,23,-87,-39,35
733,8656,-29,-1680,-4749,23,-87,-40,33
734,8630,9,-1759,-4744,23,-88,-39,31
735,8638,51,-1679,-4748,23,-87,-37,31
736,8645,19,-1696,-4743,23,-86,-42,37
737,8642,31,-1686,-4741,23,-86,-40,35
738,8638,-11,-1666,-4750,23,-90,-39,35
739,8687,-19,-1719,-4736,23,-89,-35,35
740,8609,4,-1702,-4753,23,-89,-43,32
741,8630,-21,-1673,-4741,23,-88,-36,37
742,8655,24,-1728,-4755,23,-83,-34,37
743,8664,20,-1688,-4743,23,-89,-33,36
744,8648,29,-1697,-4742,23,-82,-38,38
745,8676,7,-1681,-4732,23,-87,-39,33
746,8605,15,-1712,-4744,23,-87,-39,35
747,8643,3,-1717,-4751,23,-90,-35,33
748,8641,13,-1693,-4728,23,-81,-42,31
749,8669,-14,-1722,-4751,23,-90,-34,35
750,8679,-7,-1687,-4741,23,-88,-40,36
751,8648,-15,-1730,-4742,23,-83,-39,37
752,8650,6,-1748,-4742,23,-88,-35,31
753,8650,-3,-1676,-4737,23,-86,-36,36
754,8624,5,-1714,-4741,23,-86,-34,34
755,8624,-1,-1626,-4740,23,-88,-39,37
756,8641,7,-1653,-4746,23,-89,-37,34
757,8623,-23,-1692,-4746,23,-87,-38,32
758,8628,19,-1639,-4745,23,-87,-39,33
759,8660,-3,-1770,-4743,23,-85,-35,32
760,8590,10,-1684,-4749,23,-85,-34,30
761,8650,-12,-1706,-4736,23,-90,-41,32
762,8649,25,-1670,-4744,23,-84,-41,35
763,8620,3,-1674,-4757,23,-88,-35,34
764,8711,52,-1718,-4749,23,-91,-37,29
765,8637,-27,-1694,-4742,23,-89,-40,33
766,8610,3,-1709,-4750,23,-89,-39,34
767,8644,7,-1711,-4737,23,-87,-40,35
768,8681,14,-1677,-4730,23,-84,-32,33
769,8620,-7,-1672,-4762,22,-85,-36,33
770,8612,-7,-1626,-4745,23,-88,-41,34
771,8645,-5,-1686,-4745,23,-88,-38,34
772,8629,-7,-1669,-4749,23,-83,-40,34
773,8644,-4,-1737,-4749,23,-85,-35,32
774,8673,-2,-1663,-4741,23,-88,-41,33
775,8636,27,-1645,-4752,23,-91,-37,31
776,8674,2,-1705,-4744,23,-87,-42,36
777,8606,11,-1763,-4739,23,-84,-40,32
778,8611,1,-1706,-4740,23,-85,-37,34
779,8633,20,-1678,-4745,23,-91,-39,38
780,8656,9,-1681,-4746,23,-82,-44,33
781,8619,-31,-1770,-4742,23,-87,-38,28
782,8617,-36,-1691,-4740,23,-87,-37,35
783,8638,2,-1734,-4750,23,-87,-37,32
784,8630,-20,-1669,-4757,23,-85,-36,33
785,8620,23,-1664,-4755,23,-89,-34,35
786,8654,32,-1678,-4746,23,-84,-33,34
787,8628,44,-1663,-4746,23,-86,-37,32
788,8670,3,-1691,-4748,23,-85,-41,32
789,8636,43,-1725,-4745,23,-85,-37,35
790,8658,-13,-1744,-4761,22,-87,-35,37
791,8649,-2,-1685,-4744,23,-87,-39,34
792,8661,-11,-1722,-4747,23,-86,-39,35
793,8623,9,-1689,-4743,23,-87,-40,31
794,8659,-14,-1724,-4751,23,-86,-36,35
795,8646,-23,-1666,-4752,23,-87,-35,37
796,8615,0,-1718,-4745,23,-85,-36,32
797,8665,-20,-1711,-4736,23,-89,-35,39
798,8639,20,-1729,-4756,23,-86,-38,37
799,8670,-5,-1680,-4757,23,-90,-37,36
800,8629,9,-1664,-4749,23,-85,-41,35
801,8659,18,-1714,-4740,23,-85,-41,34
802,8604,-35,-1692,-4748,23,-83,-37,39
803,8631,-11,-1696,-4750,23,-90,-39,33
804,8623,29,-1699,-4733,23,-91,-32,31
805,8647,28,-1743,-4746,23,-84,-41,33
806,8647,-29,-1648,-4741,23,-90,-37,36
807,8614,-16,-1708,-4754,23,-86,-39,33
808,8627,-47,-1737,-4744,23,-86,-37,35
809,8622,21,-1677,-4745,23,-87,-38,36
810,8664,52,-1741,-4756,23,-84,-38,33
811,8613,-25,-1653,-4735,23,-87,-35,32
812,8591,5,-1721,-4749,23,-90,-39,36
813,8679,37,-1721,-4749,23,-91,-38,36
814,8631,-7,-1697,-4743,23,-86,-37,32
815,8611,3,-1706,-4751,23,-89,-37,37
816,8671,12,-1683,-4757,23,-87,-40,30
817,8621,-25,-1669,-4735,23,-87,-40,35
818,8637,19,-1743,-4749,23,-86,-37,35
819,8641,-16,-1751,-4751,23,-88,-37,36
820,8637,-18,-1724,-4750,23,-88,-39,37
821,8647,31,-1676,-4736,23,-85,-36,35
822,8607,-23,-1706,-4764,22,-84,-38,31
823,8659,-7,-1708,-4753,23,-85,-34,34
824,8615,7,-1643,-4739,23,-86,-42,38
825,8631,38,-1656,-4741,23,-91,-39,33
826,8628,-19,-1690,-4739,23,-88,-42,38
827,8615,-2,-1739,-4750,23,-88,-40,36
828,8675,-2,-1645,-4756,23,-89,-41,35
829,8657,15,-1735,-4746,23,-88,-37,32
830,8634,5,-1670,-4747,23,-90,-40,36
831,8608,-19,-1708,-4747,23,-88,-34,38
832,8666,17,-1641,-4742,23,-91,-38,34
833,8683,21,-1664,-4742,23,-88,-40,33
834,8660,2,-1702,-4746,23,-88,-42,31
835,8643,-5,-1657,-4747,23,-89,-37,34
836,8670,74,-1728,-4750,23,-86,-34,35
837,8642,6,-1654,-4744,23,-89,-38,34
838,8648,49,-1717,-4751,23,-86,-39,29
839,8641,20,-1705,-4739,23,-86,-36,32
840,8644,-4,-1733,-4736,23,-82,-42,37
841,8652,4,-1706,-4743,23,-85,-40,31
842,8656,-35,-1713,-4741,23,-85,-33,31
843,8668,17,-1705,-4752,23,-85,-36,40
844,8635,-20,-1686,-4741,23,-89,-32,36
845,8608,29,-1689,-4746,23,-85,-39,36
846,8639,-5,-1664,-4766,22,-87,-43,31
847,8643,13,-1720,-4766,22,-92,-36,33
848,8660,-3,-1729,-4753,23,-89,-37,34
849,8663,8,-1666,-4749,23,-84,-39,35
850,8645,-15,-1730,-4742,23,-91,-37,36
851,8675,-13,-1785,-4759,23,-89,-37,32
852,8641,-15,-1633,-4747,23,-88,-41,34
853,8643,29,-1698,-4744,23,-87,-43,36
854,8624,-11,-1737,-4734,23,-85,-39,37
855,8633,5,-1735,-4744,23,-89,-41,35
856,8627,33,-1640,-4747,23,-87,-40,29
857,8649,51,-1710,-4748,23,-88,-37,31
858,8677,-5,-1679,-4744,23,-86,-33,36
859,8647,24,-1701,-4758,23,-87,-39,33
860,8650,-21,-1687,-4743,23,-84,-33,35
861,8675,-20,-1727,-4741,23,-87,-41,37
862,8616,11,-1683,-4750,23,-85,-35,35
863,8628,19,-1691,-4749,23,-91,-44,32
864,8645,1,-1727,-4737,23,-89,-36,39
865,8634,-37,-1694,-4744,23,-86,-40,35
866,8601,41,-1691,-4743,23,-88,-42,34
867,8636,-8,-1702,-4750,23,-82,-32,35
868,8646,12,-1693,-4746,23,-90,-37,35
869,8636,-1,-1740,-4749,23,-88,-42,35
870,8626,-4,-1676,-4739,23,-87,-38,34
871,8676,18,-1735,-4741,23,-89,-39,31
872,8635,-28,-1694,-4733,23,-87,-39,35
873,8614,-8,-1679,-4734,23,-85,-39,32
874,8607,14,-1698,-4754,23,-86,-39,34
875,8620,-11,-1716,-4750,23,-86,-41,29
876,8614,10,-1677,-4751,23,-88,-33,34
877,8679,27,-1688,-4754,23,-90,-44,37
878,8645,38,-1707,-4757,23,-83,-35,33
879,8637,2,-1656,-4749,23,-86,-32,36
880,8632,-12,-1709,-4740,23,-84,-40,35
881,8631,-34,-1723,-4760,22,-85,-34,33
882,8635,-20,-1687,-4735,23,-85,-37,35
883,8631,12,-1689,-4750,23,-86,-39,33
884,8605,22,-1682,-4733,23,-87,-38,30
885,8645,-7,-1685,-4754,23,-87,-42,36
886,8634,19,-1709,-4740,23,-84,-41,35
887,8657,-12,-1741,-4752,23,-89,-41,34
888,8695,15,-1643,-4748,23,-88,-41,30
889,8639,10,-1704,-4750,23,-83,-36,35
890,8644,1,-1716,-4762,22,-91,-38,33
891,8608,16,-1748,-4752,23,-88,-38,34
892,8661,46,-1710,-4737,23,-85,-40,34
893,8669,3,-1671,-4748,23,-85,-37,35
894,8659,-23,-1647,-4748,23,-86,-37,30
895,8648,-31,-1699,-4751,23,-90,-37,38
896,8587,-21,-1714,-4747,23,-87,-39,36
897,8612,4,-1739,-4749,23,-84,-41,35
898,8633,-1,-1643,-4748,23,-85,-39,34
899,8648,28,-1665,-4743,23,-91,-38,35
900,8664,56,-1671,-4748,23,-87,-38,32
901,8657,0,-1658,-4760,22,-90,-38,36
902,8621,6,-1749,-4750,23,-86,-37,36
903,8664,17,-1728,-4741,23,-89,-39,39
904,8582,45,-1680,-4746,23,-89,-40,33
905,8645,-29,-1700,-4755,23,-82,-36,33
906,8622,-31,-1697,-4737,23,-92,-40,33
907,8629,19,-1690,-4747,23,-85,-37,35
908,8642,10,-1678,-4747,23,-89,-36,35
909,8653,11,-1662,-4740,23,-87,-37,33
910,8638,-5,-1715,-4761,22,-90,-39,36
911,8662,-12,-1754,-4743,23,-82,-38,37
912,8630,1,-1641,-4738,23,-87,-33,34
913,8656,7,-1711,-4743,23,-85,-37,38
914,8605,-8,-1731,-4738,23,-87,-38,31
915,8602,63,-1644,-4744,23,-84,-37,33
916,8624,-1,-1725,-4746,23,-85,-41,32
917,8639,-10,-1694,-4729,23,-88,-41,33
918,8635,29,-1671,-4733,23,-87,-39,35
919,8649,-17,-1763,-4745,23,-87,-38,34
920,8652,-10,-1676,-4743,23,-86,-39,31
921,8666,10,-1664,-4742,23,-87,-36,35
922,8639,28,-1676,-4753,23,-86,-40,33
923,8653,-11,-1636,-4742,23,-89,-40,32
924,8651,13,-1698,-4749,23,-89,-40,36
925,8651,14,-1716,-4744,23,-89,-37,32
926,8628,3,-1749,-4742,23,-83,-36,36
927,8646,29,-1653,-4744,23,-86,-40,38
928,8633,-31,-1730,-4760,22,-89,-37,29
929,8626,21,-1699,-4735,23,-84,-39,32
930,8630,-2,-1706,-4751,23,-89,-35,32
931,8618,38,-1715,-4738,23,-89,-40,33
932,8612,19,-1701,-4736,23,-83,-33,34
933,8643,-5,-1716,-4744,23,-87,-35,36
934,8634,-6,-1685,-4738,23,-83,-35,34
935,8648,-19,-1611,-4745,23,-87,-40,36
936,8617,0,-1762,-4750,23,-85,-37,35
937,8641,-1,-1703,-4744,23,-85,-37,36
938,8638,27,-1752,-4750,23,-86,-42,33
939,8640,27,-1676,-4746,23,-90,-40,33
940,8638,24,-1721,-4750,23,-87,-37,34
941,8610,18,-1720,-4756,23,-83,-37,39
942,8647,34,-1650,-4748,23,-83,-38,36
943,8626,-16,-1707,-4741,23,-85,-35,37
944,8680,20,-1705,-4761,22,-85,-40,31
945,8662,8,-1695,-4738,23,-86,-37,37
946,8647,15,-1721,-4755,23,-89,-37,36
947,8631,-11,-1689,-4755,23,-88,-35,35
948,8619,2,-1722,-4735,23,-81,-37,39
949,8659,-10,-1719,-4739,23,-91,-39,33
950,8658,6,-1760,-4730,23,-91,-34,34
951,8663,-18,-1693,-4739,23,-87,-42,37
952,8650,8,-1723,-4750,23,-84,-42,35
953,8676,11,-1759,-4745,23,-84,-42,34
954,8647,14,-1758,-4742,23,-86,-42,35
955,8662,14,-1696,-4732,23,-85,-39,34
956,8621,-22,-1752,-4747,23,-92,-41,35
957,8648,20,-1721,-4751,23,-86,-37,35
958,8635,19,-1705,-4733,23,-83,-40,32
959,8642,18,-1636,-4740,23,-84,-38,32
960,8624,50,-1712,-4728,23,-83,-41,38
961,8632,-25,-1722,-4751,23,-90,-37,38
962,8644,45,-1722,-4757,23,-84,-42,34
963,8629,23,-1682,-4754,23,-89,-37,36
964,8700,-8,-1734,-4735,23,-93,-37,33
965,8657,28,-1730,-4743,23,-89,-36,37
966,8638,-35,-1697,-4746,23,-84,-37,36
967,8643,23,-1665,-4744,23,-86,-35,31
968,8626,9,-1651,-4747,23,-85,-38,32
969,8656,-1,-1718,-4752,23,-87,-36,35
970,8656,-24,-1794,-4749,23,-86,-37,37
971,8606,-32,-1666,-4738,23,-85,-39,37
972,8595,12,-1718,-4750,23,-84,-40,37
973,8642,-2,-1745,-4761,22,-88,-36,32
974,8655,6,-1752,-4742,23,-87,-37,32
975,8620,-4,-1687,-4736,23,-85,-37,31
976,8638,20,-1723,-4745,23,-84,-36,37
977,8614,4,-1707,-4766,22,-82,-40,36
978,8629,25,-1713,-4742,23,-90,-36,38
979,8620,-11,-1697,-4762,22,-87,-39,36
980,8617,19,-1683,-4757,23,-91,-39,35
981,8657,-4,-1715,-4759,23,-88,-36,37
982,8673,41,-1711,-4746,23,-86,-38,36
983,8607,1,-1708,-4752,23,-85,-38,39
984,8653,14,-1674,-4743,23,-86,-35,34
985,8628,-15,-1710,-4752,23,-86,-40,30
986,8613,-9,-1704,-4750,23,-90,-41,33
987,8641,-1,-1717,-4750,23,-88,-40,34
988,8675,-21,-1765,-4738,23,-86,-39,34
989,8638,18,-1719,-4738,23,-84,-38,37
990,8636,16,-1718,-4761,22,-90,-39,34
991,8636,-7,-1666,-4750,23,-88,-35,36
992,8639,-13,-1703,-4738,23,-86,-41,32
993,8636,-5,-1739,-4737,23,-86,-36,39
994,8609,-1,-1708,-4734,23,-89,-42,33
995,8660,5,-1697,-4752,23,-81,-38,30
996,8672,51,-1672,-4759,23,-86,-39,34
997,8654,26,-1675,-4728,23,-86,-37,34
998,8637,12,-1727,-4751,23,-87,-41,34
