,acc_X,acc_Y,acc_Z,temp,tempC,gyr_X,gyr_Y,gyr_Z
0,8646,2,-1729,-4768,22,-85,-40,34
1,8603,14,-1730,-4771,22,-85,-37,34
2,8617,-20,-1669,-4775,22,-86,-40,35
3,8612,-28,-1695,-4749,23,-83,-36,34
4,8647,-7,-1677,-4760,22,-89,-40,35
5,8607,4,-1703,-4768,22,-86,-37,35
6,8642,-16,-1686,-4768,22,-83,-33,31
7,8648,23,-1710,-4761,22,-90,-38,35
8,8607,-12,-1716,-4757,23,-89,-34,33
9,8649,30,-1651,-4758,23,-84,-37,33
10,8627,-22,-1675,-4763,22,-92,-42,35
11,8625,-55,-1660,-4765,22,-84,-38,35
12,8640,10,-1668,-4768,22,-84,-37,35
13,8644,16,-1685,-4757,23,-85,-41,36
14,8634,-27,-1719,-4766,22,-89,-41,33
15,8648,24,-1705,-4764,22,-87,-38,36
16,8660,4,-1736,-4755,23,-82,-36,33
17,8607,21,-1701,-4763,22,-91,-42,38
18,8657,37,-1712,-4753,23,-87,-38,33
19,8648,-11,-1726,-4783,22,-82,-38,28
20,8627,8,-1773,-4767,22,-89,-33,32
21,8636,25,-1634,-4759,23,-86,-37,35
22,8618,-1,-1666,-4764,22,-89,-34,33
23,8656,19,-1658,-4768,22,-84,-38,35
24,8641,19,-1619,-4772,22,-89,-37,37
25,8661,32,-1704,-4764,22,-89,-35,36
26,8661,27,-1728,-4768,22,-83,-36,38
27,8652,19,-1718,-4775,22,-89,-39,34
28,8642,13,-1652,-4772,22,-88,-36,32
29,8651,4,-1675,-4771,22,-87,-40,39
30,8633,35,-1692,-4762,22,-85,-39,35
31,8607,30,-1686,-4757,23,-85,-35,33
32,8682,-2,-1728,-4770,22,-86,-42,36
33,8637,10,-1707,-4773,22,-87,-38,28
34,8663,19,-1653,-4761,22,-85,-35,34
35,8651,3,-1670,-4770,22,-85,-35,36
36,8653,46,-1648,-4768,22,-88,-39,31
37,8645,13,-1728,-4766,22,-87,-36,32
38,8621,17,-1727,-4760,22,-83,-41,30
39,8607,-1,-1676,-4774,22,-89,-37,32
40,8637,-8,-1714,-4762,22,-88,-40,33
41,8655,-19,-1727,-4766,22,-89,-39,33
42,8624,-4,-1749,-4774,22,-88,-36,36
43,8714,30,-1736,-4772,22,-85,-36,35
44,8594,19,-1685,-4771,22,-81,-36,34
45,8665,19,-1695,-4771,22,-85,-38,36
46,8655,-1,-1701,-4754,23,-90,-37,32
47,8614,40,-1767,-4772,22,-85,-38,39
48,8632,-13,-1739,-4765,22,-86,-37,36
49,8623,40,-1762,-4772,22,-85,-36,32
50,8668,-15,-1682,-4787,22,-88,-38,36
51,8630,19,-1702,-4748,23,-87,-41,34
52,8640,13,-1670,-4765,22,-85,-37,34
53,8614,7,-1695,-4747,23,-86,-38,34
54,8628,-29,-1642,-4752,23,-88,-38,31
55,8665,-13,-1706,-4758,23,-85,-40,37
56,8622,-10,-1720,-4760,22,-91,-37,33
57,8638,27,-1681,-4758,23,-86,-40,33
58,8674,-2,-1685,-4778,22,-87,-42,36
59,8633,8,-1685,-4758,23,-86,-37,36
60,8685,18,-1666,-4769,22,-89,-39,38
61,8602,-1,-1727,-4758,23,-85,-34,33
62,8672,-29,-1727,-4773,22,-84,-43,30
63,8643,32,-1616,-4764,22,-89,-36,31
64,8714,52,-1663,-4761,22,-87,-38,35
65,8631,-15,-1739,-4766,22,-88,-39,39
66,8661,6,-1737,-4768,22,-87,-39,38
67,8636,-9,-1765,-4765,22,-86,-38,36
68,8651,11,-1693,-4775,22,-85,-38,33
69,8616,12,-1686,-4773,22,-86,-35,38
70,8659,-42,-1692,-4773,22,-92,-32,32
71,8646,-1,-1731,-4760,22,-87,-39,37
72,8659,-13,-1725,-4768,22,-89,-36,36
73,8660,31,-1708,-4765,22,-89,-39,30
74,8635,18,-1648,-4763,22,-84,-38,38
75,8615,-13,-1727,-4762,22,-91,-38,32
76,8645,-15,-1703,-4771,22,-87,-40,39
77,8653,-17,-1658,-4771,22,-84,-41,34
78,8633,4,-1676,-4761,22,-85,-38,35
79,8641,-12,-1709,-4764,22,-88,-35,35
80,8604,28,-1704,-4764,22,-86,-35,34
81,8678,11,-1710,-4750,23,-89,-37,35
82,8635,10,-1689,-4769,22,-87,-37,33
83,8650,11,-1711,-4763,22,-85,-43,35
84,8658,-12,-1674,-4768,22,-88,-40,35
85,8652,22,-1702,-4759,23,-87,-40,36
86,8692,45,-1710,-4767,22,-85,-38,34
87,8646,0,-1684,-4764,22,-82,-40,36
88,8609,-37,-1639,-4767,22,-86,-37,37
89,8640,-7,-1681,-4780,22,-87,-40,35
90,8670,23,-1754,-4769,22,-89,-30,33
91,8638,29,-1684,-4767,22,-86,-42,34
92,8682,11,-1753,-4765,22,-87,-41,36
93,8642,-3,-1677,-4762,22,-86,-40,33
94,8656,0,-1736,-4781,22,-89,-36,32
95,8626,-2,-1727,-4757,23,-86,-37,34
96,8624,-8,-1646,-4771,22,-86,-41,33
97,8635,25,-1687,-4790,22,-91,-38,35
98,8682,19,-1673,-4776,22,-87,-34,33
99,8651,22,-1715,-4761,22,-88,-44,36
100,8621,1,-1721,-4789,22,-84,-40,32
101,8630,-2,-1607,-4770,22,-85,-34,35
102,8654,29,-1744,-4756,23,-89,-38,33
103,8655,16,-1716,-4763,22,-88,-36,36
104,8631,12,-1670,-4767,22,-87,-34,35
105,8681,25,-1688,-4759,23,-87,-43,32
106,8658,-10,-1719,-4751,23,-85,-42,31
107,8624,3,-1676,-4768,22,-87,-43,36
108,8671,20,-1707,-4759,23,-88,-40,36
109,8635,21,-1704,-4764,22,-86,-40,36
110,8656,3,-1715,-4765,22,-89,-39,34
111,8651,1,-1722,-4771,22,-84,-40,32
112,8619,-39,-1654,-4769,22,-85,-39,32
113,8609,1,-1688,-4766,22,-88,-42,33
114,8630,-47,-1693,-4767,22,-89,-37,37
115,8667,10,-1666,-4767,22,-86,-42,37
116,8636,-23,-1738,-4781,22,-84,-41,33
117,8608,-1,-1706,-4766,22,-85,-37,36
118,8631,60,-1696,-4770,22,-84,-39,36
119,8651,42,-1624,-4767,22,-88,-36,35
120,8659,23,-1712,-4770,22,-90,-41,29
121,8629,24,-1672,-4759,23,-84,-35,34
122,8611,-9,-1686,-4775,22,-91,-41,34
123,8652,-14,-1716,-4781,22,-84,-40,34
124,8656,4,-1703,-4757,23,-86,-41,34
125,8609,20,-1712,-4753,23,-87,-35,30
126,8606,-33,-1658,-4778,22,-91,-37,33
127,8643,-7,-1729,-4759,23,-86,-34,35
128,8643,-10,-1702,-4768,22,-83,-42,33
129,8635,-2,-1689,-4760,22,-89,-39,34
130,8628,13,-1692,-4769,22,-85,-38,32
131,8627,-9,-1710,-4772,22,-86,-35,37
132,8648,13,-1714,-4767,22,-85,-38,33
133,8619,-40,-1751,-4772,22,-86,-41,38
134,8641,-8,-1675,-4783,22,-88,-36,30
135,8643,-21,-1728,-4758,23,-86,-43,37
136,8629,9,-1677,-4767,22,-86,-36,35
137,8653,25,-1712,-4773,22,-86,-43,31
138,8680,3,-1747,-4762,22,-88,-40,33
139,8634,-12,-1748,-4763,22,-91,-41,35
140,8657,-22,-1655,-4778,22,-89,-38,34
141,8616,-4,-1699,-4763,22,-84,-38,35
142,8647,-20,-1779,-4766,22,-88,-38,32
143,8602,34,-1689,-4759,23,-86,-38,38
144,8611,7,-1727,-4767,22,-88,-34,36
145,8653,-6,-1712,-4768,22,-86,-40,35
146,8674,0,-1707,-4765,22,-86,-36,37
147,8667,-24,-1721,-4763,22,-87,-36,33
148,8632,-48,-1690,-4759,23,-85,-35,38
149,8657,-13,-1666,-4757,23,-93,-37,37
150,8639,3,-1745,-4767,22,-88,-44,35
151,8666,-4,-1650,-4774,22,-89,-41,32
152,8629,21,-1709,-4757,23,-87,-38,37
153,8646,8,-1672,-4764,22,-91,-32,33
154,8642,44,-1645,-4790,22,-89,-35,35
155,8644,22,-1723,-4762,22,-86,-39,36
156,8655,16,-1674,-4771,22,-86,-39,34
157,8600,-10,-1648,-4758,23,-84,-37,36
158,8628,-7,-1631,-4762,22,-90,-36,33
159,8614,-9,-1688,-4756,23,-89,-40,33
160,8667,12,-1666,-4783,22,-88,-32,33
161,8637,49,-1719,-4763,22,-87,-33,32
162,8657,39,-1713,-4773,22,-82,-41,31
163,8672,-10,-1700,-4769,22,-92,-38,32
164,8670,7,-1727,-4770,22,-87,-38,37
165,8650,39,-1680,-4764,22,-92,-37,30
166,8638,-15,-1692,-4771,22,-88,-39,34
167,8644,40,-1685,-4759,23,-89,-37,38
168,8626,0,-1722,-4770,22,-86,-41,32
169,8626,4,-1718,-4776,22,-90,-36,32
170,8639,-53,-1737,-4765,22,-86,-44,35
171,8641,0,-1746,-4779,22,-86,-39,34
172,8647,17,-1676,-4764,22,-87,-37,33
173,8638,-30,-1708,-4777,22,-85,-40,33
174,8639,-1,-1681,-4773,22,-91,-44,32
175,8670,-18,-1742,-4763,22,-86,-39,30
176,8695,13,-1687,-4749,23,-87,-42,34
177,8629,13,-1683,-4779,22,-89,-40,36
178,8644,-23,-1695,-4764,22,-84,-37,33
179,8621,16,-1730,-4777,22,-86,-43,32
180,8649,-14,-1716,-4774,22,-87,-41,32
181,8642,32,-1704,-4768,22,-85,-34,35
182,8627,8,-1675,-4770,22,-85,-38,36
183,8628,3,-1683,-4773,22,-87,-41,38
184,8629,4,-1733,-4762,22,-92,-40,33
185,8633,3,-1772,-4754,23,-89,-38,36
186,8616,12,-1699,-4766,22,-89,-41,33
187,8641,-9,-1694,-4755,23,-89,-38,32
188,8632,5,-1688,-4763,22,-91,-36,36
189,8645,-1,-1685,-4763,22,-87,-38,37
190,8593,38,-1629,-4769,22,-85,-40,31
191,8602,-26,-1687,-4758,23,-84,-37,35
192,8664,-16,-1650,-4764,22,-84,-37,34
193,8652,-15,-1679,-4763,22,-89,-37,35
194,8613,6,-1696,-4763,22,-92,-39,28
195,8626,-2,-1628,-4762,22,-88,-40,33
196,8683,24,-1682,-4769,22,-82,-38,35
197,8625,18,-1706,-4761,22,-88,-42,34
198,8665,-7,-1733,-4767,22,-88,-34,37
199,8617,-4,-1723,-4776,22,-81,-38,29
200,8610,1,-1706,-4761,22,-88,-35,35
201,8612,3,-1653,-4767,22,-85,-35,36
202,8638,15,-1721,-4754,23,-88,-41,33
203,8642,-4,-1711,-4760,22,-83,-43,38
204,8616,-12,-1680,-4761,22,-90,-41,36
205,8626,-2,-1760,-4760,22,-88,-39,34
206,8598,7,-1681,-4762,22,-86,-39,36
207,8656,-32,-1720,-4765,22,-84,-40,38
208,8617,40,-1706,-4770,22,-84,-37,35
209,8632,-17,-1707,-4774,22,-87,-38,32
210,8642,-12,-1751,-4769,22,-90,-39,36
211,8647,-21,-1684,-4767,22,-81,-36,32
212,8622,-24,-1693,-4763,22,-87,-37,37
213,8639,-42,-1730,-4777,22,-88,-35,33
214,8617,12,-1711,-4750,23,-88,-42,33
215,8650,-23,-1723,-4765,22,-86,-39,34
216,8634,0,-1715,-4773,22,-85,-36,31
217,8628,31,-1710,-4758,23,-85,-38,35
218,8654,-35,-1663,-4754,23,-89,-38,31
219,8652,40,-1681,-4761,22,-86,-38,37
220,8638,-5,-1725,-4760,22,-87,-36,31
221,8649,31,-1696,-4770,22,-86,-39,31
222,8663,11,-1672,-4768,22,-89,-38,36
223,8628,49,-1711,-4767,22,-86,-37,31
224,8627,30,-1640,-4768,22,-91,-34,31
225,8660,38,-1696,-4766,22,-89,-34,32
226,8666,1,-1681,-4769,22,-88,-39,35
227,8666,-3,-1681,-4769,22,-85,-38,31
228,8632,-4,-1645,-4768,22,-85,-39,38
229,8645,-2,-1698,-4767,22,-84,-37,31
230,8614,24,-1687,-4758,23,-89,-35,35
231,8619,20,-1675,-4770,22,-86,-41,34
232,8615,-4,-1741,-4760,22,-88,-40,31
233,8680,7,-1714,-4772,22,-85,-37,32
234,8599,3,-1688,-4759,23,-90,-39,33
235,8642,-25,-1712,-4769,22,-85,-41,32
236,8626,25,-1685,-4765,22,-90,-34,37
237,8670,1,-1758,-4763,22,-87,-39,35
238,8647,0,-1674,-4760,22,-84,-42,39
239,8648,13,-1719,-4767,22,-87,-36,38
240,8655,-31,-1731,-4774,22,-86,-38,34
241,8648,-6,-1690,-4772,22,-85,-39,33
242,8623,6,-1712,-4763,22,-87,-37,32
243,8617,-10,-1689,-4779,22,-85,-37,31
244,8611,-21,-1706,-4770,22,-87,-42,32
245,8625,4,-1710,-4750,23,-86,-35,35
246,8617,10,-1714,-4763,22,-84,-41,34
247,8661,16,-1654,-4764,22,-80,-38,32
248,8624,3,-1697,-4771,22,-88,-38,33
249,8603,4,-1655,-4754,23,-91,-43,34
250,8641,-9,-1670,-4769,22,-84,-39,31
251,8642,28,-1700,-4767,22,-88,-36,34
252,8618,37,-1650,-4765,22,-85,-38,33
253,8613,-10,-1715,-4768,22,-85,-38,34
254,8642,-7,-1687,-4765,22,-86,-36,35
255,8640,10,-1681,-4760,22,-86,-33,34
256,8632,6,-1694,-4775,22,-89,-36,38
257,8690,55,-1720,-4769,22,-87,-42,32
258,8588,11,-1722,-4764,22,-88,-41,34
259,8626,-2,-1691,-4771,22,-88,-35,33
260,8652,16,-1680,-4769,22,-90,-38,38
261,8624,-5,-1726,-4779,22,-90,-39,34
262,8652,21,-1681,-4768,22,-87,-43,38
263,8625,45,-1709,-4775,22,-86,-39,34
264,8643,-4,-1719,-4770,22,-88,-41,35
265,8616,-46,-1751,-4767,22,-86,-35,37
266,8651,33,-1708,-4776,22,-86,-35,33
267,8655,-26,-1730,-4776,22,-88,-43,36
268,8623,14,-1692,-4752,23,-85,-39,34
269,8644,-6,-1708,-4751,23,-89,-42,34
270,8667,23,-1679,-4762,22,-87,-39,39
271,8649,-5,-1713,-4765,22,-88,-35,28
272,8597,-14,-1747,-4764,22,-88,-43,33
273,8705,31,-1756,-4767,22,-86,-36,34
274,8662,30,-1745,-4758,23,-93,-40,33
275,8605,-11,-1733,-4771,22,-87,-38,36
276,8619,0,-1743,-4754,23,-84,-36,33
277,8622,-8,-1741,-4772,22,-87,-36,38
278,8614,-32,-1708,-4778,22,-87,-40,36
279,8675,-8,-1675,-4772,22,-85,-42,33
280,8620,-22,-1688,-4775,22,-88,-40,34
281,8623,-11,-1667,-4762,22,-88,-40,37
282,8652,14,-1723,-4766,22,-88,-42,34
283,8626,36,-1741,-4749,23,-84,-39,33
284,8670,0,-1763,-4771,22,-87,-41,35
285,8623,12,-1706,-4763,22,-87,-35,36
286,8646,18,-1668,-4754,23,-86,-38,32
287,8602,-8,-1627,-4777,22,-84,-42,34
288,8668,-17,-1749,-4768,22,-85,-41,33
289,8709,25,-1678,-4752,23,-89,-40,34
290,8607,-19,-1691,-4764,22,-86,-39,30
291,8607,-3,-1684,-4752,23,-88,-41,35
292,8630,-11,-1714,-4767,22,-87,-39,35
293,8643,-14,-1720,-4767,22,-87,-36,37
294,8650,-2,-1758,-4763,22,-81,-34,36
295,8622,10,-1709,-4765,22,-84,-37,35
296,8655,11,-1672,-4766,22,-86,-40,33
297,8645,26,-1715,-4760,22,-88,-40,34
298,8628,2,-1700,-4764,22,-86,-41,36
299,8642,10,-1732,-4759,23,-88,-35,31
300,8679,19,-1719,-4760,22,-83,-42,33
301,8612,74,-1695,-4759,23,-85,-42,34
302,8685,-26,-1693,-4760,22,-91,-35,38
303,8637,37,-1693,-4771,22,-88,-37,32
304,8644,17,-1745,-4752,23,-89,-40,35
305,8687,36,-1723,-4755,23,-81,-43,37
306,8649,-4,-1674,-4779,22,-90,-35,33
307,8603,3,-1700,-4770,22,-85,-39,36
308,8629,8,-1675,-4774,22,-90,-39,35
309,8644,-6,-1652,-4759,23,-83,-38,38
310,8648,-17,-1613,-4773,22,-89,-34,33
311,8659,27,-1722,-4773,22,-87,-42,35
312,8659,7,-1626,-4754,23,-89,-40,34
313,8684,15,-1721,-4767,22,-88,-38,33
314,8615,15,-1708,-4760,22,-90,-40,37
315,8635,24,-1772,-4768,22,-87,-39,34
316,8671,16,-1678,-4759,23,-85,-42,32
317,8623,26,-1751,-4774,22,-87,-39,34
318,8667,5,-1691,-4770,22,-84,-40,32
319,8644,28,-1742,-4770,22,-85,-38,36
320,8638,10,-1740,-4765,22,-89,-38,37
321,8629,-52,-1640,-4758,23,-87,-35,33
322,8622,-8,-1710,-4771,22,-85,-38,37
323,8640,4,-1749,-4746,23,-88,-38,36
324,8630,21,-1702,-4771,22,-89,-37,33
325,8636,-18,-1697,-4753,23,-88,-40,34
326,8645,-6,-1738,-4763,22,-88,-41,35
327,8652,-2,-1653,-4763,22,-84,-32,34
328,8621,-47,-1677,-4756,23,-89,-41,36
329,8683,14,-1701,-4765,22,-92,-38,36
330,8648,38,-1710,-4753,23,-85,-35,35
331,8635,-19,-1678,-4779,22,-86,-42,31
332,8625,5,-1690,-4774,22,-87,-40,36
333,8665,-1,-1710,-4748,23,-87,-33,30
334,8648,4,-1728,-4761,22,-88,-33,38
335,8634,21,-1715,-4758,23,-84,-38,36
336,8665,4,-1761,-4770,22,-88,-40,35
337,8609,6,-1710,-4754,23,-89,-37,36
338,8636,7,-1736,-4757,23,-87,-36,35
339,8614,28,-1672,-4761,22,-88,-38,35
340,8635,-9,-1704,-4766,22,-82,-36,32
341,8615,-10,-1663,-4771,22,-86,-39,33
342,8635,63,-1690,-4761,22,-89,-43,32
343,8610,-26,-1721,-4768,22,-85,-44,35
344,8632,9,-1720,-4763,22,-88,-39,35
345,8620,49,-1688,-4768,22,-87,-37,36
346,8642,-3,-1685,-4772,22,-86,-35,37
347,8634,-3,-1678,-4766,22,-83,-34,34
348,8629,8,-1719,-4776,22,-91,-37,42
349,8621,35,-1694,-4763,22,-88,-38,36
350,8622,-32,-1674,-4765,22,-89,-39,40
351,8609,-2,-1687,-4763,22,-83,-38,37
352,8620,39,-1638,-4768,22,-85,-35,33
353,8672,17,-1684,-4765,22,-87,-42,29
354,8606,13,-1734,-4769,22,-83,-43,29
355,8638,-27,-1700,-4765,22,-85,-44,36
356,8629,42,-1713,-4766,22,-81,-34,32
357,8618,8,-1741,-4772,22,-90,-39,32
358,8625,39,-1674,-4771,22,-90,-35,37
359,8638,11,-1684,-4771,22,-83,-38,32
360,8627,27,-1732,-4757,23,-88,-36,35
361,8660,23,-1735,-4766,22,-90,-40,31
362,8657,-46,-1742,-4765,22,-84,-39,35
363,8647,-10,-1724,-4762,22,-87,-34,33
364,8663,13,-1676,-4756,23,-87,-37,38
365,8656,13,-1699,-4774,22,-86,-34,36
366,8601,35,-1659,-4771,22,-86,-34,32
367,8663,-26,-1710,-4765,22,-87,-35,34
368,8645,-1,-1660,-4760,22,-86,-37,35
369,8669,-13,-1690,-4767,22,-88,-38,35
370,8652,58,-1729,-4760,22,-86,-36,35
371,8605,20,-1678,-4761,22,-86,-37,32
372,8623,-15,-1679,-4763,22,-87,-43,31
373,8655,-20,-1743,-4764,22,-84,-42,39
374,8602,-25,-1734,-4779,22,-88,-42,30
375,8652,-17,-1692,-4771,22,-90,-39,32
376,8652,13,-1686,-4758,23,-88,-39,31
377,8614,-23,-1724,-4759,23,-80,-44,35
378,8595,6,-1714,-4768,22,-86,-36,34
379,8571,-38,-1723,-4763,22,-82,-37,32
380,8614,33,-1728,-4768,22,-86,-33,33
381,8653,27,-1687,-4767,22,-83,-43,36
382,8635,-15,-1765,-4755,23,-87,-39,35
383,8679,-8,-1698,-4779,22,-81,-41,37
384,8666,35,-1699,-4760,22,-82,-36,33
385,8649,-20,-1714,-4760,22,-89,-38,33
386,8607,-1,-1748,-4758,23,-83,-38,35
387,8620,-18,-1721,-4775,22,-89,-39,34
388,8607,8,-1699,-4765,22,-87,-41,34
389,8632,-10,-1665,-4759,23,-86,-38,37
390,8613,23,-1672,-4762,22,-81,-37,34
391,8613,-6,-1751,-4759,23,-87,-37,40
392,8696,1,-1672,-4755,23,-87,-33,34
393,8647,-23,-1693,-4762,22,-92,-38,32
394,8659,2,-1669,-4776,22,-82,-40,32
395,8632,16,-1787,-4763,22,-86,-39,36
396,8620,-15,-1717,-4768,22,-87,-41,36
397,8674,-32,-1705,-4758,23,-88,-46,37
398,8643,-11,-1705,-4765,22,-84,-40,33
399,8624,6,-1642,-4757,23,-83,-40,36
400,8649,20,-1677,-4751,23,-89,-43,37
401,8664,26,-1714,-4775,22,-88,-37,30
402,8661,4,-1665,-4760,22,-89,-37,32
403,8672,-2,-1664,-4761,22,-86,-38,29
404,8667,-2,-1648,-4773,22,-88,-37,34
405,8653,11,-1725,-4761,22,-85,-36,31
406,8643,40,-1685,-4772,22,-86,-37,36
407,8654,-16,-1761,-4765,22,-83,-34,30
408,8657,21,-1677,-4770,22,-90,-40,36
409,8609,50,-1695,-4776,22,-88,-39,34
410,8667,20,-1707,-4767,22,-87,-37,34
411,8648,-6,-1640,-4750,23,-89,-35,31
412,8646,-14,-1680,-4759,23,-85,-38,37
413,8628,20,-1704,-4767,22,-85,-37,33
414,8610,88,-1729,-4761,22,-89,-35,33
415,8636,-21,-1763,-4760,22,-89,-41,29
416,8621,27,-1677,-4745,23,-91,-34,36
417,8628,11,-1677,-4763,22,-86,-38,33
418,8658,25,-1647,-4765,22,-89,-39,32
419,8683,18,-1698,-4760,22,-90,-36,32
420,8673,24,-1678,-4763,22,-85,-38,35
421,8645,56,-1729,-4753,23,-84,-42,40
422,8652,34,-1712,-4762,22,-84,-44,38
423,8645,-14,-1737,-4771,22,-89,-39,32
424,8632,46,-1712,-4765,22,-84,-37,36
425,8643,-2,-1727,-4755,23,-86,-38,35
426,8656,-7,-1701,-4763,22,-88,-36,33
427,8650,26,-1757,-4769,22,-84,-41,39
428,8622,12,-1687,-4765,22,-85,-37,31
429,8657,17,-1691,-4757,23,-87,-33,32
430,8632,-22,-1730,-4752,23,-89,-41,37
431,8601,-28,-1672,-4772,22,-85,-38,35
432,8619,24,-1714,-4768,22,-88,-39,34
433,8640,20,-1734,-4752,23,-88,-40,34
434,8603,25,-1684,-4760,22,-86,-38,31
435,8582,27,-1714,-4761,22,-88,-38,31
436,8647,-15,-1741,-4756,23,-88,-40,32
437,8656,5,-1671,-4752,23,-85,-43,34
438,8599,-14,-1719,-4765,22,-85,-38,39
439,8652,48,-1718,-4769,22,-83,-44,36
440,8651,18,-1728,-4770,22,-86,-34,33
441,8635,10,-1749,-4759,23,-83,-42,41
442,8688,8,-1655,-4770,22,-89,-37,37
443,8619,17,-1723,-4765,22,-89,-37,32
444,8615,25,-1743,-4773,22,-82,-38,31
445,8671,11,-1746,-4748,23,-88,-36,33
446,8657,10,-1669,-4760,22,-85,-37,32
447,8643,25,-1651,-4757,23,-85,-42,33
448,8616,42,-1761,-4754,23,-92,-38,39
449,8697,10,-1693,-4764,22,-84,-37,34
450,8650,24,-1677,-4764,22,-90,-34,34
451,8625,-5,-1662,-4759,23,-86,-34,38
452,8591,6,-1705,-4769,22,-84,-36,35
453,8657,6,-1681,-4766,22,-86,-36,38
454,8643,-11,-1734,-4762,22,-85,-41,34
455,8628,-17,-1683,-4760,22,-85,-38,32
456,8640,1,-1627,-4761,22,-85,-34,34
457,8626,13,-1661,-4767,22,-86,-38,35
458,8640,-24,-1754,-4757,23,-92,-36,38
459,8636,-6,-1693,-4765,22,-88,-38,32
460,8651,-8,-1683,-4761,22,-88,-40,35
461,8650,13,-1689,-4771,22,-83,-41,37
462,8639,24,-1728,-4767,22,-88,-40,33
463,8655,-33,-1706,-4765,22,-90,-37,35
464,8642,-8,-1670,-4765,22,-90,-36,35
465,8629,-19,-1705,-4758,23,-88,-38,33
466,8632,-21,-1722,-4752,23,-84,-35,36
467,8665,27,-1703,-4764,22,-84,-36,34
468,8661,9,-1670,-4762,22,-87,-36,32
469,8616,49,-1711,-4764,22,-89,-38,35
470,8624,30,-1692,-4774,22,-88,-33,32
471,8698,6,-1726,-4773,22,-91,-33,33
472,8640,-36,-1673,-4768,22,-86,-37,35
473,8659,-35,-1749,-4759,23,-88,-42,36
474,8634,-14,-1671,-4756,23,-88,-39,37
475,8671,44,-1722,-4764,22,-86,-34,35
476,8624,-3,-1693,-4763,22,-85,-36,34
477,8640,7,-1675,-4754,23,-88,-38,33
478,8653,20,-1682,-4755,23,-88,-36,36
479,8622,-5,-1741,-4750,23,-81,-41,35
480,8677,2,-1657,-4770,22,-90,-35,32
481,8645,-11,-1680,-4760,22,-85,-38,35
482,8633,54,-1756,-4763,22,-88,-42,33
483,8641,1,-1633,-4763,22,-89,-38,35
484,8612,8,-1706,-4765,22,-90,-36,33
485,8672,9,-1746,-4762,22,-89,-38,36
486,8661,9,-1712,-4766,22,-85,-35,38
487,8609,7,-1696,-4753,23,-84,-40,32
488,8626,1,-1662,-4754,23,-87,-39,32
489,8650,14,-1689,-4755,23,-84,-37,34
490,8627,7,-1667,-4758,23,-87,-34,35
491,8651,-17,-1643,-4764,22,-86,-36,36
492,8648,-9,-1737,-4762,22,-85,-39,34
493,8631,19,-1706,-4768,22,-83,-40,36
494,8630,9,-1707,-4755,23,-87,-37,33
495,8672,-4,-1715,-4755,23,-88,-40,37
496,8653,-5,-1731,-4759,23,-88,-39,30
497,8653,-20,-1734,-4782,22,-91,-40,31
498,8603,26,-1674,-4768,22,-93,-37,31
499,8656,41,-1692,-4756,23,-88,-38,31
500,8614,7,-1709,-4762,22,-88,-38,35
501,8652,-17,-1692,-4750,23,-87,-38,33
502,8655,4,-1694,-4757,23,-88,-36,32
503,8626,14,-1750,-4760,22,-81,-38,34
504,8626,-9,-1696,-4761,22,-84,-41,38
505,8652,15,-1783,-4764,22,-82,-43,32
506,8672,-1,-1743,-4764,22,-88,-38,31
507,8632,-15,-1742,-4760,22,-89,-40,32
508,8654,14,-1705,-4763,22,-82,-38,37
509,8649,2,-1732,-4767,22,-84,-36,30
510,8650,13,-1689,-4762,22,-85,-38,35
511,8666,-16,-1754,-4758,23,-91,-34,33
512,8594,38,-1697,-4769,22,-86,-35,34
513,8651,-14,-1674,-4761,22,-89,-40,33
514,8655,9,-1701,-4765,22,-91,-36,35
515,8618,-46,-1691,-4761,22,-90,-36,35
516,8663,7,-1726,-4776,22,-91,-38,33
517,8660,19,-1690,-4757,23,-87,-36,33
518,8640,8,-1745,-4771,22,-86,-40,34
519,8634,23,-1701,-4771,22,-87,-40,36
520,8637,6,-1727,-4759,23,-83,-38,32
521,8625,20,-1688,-4759,23,-88,-39,33
522,8648,38,-1681,-4758,23,-91,-33,34
523,8623,26,-1715,-4769,22,-87,-42,38
524,8631,41,-1718,-4769,22,-86,-41,35
525,8622,4,-1714,-4758,23,-86,-39,34
526,8602,21,-1693,-4743,23,-83,-38,36
527,8650,38,-1721,-4760,22,-91,-41,35
528,8639,7,-1669,-4759,23,-89,-42,37
529,8607,13,-1732,-4765,22,-91,-36,35
530,8621,34,-1721,-4751,23,-86,-36,34
531,8644,-4,-1667,-4765,22,-83,-35,36
532,8655,-21,-1722,-4758,23,-84,-36,33
533,8626,18,-1707,-4760,22,-89,-36,37
534,8620,-12,-1693,-4763,22,-87,-39,31
535,8643,15,-1716,-4761,22,-86,-42,33
536,8629,18,-1680,-4762,22,-88,-41,31
537,8660,-11,-1636,-4764,22,-85,-44,32
538,8619,39,-1641,-4762,22,-83,-39,35
539,8639,-4,-1652,-4764,22,-91,-40,36
540,8637,46,-1698,-4757,23,-89,-41,36
541,8628,-40,-1717,-4768,22,-85,-42,35
542,8660,7,-1646,-4757,23,-87,-41,39
543,8613,19,-1705,-4756,23,-86,-35,34
544,8640,8,-1675,-4760,22,-84,-35,38
545,8617,40,-1721,-4774,22,-85,-38,39
546,8682,16,-1688,-4753,23,-85,-41,33
547,8620,-14,-1722,-4759,23,-86,-38,36
548,8673,-9,-1687,-4752,23,-85,-44,38
549,8680,5,-1744,-4772,22,-87,-32,35
550,8664,20,-1673,-4754,23,-85,-34,35
551,8645,-19,-1720,-4755,23,-87,-38,33
552,8634,-36,-1702,-4760,22,-83,-39,34
553,8621,-1,-1712,-4757,23,-87,-37,33
554,8659,38,-1725,-4765,22,-87,-43,35
555,8672,-4,-1712,-4756,23,-88,-41,32
556,8638,5,-1706,-4754,23,-88,-32,33
557,8615,-2,-1717,-4742,23,-86,-44,34
558,8625,19,-1647,-4772,22,-84,-41,33
559,8671,54,-1661,-4765,22,-87,-37,34
560,8670,-15,-1724,-4760,22,-86,-42,39
561,8655,-33,-1669,-4764,22,-85,-38,36
562,8621,0,-1642,-4759,23,-85,-37,29
563,8618,-1,-1716,-4774,22,-85,-41,36
564,8661,-31,-1716,-4757,23,-89,-42,38
565,8642,6,-1714,-4779,22,-90,-40,38
566,8632,-63,-1700,-4758,23,-86,-41,32
567,8655,-4,-1659,-4759,23,-87,-38,36
568,8650,-6,-1711,-4750,23,-84,-37,34
569,8646,19,-1672,-4765,22,-89,-40,34
570,8624,-11,-1674,-4754,23,-90,-38,34
571,8630,-17,-1690,-4755,23,-86,-35,36
572,8609,18,-1696,-4758,23,-82,-39,34
573,8617,-19,-1760,-4769,22,-87,-38,37
574,8656,19,-1673,-4761,22,-89,-39,37
575,8630,6,-1648,-4768,22,-85,-40,33
576,8630,-33,-1720,-4761,22,-87,-34,38
577,8665,-15,-1728,-4774,22,-88,-38,30
578,8611,19,-1677,-4771,22,-84,-43,34
579,8655,-40,-1695,-4770,22,-89,-42,34
580,8611,0,-1688,-4748,23,-86,-41,36
581,8648,26,-1682,-4771,22,-85,-38,36
582,8636,-36,-1637,-4766,22,-83,-36,36
583,8657,14,-1699,-4776,22,-90,-39,31
584,8654,-31,-1673,-4772,22,-93,-40,35
585,8623,32,-1629,-4745,23,-85,-41,32
586,8616,-27,-1737,-4769,22,-83,-37,35
587,8635,21,-1726,-4759,23,-86,-39,32
588,8650,4,-1736,-4760,22,-84,-38,34
589,8634,-37,-1749,-4771,22,-85,-40,36
590,8638,1,-1729,-4757,23,-86,-37,31
591,8629,49,-1625,-4769,22,-88,-38,35
592,8584,24,-1714,-4767,22,-84,-40,39
593,8611,-10,-1708,-4768,22,-87,-41,38
594,8672,24,-1699,-4774,22,-89,-39,33
595,8697,14,-1685,-4758,23,-89,-38,33
596,8636,32,-1759,-4755,23,-89,-37,35
597,8637,-44,-1651,-4760,22,-86,-39,38
598,8649,19,-1683,-4770,22,-83,-38,39
599,8652,9,-1694,-4765,22,-86,-34,34
600,8627,-9,-1670,-4765,22,-87,-37,32
601,8651,-20,-1675,-4760,22,-84,-37,31
602,8613,16,-1689,-4771,22,-87,-41,36
603,8628,22,-1704,-4771,22,-89,-41,34
604,8623,-23,-1643,-4757,23,-84,-37,32
605,8652,-21,-1722,-4760,22,-88,-40,32
606,8651,12,-1750,-4757,23,-89,-38,32
607,8651,-24,-1703,-4743,23,-87,-40,41
608,8643,29,-1725,-4756,23,-88,-39,31
609,8643,-7,-1637,-4760,22,-86,-36,31
610,8653,-29,-1712,-4771,22,-85,-40,33
611,8650,26,-1697,-4757,23,-93,-36,32
612,8632,18,-1700,-4759,23,-85,-36,33
613,8632,-9,-1711,-4766,22,-86,-41,36
614,8631,26,-1710,-4759,23,-85,-37,33
615,8620,-17,-1677,-4753,23,-89,-35,35
616,8631,3,-1717,-4755,23,-84,-40,34
617,8665,-26,-1675,-4761,22,-85,-39,33
618,8628,-2,-1677,-4755,23,-86,-37,35
619,8647,8,-1718,-4754,23,-90,-34,34
620,8647,50,-1692,-4762,22,-87,-38,32
621,8630,-10,-1655,-4765,22,-83,-41,35
622,8630,-10,-1750,-4768,22,-84,-34,33
623,8653,-10,-1719,-4770,22,-83,-37,34
624,8659,-13,-1738,-4772,22,-88,-39,36
625,8650,35,-1656,-4755,23,-87,-34,35
626,8620,-7,-1768,-4773,22,-87,-33,34
627,8621,15,-1699,-4754,23,-86,-35,31
628,8671,-2,-1683,-4761,22,-89,-37,34
629,8634,10,-1721,-4747,23,-84,-36,35
630,8681,-9,-1708,-4759,23,-86,-41,34
631,8603,1,-1729,-4775,22,-85,-37,34
632,8606,-53,-1637,-4757,23,-88,-36,35
633,8612,16,-1637,-4763,22,-83,-39,32
634,8629,-10,-1661,-4748,23,-91,-37,36
635,8669,-20,-1660,-4744,23,-84,-42,35
636,8627,-13,-1652,-4754,23,-88,-34,34
637,8613,0,-1709,-4760,22,-87,-41,39
638,8626,57,-1628,-4775,22,-90,-34,33
639,8609,-8,-1729,-4746,23,-87,-45,31
640,8653,31,-1744,-4760,22,-87,-38,36
641,8638,-10,-1740,-4748,23,-89,-34,36
642,8698,-22,-1727,-4762,22,-85,-36,32
643,8647,-14,-1722,-4748,23,-88,-41,33
644,8656,-11,-1703,-4758,23,-87,-36,37
645,8639,-16,-1730,-4753,23,-88,-34,32
646,8623,26,-1688,-4746,23,-85,-37,35
647,8651,37,-1726,-4749,23,-88,-33,36
648,8630,27,-1722,-4760,22,-89,-37,35
649,8644,-29,-1724,-4768,22,-87,-35,37
650,8648,-6,-1647,-4761,22,-90,-42,33
651,8620,19,-1732,-4767,22,-85,-34,32
652,8591,38,-1736,-4748,23,-88,-43,35
653,8624,20,-1700,-4766,22,-89,-40,37
654,8624,50,-1741,-4755,23,-87,-34,37
655,8591,-7,-1754,-4771,22,-87,-35,35
656,8632,18,-1706,-4756,23,-85,-36,36
657,8616,30,-1658,-4762,22,-88,-39,35
658,8678,14,-1669,-4759,23,-87,-36,35
659,8629,-41,-1668,-4759,23,-89,-36,33
660,8667,-1,-1710,-4759,23,-84,-40,37
661,8616,4,-1742,-4758,23,-86,-37,34
662,8664,-42,-1714,-4753,23,-88,-40,33
663,8701,10,-1693,-4767,22,-86,-39,36
664,8631,13,-1727,-4754,23,-89,-39,33
665,8649,29,-1672,-4746,23,-84,-39,31
666,8628,28,-1658,-4758,23,-87,-40,33
667,8646,14,-1649,-4752,23,-88,-41,35
668,8673,38,-1695,-4764,22,-84,-38,34
669,8664,-13,-1742,-4752,23,-88,-35,34
670,8659,-17,-1696,-4758,23,-88,-38,33
671,8638,25,-1702,-4757,23,-84,-37,36
672,8666,10,-1728,-4767,22,-87,-40,35
673,8646,20,-1652,-4766,22,-85,-40,37
674,8627,-49,-1682,-4774,22,-86,-33,33
675,8627,-15,-1754,-4752,23,-90,-40,38
676,8657,-5,-1756,-4760,22,-90,-38,34
677,8666,-9,-1711,-4759,23,-85,-34,35
678,8687,15,-1685,-4764,22,-85,-39,37
679,8628,14,-1671,-4751,23,-88,-40,35
680,8578,6,-1775,-4768,22,-91,-42,31
681,8688,-22,-1736,-4770,22,-85,-37,36
682,8639,29,-1659,-4758,23,-91,-36,31
683,8633,11,-1678,-4770,22,-91,-41,35
684,8629,33,-1673,-4757,23,-86,-39,36
685,8663,23,-1729,-4750,23,-88,-40,37
686,8636,6,-1672,-4755,23,-83,-43,36
687,8655,-4,-1693,-4762,22,-86,-39,36
688,8649,12,-1680,-4759,23,-88,-39,37
689,8608,-11,-1674,-4743,23,-84,-41,33
690,8670,39,-1691,-4759,23,-88,-41,35
691,8620,31,-1708,-4778,22,-83,-34,35
692,8632,28,-1669,-4756,23,-91,-35,33
693,8633,11,-1741,-4755,23,-87,-35,34
694,8642,7,-1675,-4767,22,-87,-38,36
695,8668,15,-1690,-4755,23,-91,-41,37
696,8651,-25,-1685,-4754,23,-89,-39,36
697,8622,-21,-1730,-4755,23,-88,-39,34
698,8627,8,-1706,-4762,22,-90,-38,30
699,8662,6,-1694,-4761,22,-89,-38,36
700,8653,4,-1697,-4760,22,-84,-39,33
701,8667,3,-1707,-4780,22,-91,-37,34
702,8621,11,-1677,-4748,23,-84,-31,34
703,8655,11,-1700,-4755,23,-86,-39,31
704,8625,31,-1639,-4756,23,-88,-33,30
705,8652,18,-1668,-4760,22,-91,-37,36
706,8664,26,-1682,-4776,22,-93,-36,36
707,8645,-4,-1727,-4755,23,-87,-37,35
708,8639,20,-1723,-4766,22,-85,-38,34
709,8626,-18,-1645,-4758,23,-90,-36,35
710,8638,4,-1727,-4765,22,-87,-40,40
711,8651,-23,-1749,-4768,22,-90,-38,38
712,8634,2,-1687,-4763,22,-84,-38,32
713,8664,7,-1679,-4760,22,-85,-37,34
714,8632,-17,-1633,-4768,22,-88,-42,39
715,8621,-8,-1720,-4762,22,-89,-41,30
716,8671,-30,-1662,-4757,23,-86,-37,33
717,8632,20,-1677,-4760,22,-85,-40,34
718,8640,-44,-1665,-4759,23,-88,-38,33
719,8621,14,-1690,-4753,23,-92,-38,34
720,8652,-9,-1680,-4761,22,-85,-36,33
721,8645,-17,-1661,-4757,23,-87,-35,38
722,8655,20,-1698,-4760,22,-88,-36,33
723,8605,18,-1698,-4751,23,-87,-38,35
724,8648,-20,-1653,-4770,22,-86,-36,36
725,8633,31,-1698,-4774,22,-87,-40,34
726,8596,14,-1723,-4744,23,-88,-37,26
727,8619,-19,-1703,-4747,23,-86,-37,30
728,8611,25,-1703,-4745,23,-86,-40,35
729,8645,29,-1723,-4761,22,-87,-35,35
730,8652,-15,-1697,-4768,22,-89,-38,33
731,8666,48,-1714,-4750,23,-83,-37,32
732,8635,8,-1707,-4757,23,-90,-42,32
733,8636,4,-1721,-4752,23,-92,-35,32
734,8666,-14,-1734,-4755,23,-87,-42,34
735,8621,9,-1600,-4751,23,-87,-39,35
736,8648,-7,-1714,-4755,23,-87,-42,33
737,8669,-6,-1679,-4764,22,-85,-39,34
738,8648,-21,-1732,-4755,23,-87,-37,37
739,8636,26,-1713,-4750,23,-84,-42,36
740,8630,44,-1725,-4750,23,-86,-37,36
741,8660,6,-1629,-4762,22,-89,-35,34
742,8662,42,-1650,-4751,23,-85,-40,35
743,8614,21,-1706,-4760,22,-90,-43,34
744,8667,-33,-1735,-4757,23,-83,-41,35
745,8623,2,-1747,-4750,23,-83,-39,38
746,8642,-12,-1681,-4749,23,-83,-36,35
747,8647,-18,-1746,-4746,23,-79,-40,33
748,8638,35,-1677,-4769,22,-90,-39,31
749,8643,10,-1669,-4760,22,-88,-40,33
750,8649,-31,-1742,-4753,23,-87,-33,33
751,8636,-6,-1701,-4768,22,-86,-37,34
752,8612,18,-1682,-4739,23,-87,-42,31
753,8656,-1,-1673,-4765,22,-83,-43,37
754,8605,-1,-1664,-4761,22,-87,-38,32
755,8675,9,-1711,-4758,23,-88,-36,35
756,8629,-34,-1770,-4749,23,-84,-41,39
757,8641,53,-1713,-4751,23,-86,-39,35
758,8615,-33,-1716,-4752,23,-85,-40,35
759,8633,22,-1713,-4764,22,-89,-38,35
760,8652,-5,-1708,-4759,23,-88,-38,32
761,8650,-24,-1689,-4749,23,-88,-40,35
762,8648,21,-1731,-4748,23,-81,-34,37
763,8592,-47,-1682,-4763,22,-87,-38,38
764,8635,-13,-1661,-4745,23,-87,-34,38
765,8639,-2,-1708,-4763,22,-88,-42,34
766,8619,-9,-1670,-4754,23,-88,-36,34
767,8621,4,-1727,-4757,23,-88,-41,34
768,8629,1,-1710,-4747,23,-87,-39,33
769,8661,-36,-1698,-4748,23,-87,-35,34
770,8669,-10,-1740,-4764,22,-90,-42,33
771,8646,19,-1731,-4763,22,-85,-39,31
772,8641,15,-1711,-4742,23,-87,-37,35
773,8622,6,-1700,-4761,22,-90,-34,37
774,8701,12,-1712,-4748,23,-89,-40,32
775,8650,-13,-1718,-4759,23,-86,-41,37
776,8632,-5,-1725,-4748,23,-84,-38,32
777,8642,16,-1672,-4762,22,-90,-41,35
778,8625,-20,-1717,-4747,23,-87,-38,30
779,8633,-32,-1701,-4750,23,-85,-40,35
780,8637,32,-1686,-4759,23,-87,-41,35
781,8611,30,-1657,-4766,22,-91,-42,37
782,8636,35,-1698,-4756,23,-87,-39,36
783,8646,45,-1765,-4748,23,-85,-38,36
784,8639,-6,-1727,-4775,22,-85,-37,32
785,8644,-4,-1681,-4751,23,-89,-39,35
786,8622,4,-1711,-4740,23,-86,-37,37
787,8602,21,-1729,-4739,23,-84,-34,33
788,8623,-38,-1704,-4752,23,-88,-41,30
789,8614,-4,-1746,-4758,23,-85,-41,34
790,8643,-14,-1681,-4750,23,-88,-35,33
791,8656,-3,-1695,-4763,22,-87,-41,34
792,8644,4,-1656,-4753,23,-86,-35,35
793,8604,62,-1727,-4759,23,-88,-39,35
794,8611,-24,-1738,-4762,22,-89,-36,35
795,8664,0,-1644,-4747,23,-86,-39,31
796,8676,7,-1679,-4765,22,-84,-39,37
797,8637,-20,-1726,-4743,23,-92,-37,34
798,8644,38,-1718,-4743,23,-87,-42,33
799,8658,-21,-1712,-4769,22,-87,-38,35
800,8606,-10,-1729,-4754,23,-85,-34,37
801,8625,12,-1680,-4754,23,-86,-41,38
802,8617,14,-1719,-4759,23,-88,-39,30
803,8611,37,-1689,-4752,23,-89,-37,32
804,8632,-6,-1738,-4762,22,-86,-42,32
805,8679,35,-1712,-4757,23,-86,-46,35
806,8661,9,-1703,-4754,23,-88,-38,31
807,8620,-13,-1708,-4753,23,-83,-43,40
808,8639,10,-1723,-4762,22,-83,-39,34
809,8670,-15,-1689,-4745,23,-87,-38,35
810,8646,9,-1717,-4750,23,-85,-40,31
811,8646,-35,-1659,-4761,22,-91,-39,34
812,8616,-36,-1772,-4742,23,-89,-38,36
813,8625,8,-1649,-4756,23,-85,-40,32
814,8668,0,-1684,-4749,23,-89,-36,38
815,8614,-47,-1675,-4747,23,-86,-36,34
816,8608,-14,-1700,-4760,22,-86,-39,34
817,8618,14,-1707,-4754,23,-85,-39,31
818,8675,-10,-1678,-4763,22,-87,-40,35
819,8667,26,-1685,-4759,23,-87,-41,37
820,8667,27,-1693,-4749,23,-89,-39,35
821,8647,-4,-1717,-4745,23,-90,-39,34
822,8666,-30,-1657,-4740,23,-86,-37,37
823,8636,-7,-1708,-4753,23,-87,-35,34
824,8645,-4,-1689,-4748,23,-85,-39,34
825,8646,28,-1647,-4764,22,-81,-36,34
826,8622,3,-1751,-4760,22,-89,-34,36
827,8644,6,-1667,-4746,23,-87,-38,34
828,8665,33,-1716,-4761,22,-87,-35,36
829,8640,2,-1724,-4755,23,-84,-36,35
830,8648,3,-1697,-4756,23,-90,-42,35
831,8611,-6,-1648,-4758,23,-85,-35,33
832,8649,8,-1705,-4763,22,-84,-38,36
833,8645,-42,-1737,-4746,23,-85,-39,36
834,8621,28,-1671,-4746,23,-85,-43,37
835,8600,-33,-1680,-4765,22,-83,-32,36
836,8656,11,-1707,-4745,23,-89,-38,34
837,8645,14,-1668,-4750,23,-86,-38,37
838,8637,-14,-1658,-4767,22,-86,-35,36
839,8626,2,-1730,-4756,23,-88,-38,36
840,8626,-27,-1696,-4750,23,-93,-39,35
841,8643,-12,-1688,-4765,22,-83,-37,30
842,8667,-3,-1660,-4764,22,-83,-34,34
843,8635,4,-1709,-4758,23,-86,-42,34
844,8644,-13,-1695,-4760,22,-90,-34,35
845,8644,9,-1722,-4756,23,-90,-37,35
846,8658,26,-1663,-4755,23,-91,-40,38
847,8597,11,-1696,-4752,23,-86,-35,35
848,8622,-26,-1691,-4746,23,-85,-39,36
849,8621,-38,-1696,-4777,22,-84,-37,35
850,8671,20,-1693,-4747,23,-84,-35,28
851,8643,28,-1704,-4746,23,-87,-37,35
852,8653,10,-1681,-4755,23,-82,-37,34
853,8653,28,-1704,-4754,23,-86,-37,39
854,8622,-1,-1731,-4772,22,-88,-34,34
855,8660,22,-1720,-4739,23,-84,-36,33
856,8632,12,-1672,-4746,23,-91,-37,32
857,8641,24,-1679,-4751,23,-86,-45,34
858,8615,-19,-1714,-4755,23,-83,-39,30
859,8598,16,-1749,-4742,23,-84,-40,36
860,8637,6,-1701,-4752,23,-88,-41,37
861,8610,37,-1707,-4759,23,-83,-40,37
862,8653,6,-1727,-4764,22,-89,-35,34
863,8657,0,-1648,-4762,22,-85,-41,38
864,8600,-45,-1717,-4752,23,-88,-37,32
865,8602,29,-1724,-4774,22,-89,-35,32
866,8613,-20,-1713,-4745,23,-88,-33,39
867,8687,1,-1668,-4747,23,-88,-40,36
868,8628,4,-1689,-4752,23,-87,-37,38
869,8658,23,-1751,-4750,23,-83,-38,36
870,8641,-22,-1640,-4754,23,-90,-36,35
871,8638,32,-1676,-4760,22,-87,-35,34
872,8630,28,-1774,-4755,23,-89,-36,32
873,8688,-37,-1722,-4756,23,-87,-36,28
874,8624,-8,-1682,-4747,23,-82,-41,33
875,8613,17,-1707,-4759,23,-89,-40,37
876,8642,11,-1723,-4746,23,-90,-41,35
877,8643,-9,-1732,-4757,23,-87,-35,32
878,8644,30,-1710,-4755,23,-83,-40,35
879,8608,37,-1686,-4752,23,-86,-40,30
880,8656,40,-1703,-4745,23,-86,-40,36
881,8659,2,-1693,-4759,23,-88,-34,34
882,8663,-22,-1728,-4764,22,-85,-41,31
883,8632,-22,-1757,-4768,22,-86,-44,35
884,8675,38,-1724,-4750,23,-85,-42,36
885,8657,18,-1691,-4763,22,-85,-38,34
886,8634,6,-1686,-4766,22,-83,-35,33
887,8651,3,-1755,-4772,22,-89,-43,38
888,8664,-9,-1678,-4760,22,-85,-40,32
889,8625,10,-1659,-4750,23,-88,-38,36
890,8661,-10,-1681,-4746,23,-89,-44,32
891,8659,37,-1688,-4757,23,-86,-38,34
892,8648,11,-1669,-4762,22,-82,-32,35
893,8616,9,-1745,-4751,23,-86,-40,29
894,8673,-37,-1716,-4745,23,-88,-37,38
895,8658,-6,-1710,-4741,23,-88,-40,34
896,8642,-14,-1696,-4760,22,-87,-42,36
897,8604,15,-1744,-4753,23,-85,-38,35
898,8664,-1,-1687,-4763,22,-90,-37,36
899,8623,4,-1684,-4752,23,-86,-42,32
900,8653,-19,-1695,-4750,23,-88,-40,33
901,8634,22,-1745,-4757,23,-86,-42,35
902,8664,20,-1670,-4750,23,-90,-36,30
903,8617,4,-1691,-4750,23,-89,-42,33
904,8619,20,-1673,-4741,23,-82,-36,31
905,8654,50,-1729,-4746,23,-82,-37,38
906,8676,36,-1695,-4734,23,-85,-36,34
907,8649,24,-1720,-4758,23,-88,-39,32
908,8637,28,-1716,-4750,23,-88,-39,33
909,8611,63,-1709,-4747,23,-87,-41,37
910,8646,-76,-1662,-4760,22,-81,-41,33
911,8636,3,-1678,-4745,23,-82,-36,33
912,8615,-20,-1695,-4747,23,-87,-38,36
913,8626,-13,-1718,-4750,23,-85,-39,32
914,8643,41,-1677,-4764,22,-89,-37,33
915,8658,-6,-1644,-4739,23,-86,-34,35
916,8640,-11,-1697,-4749,23,-90,-33,33
917,8627,1,-1676,-4744,23,-87,-39,35
918,8603,43,-1678,-4756,23,-82,-41,34
919,8630,-10,-1722,-4743,23,-82,-39,34
920,8677,28,-1704,-4754,23,-86,-37,36
921,8663,-6,-1707,-4754,23,-88,-40,34
922,8618,-5,-1695,-4755,23,-89,-38,34
923,8606,3,-1705,-4747,23,-86,-38,28
924,8642,22,-1616,-4745,23,-84,-39,31
925,8642,15,-1655,-4747,23,-83,-40,35
926,8619,-11,-1736,-4742,23,-88,-43,31
927,8597,13,-1719,-4744,23,-84,-42,35
928,8620,10,-1687,-4739,23,-90,-38,32
929,8670,-8,-1718,-4747,23,-88,-36,33
930,8592,-56,-1729,-4739,23,-87,-41,34
931,8633,-4,-1672,-4753,23,-89,-43,35
932,8661,36,-1709,-4740,23,-91,-39,34
933,8619,-9,-1662,-4763,22,-86,-41,34
934,8621,-13,-1728,-4758,23,-88,-37,33
935,8624,-3,-1740,-4762,22,-90,-37,34
936,8611,15,-1719,-4775,22,-89,-38,34
937,8661,-23,-1774,-4750,23,-84,-34,37
938,8656,-11,-1668,-4746,23,-83,-36,35
939,8629,-64,-1693,-4759,23,-87,-41,35
940,8659,-24,-1736,-4744,23,-88,-40,35
941,8646,40,-1756,-4763,22,-87,-36,34
942,8632,5,-1661,-4740,23,-88,-37,36
943,8618,68,-1689,-4758,23,-86,-42,37
944,8615,3,-1672,-4740,23,-85,-35,35
945,8676,-24,-1691,-4751,23,-85,-43,35
946,8614,-4,-1722,-4753,23,-87,-40,34
947,8642,18,-1625,-4756,23,-91,-36,34
948,8648,-2,-1745,-4753,23,-86,-41,32
949,8642,-10,-1664,-4760,22,-86,-39,36
950,8630,23,-1652,-4767,22,-88,-38,35
951,8631,3,-1691,-4747,23,-89,-35,33
952,8693,-24,-1672,-4736,23,-85,-41,33
953,8609,-47,-1675,-4757,23,-88,-37,31
954,8658,25,-1698,-4753,23,-90,-36,33
955,8652,37,-1687,-4745,23,-87,-34,34
956,8653,15,-1743,-4749,23,-88,-36,33
957,8639,14,-1674,-4762,22,-87,-40,27
958,8626,41,-1711,-4747,23,-86,-40,37
959,8642,14,-1695,-4736,23,-89,-43,36
960,8629,-9,-1687,-4748,23,-83,-36,31
961,8652,15,-1668,-4752,23,-87,-39,38
962,8630,-33,-1662,-4744,23,-88,-41,38
963,8644,50,-1756,-4755,23,-85,-38,37
964,8656,27,-1686,-4746,23,-86,-33,32
965,8652,-24,-1709,-4753,23,-89,-37,35
966,8669,-16,-1740,-4770,22,-85,-36,37
967,8654,12,-1696,-4740,23,-88,-43,39
968,8619,-10,-1716,-4761,22,-89,-40,35
969,8660,6,-1751,-4759,23,-87,-41,34
970,8649,16,-1759,-4757,23,-84,-39,32
971,8659,-17,-1693,-4753,23,-86,-39,34
972,8608,25,-1737,-4763,22,-84,-37,34
973,8577,-2,-1680,-4762,22,-88,-39,33
974,8659,-10,-1700,-4752,23,-85,-40,34
975,8639,2,-1677,-4741,23,-86,-43,34
976,8634,16,-1679,-4751,23,-87,-41,35
977,8621,-1,-1686,-4748,23,-86,-38,31
978,8650,15,-1727,-4761,22,-86,-36,32
979,8681,-30,-1715,-4753,23,-87,-37,31
980,8625,-9,-1672,-4759,23,-84,-39,33
981,8633,0,-1679,-4752,23,-87,-37,34
982,8620,-23,-1713,-4756,23,-84,-38,34
983,8620,26,-1660,-4756,23,-88,-39,36
984,8610,18,-1753,-4751,23,-83,-37,32
985,8688,10,-1688,-4754,23,-89,-37,31
986,8666,40,-1645,-4760,22,-85,-40,33
987,8681,-13,-1693,-4756,23,-91,-39,35
988,8656,51,-1764,-4774,22,-87,-34,36
989,8630,2,-1748,-4758,23,-88,-41,33
990,8678,-9,-1715,-4753,23,-89,-39,31
991,8654,20,-1747,-4743,23,-83,-39,36
992,8654,42,-1674,-4739,23,-87,-41,38
993,8667,3,-1743,-4751,23,-92,-39,34
994,8655,6,-1702,-4748,23,-86,-42,36
995,8633,-25,-1717,-4764,22,-85,-35,33
996,8639,-25,-1725,-4743,23,-86,-38,30
997,8665,34,-1730,-4748,23,-87,-39,32
998,8670,-8,-1627,-4772,22,-89,-36,36
