,acc_X,acc_Y,acc_Z,temp,tempC,gyr_X,gyr_Y,gyr_Z
0,2159,3,-430,-4690,23,-44,-19,17
1,2159,2,-430,-4690,23,-44,-19,17
2,2158,1,-431,-4692,23,-44,-19,17
3,2157,1,-431,-4694,23,-44,-19,17
4,2158,1,-430,-4695,23,-43,-19,17
5,2158,2,-429,-4694,23,-44,-19,17
6,2158,1,-429,-4694,23,-44,-19,17
7,2158,1,-429,-4695,23,-44,-19,17
8,2158,1,-428,-4694,23,-43,-19,17
9,2157,1,-427,-4691,23,-43,-19,17
10,2156,2,-428,-4692,23,-43,-20,17
11,2158,2,-427,-4693,23,-44,-19,17
12,2159,2,-428,-4693,23,-44,-19,17
13,2159,2,-429,-4692,23,-44,-19,17
14,2158,2,-430,-4689,23,-43,-19,17
15,2158,1,-432,-4690,23,-43,-19,17
16,2159,1,-430,-4693,23,-43,-19,17
17,2159,1,-428,-4693,23,-43,-19,17
18,2159,1,-427,-4695,23,-43,-19,17
19,2158,2,-428,-4694,23,-43,-19,17
20,2158,0,-428,-4693,23,-43,-19,17
21,2158,0,-431,-4695,23,-43,-19,17
22,2158,0,-430,-4694,23,-43,-19,17
23,2158,0,-429,-4694,23,-44,-19,17
24,2158,-1,-429,-4693,23,-44,-19,17
25,2157,-1,-427,-4692,23,-44,-19,17
26,2157,-1,-428,-4691,23,-43,-19,17
27,2158,-1,-428,-4690,23,-43,-19,17
28,2158,0,-428,-4689,23,-43,-19,17
29,2158,1,-428,-4689,23,-43,-19,17
30,2157,1,-429,-4688,23,-43,-19,17
31,2157,3,-429,-4691,23,-43,-19,17
32,2158,2,-428,-4692,23,-43,-19,17
33,2158,1,-428,-4692,23,-43,-19,17
34,2158,1,-427,-4693,23,-43,-19,17
35,2159,0,-427,-4693,23,-43,-19,17
36,2159,1,-427,-4694,23,-43,-19,17
37,2158,0,-427,-4694,23,-43,-19,17
38,2158,0,-427,-4693,23,-43,-19,17
39,2159,1,-428,-4692,23,-43,-19,17
40,2160,-1,-426,-4693,23,-43,-19,17
41,2160,-1,-428,-4691,23,-43,-19,17
42,2160,-1,-429,-4692,23,-44,-19,17
43,2159,-1,-428,-4692,23,-44,-19,17
44,2158,0,-430,-4693,23,-43,-20,17
45,2158,-1,-429,-4694,23,-44,-19,17
46,2157,1,-428,-4694,23,-43,-19,17
47,2158,1,-427,-4696,23,-43,-19,17
48,2158,1,-425,-4695,23,-44,-19,17
49,2157,2,-425,-4694,23,-44,-19,17
50,2157,2,-426,-4693,23,-43,-19,17
51,2156,1,-427,-4694,23,-44,-19,17
52,2158,2,-429,-4694,23,-43,-19,17
53,2157,2,-427,-4695,23,-43,-19,17
54,2156,2,-429,-4694,23,-43,-19,17
55,2157,2,-430,-4694,23,-43,-20,17
56,2156,3,-429,-4693,23,-43,-20,17
57,2157,2,-428,-4692,23,-43,-19,17
58,2157,1,-427,-4692,23,-43,-20,17
59,2157,2,-428,-4692,23,-43,-19,17
60,2157,2,-429,-4692,23,-43,-19,17
61,2157,2,-428,-4692,23,-43,-19,17
62,2158,1,-427,-4693,23,-43,-19,17
63,2158,2,-427,-4692,23,-43,-19,17
64,2158,2,-428,-4693,23,-43,-19,17
65,2158,1,-429,-4692,23,-43,-19,17
66,2158,1,-431,-4693,23,-43,-19,17
67,2158,0,-430,-4693,23,-43,-19,17
68,2158,1,-430,-4692,23,-43,-19,17
69,2158,1,-430,-4691,23,-43,-20,17
70,2158,2,-431,-4692,23,-43,-19,17
71,2159,1,-430,-4692,23,-43,-20,17
72,2159,1,-430,-4692,23,-43,-20,17
73,2160,2,-430,-4693,23,-43,-20,17
74,2159,2,-428,-4694,23,-43,-19,17
75,2160,1,-429,-4695,23,-43,-19,17
76,2161,2,-429,-4696,23,-43,-19,17
77,2160,1,-429,-4695,23,-43,-19,17
78,2159,1,-428,-4695,23,-43,-19,17
79,2161,1,-430,-4695,23,-43,-19,17
80,2161,1,-432,-4696,23,-43,-19,17
81,2160,1,-430,-4695,23,-43,-19,17
82,2160,2,-429,-4695,23,-43,-19,17
83,2161,2,-429,-4694,23,-43,-19,17
84,2160,0,-429,-4694,23,-43,-19,17
85,2160,-1,-427,-4695,23,-43,-19,17
86,2159,-1,-427,-4694,23,-43,-19,17
87,2158,-1,-426,-4695,23,-43,-20,17
88,2159,0,-427,-4696,23,-43,-19,17
89,2160,1,-427,-4695,23,-43,-19,17
90,2161,1,-427,-4696,23,-43,-19,17
91,2160,-1,-429,-4697,23,-43,-19,17
92,2159,0,-429,-4697,23,-43,-19,17
93,2159,0,-429,-4695,23,-43,-19,17
94,2159,0,-428,-4694,23,-43,-19,17
95,2159,0,-428,-4695,23,-43,-19,17
96,2158,0,-429,-4695,23,-43,-19,17
97,2159,0,-428,-4695,23,-43,-19,17
98,2158,1,-429,-4696,23,-43,-19,17
99,2158,1,-429,-4696,23,-43,-19,17
100,2157,0,-429,-4696,23,-43,-19,17
101,2157,0,-428,-4693,23,-43,-19,17
102,2158,-1,-426,-4695,23,-43,-19,17
103,2159,-1,-428,-4695,23,-43,-19,17
104,2158,0,-429,-4696,23,-43,-19,17
105,2158,0,-429,-4696,23,-43,-19,17
106,2160,-1,-430,-4696,23,-43,-19,17
107,2159,0,-428,-4695,23,-43,-19,17
108,2160,-1,-428,-4697,23,-43,-19,17
109,2160,0,-428,-4695,23,-43,-19,17
110,2159,-1,-429,-4694,23,-43,-19,17
111,2158,0,-429,-4695,23,-43,-19,17
112,2158,-1,-429,-4696,23,-43,-19,17
113,2158,0,-429,-4696,23,-43,-19,17
114,2160,0,-428,-4698,23,-43,-19,17
115,2159,2,-427,-4698,23,-43,-19,17
116,2159,2,-426,-4698,23,-43,-19,17
117,2159,1,-427,-4696,23,-43,-20,17
118,2158,2,-427,-4696,23,-43,-19,17
119,2158,2,-427,-4697,23,-43,-20,17
120,2159,2,-427,-4695,23,-44,-20,17
121,2159,2,-429,-4695,23,-43,-20,17
122,2158,2,-427,-4694,23,-43,-20,17
123,2158,0,-427,-4694,23,-43,-20,17
124,2158,0,-427,-4694,23,-43,-20,17
125,2159,1,-427,-4694,23,-44,-20,17
126,2159,0,-427,-4696,23,-44,-20,17
127,2159,2,-427,-4695,23,-43,-20,17
128,2159,1,-424,-4694,23,-43,-20,17
129,2159,3,-425,-4696,23,-43,-19,17
130,2160,4,-426,-4697,23,-43,-19,17
131,2161,3,-426,-4697,23,-43,-19,17
132,2160,3,-426,-4697,23,-43,-20,17
133,2161,1,-426,-4696,23,-43,-19,17
134,2161,1,-427,-4694,23,-43,-19,17
135,2161,2,-426,-4694,23,-43,-19,17
136,2160,2,-425,-4694,23,-43,-19,17
137,2159,1,-424,-4694,23,-43,-19,17
138,2160,1,-425,-4694,23,-43,-19,17
139,2158,1,-424,-4696,23,-43,-19,17
140,2159,1,-426,-4695,23,-43,-19,17
141,2158,1,-427,-4695,23,-43,-19,17
142,2158,0,-425,-4694,23,-43,-19,17
143,2158,0,-427,-4695,23,-43,-20,17
144,2156,1,-427,-4696,23,-44,-19,17
145,2157,2,-428,-4696,23,-44,-20,17
146,2158,2,-429,-4695,23,-44,-20,17
147,2158,1,-428,-4693,23,-44,-20,17
148,2157,1,-426,-4693,23,-44,-20,17
149,2157,0,-427,-4691,23,-44,-20,17
150,2159,1,-427,-4691,23,-44,-19,17
151,2158,1,-428,-4692,23,-44,-19,17
152,2157,1,-427,-4693,23,-44,-20,17
153,2158,1,-427,-4695,23,-44,-19,17
154,2158,1,-427,-4694,23,-44,-19,17
155,2158,2,-429,-4692,23,-43,-19,17
156,2158,2,-429,-4692,23,-44,-19,17
157,2159,2,-426,-4692,23,-44,-19,17
158,2159,3,-428,-4692,23,-44,-19,17
159,2160,2,-428,-4691,23,-44,-19,17
160,2159,3,-427,-4691,23,-44,-19,17
161,2158,3,-427,-4692,23,-43,-19,17
162,2157,3,-427,-4692,23,-43,-19,17
163,2157,2,-429,-4691,23,-44,-20,17
164,2157,1,-429,-4692,23,-44,-20,17
165,2157,2,-430,-4691,23,-43,-20,17
166,2158,2,-430,-4691,23,-43,-19,17
167,2158,2,-430,-4692,23,-43,-19,17
168,2158,1,-431,-4693,23,-43,-19,17
169,2157,0,-430,-4692,23,-43,-19,17
170,2157,0,-431,-4692,23,-43,-19,17
171,2158,0,-431,-4693,23,-43,-19,17
172,2158,0,-431,-4691,23,-43,-19,17
173,2160,1,-429,-4691,23,-43,-19,17
174,2160,0,-430,-4690,23,-43,-20,17
175,2160,0,-430,-4691,23,-43,-19,17
176,2160,0,-429,-4691,23,-44,-19,17
177,2159,0,-429,-4690,23,-44,-19,17
178,2159,1,-429,-4691,23,-43,-19,17
179,2159,-1,-431,-4691,23,-44,-19,17
180,2160,-1,-432,-4691,23,-44,-19,17
181,2159,-1,-430,-4691,23,-44,-19,17
182,2159,0,-429,-4691,23,-43,-19,17
183,2159,0,-429,-4693,23,-44,-19,17
184,2158,0,-428,-4693,23,-43,-19,17
185,2158,-1,-426,-4692,23,-43,-19,17
186,2159,-1,-428,-4691,23,-44,-19,17
187,2159,-1,-427,-4691,23,-44,-19,17
188,2159,-1,-428,-4692,23,-44,-19,17
189,2160,-1,-428,-4690,23,-44,-19,17
190,2160,-1,-427,-4691,23,-44,-19,17
191,2158,-1,-429,-4692,23,-43,-19,17
192,2160,0,-429,-4691,23,-43,-20,17
193,2159,0,-427,-4692,23,-43,-20,17
194,2159,1,-426,-4692,23,-43,-19,17
195,2157,0,-426,-4691,23,-44,-20,17
196,2158,0,-426,-4692,23,-44,-20,17
197,2158,0,-426,-4692,23,-44,-20,17
198,2160,1,-426,-4692,23,-44,-19,17
199,2160,2,-424,-4691,23,-43,-19,17
200,2160,1,-427,-4690,23,-43,-20,17
201,2159,1,-427,-4691,23,-43,-20,17
202,2159,1,-426,-4692,23,-43,-20,17
203,2158,1,-426,-4691,23,-43,-20,17
204,2157,1,-428,-4691,23,-43,-20,17
205,2158,2,-427,-4692,23,-43,-20,17
206,2157,2,-426,-4692,23,-43,-19,17
207,2157,2,-428,-4691,23,-43,-19,17
208,2158,1,-426,-4692,23,-43,-19,17
209,2158,1,-427,-4692,23,-43,-19,17
210,2159,2,-427,-4690,23,-43,-19,17
211,2158,2,-429,-4690,23,-43,-19,17
212,2157,2,-429,-4692,23,-43,-19,17
213,2157,2,-427,-4691,23,-43,-19,17
214,2157,2,-424,-4691,23,-43,-19,17
215,2157,3,-424,-4691,23,-43,-19,17
216,2156,2,-425,-4692,23,-43,-19,17
217,2156,1,-426,-4693,23,-43,-20,17
218,2158,1,-427,-4692,23,-43,-19,17
219,2158,1,-427,-4691,23,-43,-19,17
220,2158,2,-427,-4690,23,-43,-19,17
221,2160,2,-428,-4690,23,-43,-19,17
222,2160,2,-428,-4688,23,-43,-19,17
223,2159,1,-428,-4690,23,-43,-19,17
224,2159,0,-428,-4690,23,-43,-19,17
225,2159,0,-428,-4692,23,-43,-19,17
226,2158,0,-430,-4691,23,-43,-19,17
227,2158,0,-430,-4691,23,-43,-19,17
228,2158,0,-428,-4692,23,-43,-20,17
229,2159,0,-428,-4691,23,-43,-20,17
230,2159,0,-428,-4690,23,-43,-20,17
231,2159,-1,-427,-4691,23,-43,-19,17
232,2157,-1,-429,-4691,23,-43,-19,17
233,2156,-1,-427,-4693,23,-43,-20,17
234,2158,-1,-428,-4691,23,-43,-19,17
235,2159,-1,-428,-4692,23,-43,-19,17
236,2161,0,-429,-4692,23,-44,-19,17
237,2161,0,-430,-4691,23,-44,-19,17
238,2161,0,-429,-4690,23,-44,-19,17
239,2160,0,-429,-4691,23,-44,-19,17
240,2161,-1,-428,-4689,23,-44,-19,17
241,2160,-1,-429,-4690,23,-44,-19,17
242,2160,0,-429,-4691,23,-43,-19,17
243,2160,0,-427,-4694,23,-43,-19,17
244,2160,1,-428,-4694,23,-43,-20,17
245,2159,2,-427,-4695,23,-43,-20,17
246,2159,3,-428,-4693,23,-43,-20,17
247,2157,3,-428,-4692,23,-43,-20,17
248,2157,2,-428,-4692,23,-43,-19,17
249,2157,2,-428,-4693,23,-44,-19,17
250,2157,1,-427,-4693,23,-44,-19,17
251,2157,0,-430,-4692,23,-44,-19,17
252,2157,1,-429,-4691,23,-44,-19,17
253,2156,1,-429,-4692,23,-43,-19,17
254,2156,1,-428,-4691,23,-44,-19,17
255,2156,1,-429,-4692,23,-44,-20,17
256,2158,1,-429,-4692,23,-44,-20,17
257,2158,1,-428,-4692,23,-44,-19,17
258,2158,1,-428,-4691,23,-44,-19,17
259,2158,2,-427,-4690,23,-43,-19,17
260,2159,3,-427,-4691,23,-44,-19,17
261,2159,3,-428,-4690,23,-43,-19,17
262,2158,3,-428,-4690,23,-43,-19,17
263,2158,2,-428,-4689,23,-43,-19,17
264,2158,2,-429,-4688,23,-43,-19,17
265,2157,2,-428,-4687,23,-44,-19,17
266,2157,3,-428,-4688,23,-44,-19,17
267,2156,3,-427,-4686,23,-44,-19,17
268,2156,2,-427,-4686,23,-44,-19,17
269,2156,3,-428,-4688,23,-43,-19,17
270,2157,3,-429,-4688,23,-43,-19,17
271,2156,2,-429,-4688,23,-43,-19,17
272,2157,3,-428,-4689,23,-43,-19,17
273,2156,2,-431,-4689,23,-43,-19,17
274,2157,3,-431,-4691,23,-43,-19,17
275,2158,3,-431,-4690,23,-44,-19,17
276,2158,1,-433,-4691,23,-44,-19,17
277,2158,1,-431,-4692,23,-43,-19,17
278,2159,1,-429,-4689,23,-43,-19,17
279,2158,1,-429,-4690,23,-43,-19,17
280,2158,2,-430,-4691,23,-43,-19,17
281,2159,3,-430,-4690,23,-44,-19,17
282,2157,3,-429,-4690,23,-44,-19,17
283,2156,3,-430,-4690,23,-44,-19,17
284,2156,3,-429,-4688,23,-44,-20,17
285,2156,3,-429,-4688,23,-44,-20,17
286,2158,3,-429,-4687,23,-44,-20,17
287,2158,3,-428,-4689,23,-44,-20,17
288,2160,2,-428,-4690,23,-44,-19,17
289,2159,1,-425,-4692,23,-44,-19,17
290,2157,1,-424,-4693,23,-44,-19,17
291,2157,1,-424,-4693,23,-43,-19,17
292,2158,1,-424,-4693,23,-44,-19,17
293,2159,2,-423,-4693,23,-43,-19,17
294,2160,3,-424,-4692,23,-44,-19,17
295,2160,2,-422,-4691,23,-44,-19,17
296,2158,2,-424,-4690,23,-44,-20,17
297,2157,2,-426,-4691,23,-44,-19,17
298,2157,2,-429,-4690,23,-44,-19,17
299,2156,1,-428,-4691,23,-44,-19,17
300,2157,0,-430,-4691,23,-44,-19,17
301,2158,0,-429,-4690,23,-43,-19,17
302,2158,1,-429,-4690,23,-43,-19,17
303,2157,2,-428,-4689,23,-43,-20,17
304,2158,2,-427,-4688,23,-43,-20,16
305,2158,2,-428,-4686,23,-43,-20,16
306,2156,3,-429,-4685,23,-43,-20,17
307,2157,3,-429,-4685,23,-44,-20,17
308,2156,4,-431,-4686,23,-44,-20,17
309,2156,4,-431,-4685,23,-44,-20,17
310,2157,3,-432,-4685,23,-44,-20,17
311,2158,3,-431,-4685,23,-43,-20,17
312,2156,2,-431,-4687,23,-44,-20,17
313,2156,1,-431,-4688,23,-44,-20,17
314,2157,0,-430,-4688,23,-43,-20,17
315,2158,1,-430,-4688,23,-43,-19,17
316,2158,2,-430,-4690,23,-43,-20,17
317,2158,3,-431,-4691,23,-43,-20,17
318,2157,3,-431,-4692,23,-43,-20,18
319,2158,1,-430,-4691,23,-43,-19,18
320,2157,2,-430,-4689,23,-43,-20,17
321,2157,2,-429,-4689,23,-43,-19,17
322,2157,1,-431,-4691,23,-43,-19,17
323,2158,2,-431,-4691,23,-43,-20,17
324,2158,2,-431,-4691,23,-43,-20,17
325,2158,1,-430,-4691,23,-43,-20,17
326,2159,2,-429,-4690,23,-44,-20,17
327,2158,3,-429,-4691,23,-43,-20,17
328,2159,3,-427,-4690,23,-44,-20,17
329,2160,1,-425,-4690,23,-44,-20,17
330,2159,1,-426,-4691,23,-43,-19,17
331,2158,0,-426,-4692,23,-43,-19,17
332,2158,0,-426,-4691,23,-43,-19,17
333,2158,1,-427,-4691,23,-43,-19,17
334,2157,0,-426,-4691,23,-43,-19,17
335,2158,2,-425,-4691,23,-44,-19,17
336,2158,2,-425,-4690,23,-43,-19,17
337,2159,1,-426,-4689,23,-43,-19,17
338,2158,1,-426,-4687,23,-43,-19,17
339,2160,0,-429,-4688,23,-43,-19,17
340,2159,-1,-428,-4689,23,-44,-19,17
341,2158,0,-428,-4690,23,-44,-19,17
342,2159,-1,-430,-4689,23,-44,-19,17
343,2158,0,-429,-4691,23,-44,-19,17
344,2159,-1,-430,-4689,23,-43,-19,17
345,2159,-1,-431,-4688,23,-43,-19,17
346,2159,0,-431,-4689,23,-43,-19,17
347,2158,-2,-430,-4691,23,-43,-19,17
348,2158,-2,-429,-4692,23,-43,-19,17
349,2159,-1,-429,-4693,23,-44,-19,17
350,2159,1,-430,-4692,23,-44,-19,17
351,2158,0,-430,-4691,23,-44,-19,17
352,2157,0,-429,-4689,23,-43,-19,17
353,2158,2,-428,-4688,23,-44,-19,17
354,2158,2,-429,-4689,23,-44,-19,17
355,2158,2,-429,-4688,23,-44,-19,17
356,2157,3,-430,-4688,23,-44,-19,17
357,2158,3,-430,-4689,23,-44,-19,17
358,2158,3,-429,-4689,23,-43,-19,17
359,2159,2,-430,-4690,23,-43,-19,17
360,2158,2,-429,-4690,23,-43,-19,17
361,2159,2,-430,-4690,23,-43,-19,17
362,2159,1,-430,-4690,23,-43,-19,17
363,2160,1,-430,-4690,23,-43,-19,17
364,2160,1,-428,-4689,23,-43,-19,17
365,2159,2,-429,-4688,23,-43,-19,17
366,2160,1,-430,-4689,23,-43,-19,17
367,2159,2,-430,-4688,23,-43,-19,17
368,2159,1,-429,-4687,23,-43,-19,17
369,2159,0,-430,-4687,23,-43,-19,17
370,2160,0,-429,-4686,23,-43,-19,17
371,2158,-1,-429,-4689,23,-43,-19,17
372,2157,0,-428,-4690,23,-43,-19,17
373,2157,1,-428,-4692,23,-43,-20,17
374,2158,2,-428,-4692,23,-43,-19,17
375,2159,2,-425,-4692,23,-44,-20,17
376,2160,2,-425,-4692,23,-43,-20,17
377,2160,1,-425,-4691,23,-43,-20,17
378,2159,2,-426,-4690,23,-43,-20,17
379,2159,2,-427,-4692,23,-43,-20,17
380,2159,4,-427,-4692,23,-43,-20,17
381,2159,4,-427,-4692,23,-43,-20,17
382,2158,3,-428,-4691,23,-43,-20,17
383,2158,4,-426,-4690,23,-43,-20,17
384,2158,4,-426,-4690,23,-43,-19,17
385,2159,3,-428,-4690,23,-43,-19,17
386,2159,2,-429,-4689,23,-43,-19,17
387,2160,1,-430,-4689,23,-43,-19,17
388,2160,1,-429,-4687,23,-43,-19,17
389,2158,1,-427,-4687,23,-43,-19,17
390,2158,2,-425,-4686,23,-43,-19,17
391,2158,3,-425,-4687,23,-44,-19,17
392,2158,1,-426,-4689,23,-44,-19,17
393,2157,0,-427,-4689,23,-43,-19,17
394,2157,1,-427,-4689,23,-43,-19,17
395,2157,1,-426,-4689,23,-44,-19,17
396,2156,1,-428,-4688,23,-44,-19,17
397,2157,-1,-428,-4689,23,-44,-19,17
398,2156,0,-429,-4690,23,-43,-19,17
399,2157,0,-429,-4690,23,-43,-20,17
400,2158,1,-429,-4689,23,-43,-20,17
401,2160,2,-430,-4689,23,-43,-20,17
402,2160,2,-430,-4689,23,-43,-19,17
403,2160,2,-429,-4690,23,-43,-19,17
404,2158,2,-427,-4691,23,-43,-20,18
405,2158,3,-427,-4690,23,-43,-19,17
406,2158,2,-427,-4690,23,-43,-19,17
407,2157,1,-427,-4691,23,-43,-19,17
408,2158,1,-428,-4692,23,-43,-19,17
409,2159,1,-427,-4691,23,-43,-20,17
410,2158,1,-427,-4690,23,-43,-20,17
411,2158,1,-427,-4691,23,-43,-19,17
412,2157,2,-427,-4690,23,-43,-19,17
413,2157,1,-428,-4689,23,-43,-19,17
414,2157,1,-428,-4690,23,-44,-19,17
415,2158,2,-429,-4688,23,-44,-19,17
416,2158,1,-428,-4688,23,-44,-19,17
417,2158,2,-428,-4689,23,-44,-19,17
418,2158,2,-427,-4691,23,-44,-19,17
419,2158,2,-427,-4691,23,-43,-19,17
420,2157,2,-427,-4690,23,-43,-19,17
421,2157,2,-427,-4689,23,-43,-19,17
422,2156,2,-429,-4690,23,-43,-19,17
423,2156,1,-430,-4690,23,-44,-19,17
424,2157,1,-430,-4691,23,-44,-19,17
425,2156,2,-429,-4690,23,-44,-20,17
426,2156,2,-428,-4689,23,-43,-19,17
427,2156,3,-428,-4689,23,-43,-19,17
428,2157,3,-427,-4690,23,-43,-19,17
429,2157,2,-426,-4690,23,-43,-19,17
430,2157,1,-425,-4690,23,-43,-19,17
431,2157,1,-427,-4687,23,-43,-19,17
432,2157,0,-427,-4689,23,-43,-19,17
433,2157,0,-429,-4689,23,-43,-19,17
434,2157,1,-428,-4690,23,-43,-19,17
435,2157,1,-428,-4690,23,-43,-19,17
436,2157,0,-428,-4688,23,-43,-19,17
437,2158,0,-427,-4688,23,-43,-19,17
438,2157,2,-427,-4689,23,-43,-19,17
439,2156,2,-428,-4688,23,-43,-19,17
440,2157,3,-429,-4687,23,-43,-19,17
441,2157,1,-429,-4688,23,-43,-19,17
442,2158,1,-428,-4690,23,-44,-19,17
443,2158,1,-427,-4690,23,-44,-19,17
444,2158,2,-428,-4689,23,-44,-19,17
445,2156,1,-429,-4689,23,-44,-19,17
446,2157,1,-429,-4687,23,-43,-19,17
447,2157,0,-428,-4689,23,-43,-19,17
448,2156,0,-428,-4687,23,-43,-19,17
449,2156,0,-429,-4687,23,-43,-20,17
450,2157,0,-427,-4687,23,-43,-20,17
451,2158,0,-428,-4686,23,-44,-19,17
452,2159,1,-428,-4687,23,-43,-19,17
453,2158,0,-426,-4688,23,-44,-20,17
454,2159,1,-427,-4690,23,-43,-19,17
455,2157,1,-427,-4691,23,-43,-19,17
456,2158,2,-427,-4692,23,-43,-19,17
457,2158,2,-427,-4692,23,-43,-19,17
458,2158,2,-428,-4690,23,-43,-19,17
459,2158,2,-428,-4690,23,-43,-19,17
460,2158,2,-428,-4691,23,-43,-19,17
461,2158,1,-427,-4691,23,-43,-20,17
462,2158,1,-428,-4691,23,-43,-20,17
463,2158,1,-427,-4691,23,-44,-20,17
464,2159,2,-427,-4689,23,-43,-19,17
465,2160,2,-428,-4690,23,-44,-19,17
466,2160,3,-429,-4689,23,-43,-19,18
467,2159,3,-430,-4690,23,-43,-19,17
468,2158,2,-431,-4690,23,-43,-19,18
469,2159,2,-430,-4690,23,-43,-19,17
470,2158,3,-428,-4688,23,-44,-19,17
471,2157,1,-427,-4691,23,-43,-19,17
472,2157,2,-428,-4691,23,-43,-19,17
473,2156,2,-429,-4692,23,-44,-19,17
474,2157,2,-429,-4692,23,-44,-20,17
475,2158,2,-428,-4692,23,-44,-20,17
476,2159,1,-428,-4690,23,-43,-20,17
477,2159,1,-428,-4689,23,-43,-19,17
478,2159,1,-429,-4689,23,-43,-19,17
479,2158,0,-429,-4690,23,-43,-19,17
480,2157,-1,-428,-4690,23,-43,-19,17
481,2157,-2,-427,-4689,23,-43,-19,17
482,2158,-1,-427,-4690,23,-43,-19,17
483,2159,-1,-428,-4692,23,-43,-19,17
484,2159,0,-428,-4690,23,-43,-19,17
485,2159,-1,-429,-4689,23,-43,-19,17
486,2158,0,-428,-4688,23,-43,-19,17
487,2158,0,-427,-4689,23,-43,-19,16
488,2158,0,-425,-4690,23,-43,-19,16
489,2159,-1,-427,-4691,23,-43,-19,17
490,2158,0,-426,-4692,23,-44,-19,17
491,2159,0,-426,-4692,23,-43,-19,17
492,2159,1,-426,-4691,23,-43,-19,17
493,2159,1,-427,-4691,23,-43,-19,17
494,2158,1,-428,-4689,23,-43,-19,17
495,2157,0,-429,-4690,23,-43,-19,17
496,2157,0,-430,-4689,23,-43,-19,17
497,2157,-1,-429,-4690,23,-43,-19,17
498,2157,0,-429,-4691,23,-43,-20,17
499,2158,1,-431,-4691,23,-43,-20,17
500,2158,0,-430,-4691,23,-43,-19,17
501,2159,1,-430,-4689,23,-43,-19,17
502,2159,1,-430,-4689,23,-43,-19,17
503,2158,2,-431,-4692,23,-44,-19,17
504,2157,1,-431,-4692,23,-44,-19,17
505,2157,1,-429,-4691,23,-44,-19,17
506,2158,1,-430,-4690,23,-43,-19,17
507,2160,1,-430,-4692,23,-43,-19,17
508,2159,1,-430,-4691,23,-43,-19,17
509,2159,1,-430,-4691,23,-43,-20,17
510,2158,2,-430,-4690,23,-43,-20,17
511,2158,1,-428,-4690,23,-43,-20,17
512,2158,1,-427,-4689,23,-43,-19,18
513,2159,0,-426,-4689,23,-43,-19,17
514,2160,1,-426,-4688,23,-43,-19,17
515,2160,-1,-426,-4689,23,-43,-19,17
516,2159,1,-426,-4691,23,-43,-19,17
517,2159,0,-427,-4690,23,-43,-18,17
518,2159,1,-426,-4692,23,-43,-18,17
519,2160,1,-427,-4692,23,-43,-19,17
520,2160,1,-428,-4690,23,-43,-19,17
521,2160,1,-429,-4692,23,-43,-19,17
522,2160,0,-430,-4693,23,-43,-19,17
523,2160,1,-429,-4693,23,-43,-19,17
524,2160,2,-429,-4691,23,-43,-19,17
525,2159,2,-429,-4691,23,-44,-19,17
526,2161,2,-430,-4691,23,-44,-19,17
527,2160,2,-432,-4690,23,-44,-19,17
528,2159,1,-429,-4690,23,-44,-19,17
529,2160,2,-428,-4691,23,-43,-19,17
530,2161,2,-430,-4689,23,-43,-19,17
531,2161,2,-429,-4690,23,-43,-19,17
532,2161,2,-428,-4691,23,-43,-19,17
533,2161,3,-430,-4690,23,-43,-19,17
534,2160,2,-427,-4689,23,-43,-19,17
535,2159,0,-426,-4691,23,-43,-19,17
536,2160,1,-428,-4691,23,-44,-19,17
537,2159,1,-427,-4690,23,-44,-19,17
538,2157,2,-428,-4691,23,-44,-19,17
539,2158,2,-427,-4690,23,-43,-19,17
540,2158,4,-429,-4692,23,-43,-19,17
541,2158,4,-428,-4690,23,-43,-19,17
542,2158,4,-428,-4688,23,-43,-19,17
543,2158,3,-429,-4690,23,-43,-19,17
544,2158,2,-430,-4689,23,-43,-19,17
545,2157,2,-430,-4687,23,-43,-19,17
546,2157,1,-432,-4689,23,-43,-19,17
547,2157,1,-429,-4690,23,-43,-19,17
548,2158,1,-429,-4688,23,-43,-19,17
549,2159,0,-431,-4689,23,-43,-19,17
550,2159,1,-429,-4689,23,-43,-19,17
551,2159,0,-428,-4690,23,-44,-20,17
552,2159,0,-427,-4690,23,-44,-20,17
553,2159,-1,-426,-4690,23,-44,-20,17
554,2158,1,-426,-4691,23,-43,-20,17
555,2158,2,-428,-4691,23,-43,-20,17
556,2159,1,-428,-4690,23,-43,-19,17
557,2159,1,-428,-4689,23,-43,-19,17
558,2158,2,-428,-4690,23,-43,-19,17
559,2159,1,-429,-4690,23,-43,-19,17
560,2159,2,-429,-4690,23,-43,-20,17
561,2158,1,-429,-4688,23,-43,-19,17
562,2159,1,-428,-4689,23,-44,-19,17
563,2159,1,-428,-4688,23,-43,-19,17
564,2159,1,-427,-4689,23,-43,-19,17
565,2158,1,-428,-4690,23,-43,-19,17
566,2158,0,-428,-4691,23,-43,-19,17
567,2159,-1,-428,-4692,23,-43,-19,17
568,2159,-1,-428,-4692,23,-43,-19,17
569,2157,0,-428,-4691,23,-43,-19,17
570,2158,1,-429,-4690,23,-43,-19,17
571,2157,1,-428,-4688,23,-43,-19,17
572,2157,1,-430,-4690,23,-43,-19,17
573,2158,1,-430,-4689,23,-43,-20,17
574,2158,0,-429,-4687,23,-43,-20,17
575,2158,0,-429,-4689,23,-43,-19,17
576,2159,1,-430,-4690,23,-44,-19,17
577,2158,1,-430,-4691,23,-43,-19,16
578,2158,1,-430,-4690,23,-43,-19,17
579,2158,1,-430,-4689,23,-43,-19,17
580,2158,1,-429,-4691,23,-43,-19,17
581,2159,1,-429,-4690,23,-43,-19,17
582,2160,1,-429,-4690,23,-43,-19,17
583,2160,1,-430,-4690,23,-43,-19,17
584,2159,1,-427,-4690,23,-43,-19,17
585,2158,1,-426,-4689,23,-43,-19,17
586,2158,2,-427,-4691,23,-43,-19,17
587,2159,2,-426,-4691,23,-43,-19,16
588,2159,2,-427,-4691,23,-43,-19,17
589,2159,2,-428,-4691,23,-43,-19,17
590,2158,2,-429,-4691,23,-43,-19,17
591,2158,2,-430,-4692,23,-43,-19,17
592,2157,2,-430,-4692,23,-43,-19,17
593,2156,2,-431,-4693,23,-43,-19,17
594,2158,0,-429,-4691,23,-43,-19,17
595,2157,-1,-429,-4690,23,-43,-19,17
596,2156,0,-430,-4690,23,-43,-19,17
597,2156,0,-431,-4691,23,-43,-19,17
598,2156,0,-433,-4693,23,-43,-19,17
599,2156,1,-431,-4692,23,-43,-19,17
600,2157,1,-430,-4693,23,-43,-19,17
601,2158,1,-430,-4692,23,-43,-19,17
602,2157,1,-431,-4693,23,-43,-19,17
603,2158,2,-431,-4693,23,-44,-19,17
604,2157,3,-432,-4693,23,-43,-19,17
605,2158,2,-432,-4692,23,-44,-19,17
606,2158,1,-432,-4691,23,-44,-19,17
607,2158,1,-429,-4692,23,-44,-19,17
608,2157,1,-428,-4692,23,-44,-19,17
609,2157,1,-426,-4691,23,-44,-19,17
610,2157,2,-428,-4693,23,-44,-20,17
611,2158,2,-428,-4692,23,-44,-20,17
612,2159,1,-426,-4691,23,-44,-19,17
613,2159,1,-427,-4692,23,-44,-19,17
614,2160,0,-427,-4691,23,-44,-19,17
615,2160,0,-427,-4691,23,-43,-19,17
616,2159,-1,-427,-4691,23,-43,-19,17
617,2158,0,-428,-4690,23,-43,-19,17
618,2158,0,-428,-4687,23,-43,-19,17
619,2157,-1,-430,-4687,23,-43,-19,17
620,2156,0,-430,-4686,23,-43,-20,17
621,2157,1,-429,-4690,23,-43,-20,17
622,2158,1,-430,-4691,23,-43,-20,17
623,2158,3,-430,-4689,23,-43,-19,17
624,2159,3,-428,-4690,23,-43,-19,17
625,2160,3,-427,-4690,23,-43,-19,17
626,2159,2,-428,-4692,23,-43,-19,17
627,2159,2,-427,-4692,23,-43,-19,17
628,2160,1,-429,-4691,23,-43,-19,17
629,2160,2,-430,-4690,23,-43,-19,17
630,2160,3,-427,-4690,23,-44,-19,17
631,2158,3,-427,-4690,23,-43,-19,17
632,2159,3,-429,-4691,23,-43,-20,17
633,2158,3,-428,-4689,23,-43,-20,17
634,2159,3,-429,-4689,23,-43,-20,17
635,2158,2,-430,-4689,23,-43,-20,17
636,2159,2,-430,-4688,23,-43,-20,17
637,2157,2,-431,-4689,23,-44,-20,17
638,2158,1,-429,-4689,23,-43,-20,17
639,2157,2,-429,-4690,23,-44,-19,17
640,2157,1,-431,-4690,23,-44,-19,17
641,2158,2,-431,-4688,23,-44,-19,17
642,2158,2,-430,-4686,23,-44,-19,17
643,2158,1,-429,-4687,23,-44,-19,17
644,2159,1,-429,-4686,23,-44,-19,17
645,2160,1,-432,-4687,23,-43,-20,17
646,2159,2,-429,-4687,23,-43,-19,17
647,2159,0,-429,-4687,23,-44,-19,17
648,2159,0,-428,-4688,23,-44,-19,17
649,2159,0,-427,-4688,23,-44,-19,17
650,2159,1,-426,-4688,23,-43,-20,17
651,2158,2,-428,-4688,23,-43,-20,17
652,2158,2,-427,-4687,23,-43,-19,17
653,2158,3,-427,-4688,23,-43,-19,17
654,2158,1,-428,-4689,23,-43,-19,17
655,2158,0,-427,-4689,23,-43,-19,17
656,2159,-1,-428,-4691,23,-43,-19,17
657,2160,1,-429,-4691,23,-43,-19,17
658,2160,0,-429,-4690,23,-43,-19,17
659,2159,1,-430,-4690,23,-44,-19,17
660,2159,0,-428,-4690,23,-44,-19,17
661,2160,0,-429,-4690,23,-44,-19,17
662,2160,0,-428,-4690,23,-44,-19,17
663,2160,1,-428,-4691,23,-44,-19,17
664,2160,0,-427,-4690,23,-44,-19,17
665,2159,0,-427,-4690,23,-43,-19,17
666,2160,0,-427,-4688,23,-43,-19,17
667,2160,1,-428,-4688,23,-43,-19,17
668,2159,2,-427,-4688,23,-43,-19,17
669,2159,1,-428,-4690,23,-44,-19,17
670,2159,0,-428,-4689,23,-44,-19,17
671,2159,0,-429,-4689,23,-44,-19,17
672,2159,0,-429,-4689,23,-43,-19,17
673,2158,-1,-430,-4688,23,-44,-19,17
674,2158,-1,-429,-4688,23,-43,-19,17
675,2159,0,-430,-4689,23,-43,-19,17
676,2159,1,-431,-4689,23,-43,-19,17
677,2158,1,-429,-4688,23,-44,-19,17
678,2158,2,-429,-4688,23,-44,-19,17
679,2158,2,-429,-4687,23,-44,-19,17
680,2158,1,-430,-4686,23,-44,-19,17
681,2159,1,-430,-4687,23,-44,-19,17
682,2159,2,-429,-4688,23,-44,-19,17
683,2158,1,-428,-4687,23,-44,-19,17
684,2157,1,-428,-4687,23,-43,-19,17
685,2157,1,-431,-4687,23,-43,-19,17
686,2157,1,-430,-4687,23,-43,-19,17
687,2158,2,-430,-4687,23,-43,-19,17
688,2157,2,-430,-4689,23,-43,-19,17
689,2158,2,-429,-4688,23,-43,-19,17
690,2157,1,-429,-4687,23,-43,-19,17
691,2157,2,-429,-4686,23,-43,-19,17
692,2159,2,-429,-4687,23,-43,-19,17
693,2158,3,-429,-4686,23,-43,-19,17
694,2157,2,-428,-4686,23,-43,-19,17
695,2158,2,-428,-4688,23,-43,-19,17
696,2157,2,-428,-4687,23,-43,-19,17
697,2156,1,-429,-4687,23,-43,-19,17
698,2157,2,-431,-4687,23,-43,-19,17
699,2158,2,-432,-4689,23,-43,-19,17
700,2157,2,-431,-4688,23,-43,-19,17
701,2158,1,-430,-4689,23,-43,-19,17
702,2158,1,-430,-4686,23,-43,-19,17
703,2159,0,-431,-4686,23,-43,-19,17
704,2159,0,-430,-4687,23,-43,-19,17
705,2159,0,-429,-4689,23,-43,-19,17
706,2159,0,-429,-4689,23,-43,-19,17
707,2160,0,-431,-4687,23,-43,-19,17
708,2160,0,-429,-4686,23,-43,-19,17
709,2159,1,-432,-4686,23,-43,-19,17
710,2158,1,-431,-4687,23,-44,-19,17
711,2159,1,-430,-4688,23,-44,-19,17
712,2159,1,-429,-4689,23,-44,-19,17
713,2158,2,-428,-4690,23,-44,-19,17
714,2157,3,-430,-4689,23,-44,-19,17
715,2159,2,-429,-4689,23,-44,-19,17
716,2158,2,-430,-4689,23,-44,-19,17
717,2159,3,-429,-4689,23,-44,-19,17
718,2158,3,-429,-4690,23,-44,-19,17
719,2159,3,-430,-4689,23,-44,-19,17
720,2159,2,-428,-4689,23,-44,-19,17
721,2158,2,-430,-4690,23,-44,-19,17
722,2158,2,-428,-4690,23,-44,-19,17
723,2158,3,-429,-4690,23,-44,-19,17
724,2159,3,-429,-4690,23,-44,-19,17
725,2158,4,-429,-4690,23,-43,-19,17
726,2159,4,-430,-4691,23,-43,-19,17
727,2159,3,-430,-4690,23,-43,-19,17
728,2160,3,-429,-4690,23,-43,-19,17
729,2160,3,-429,-4691,23,-43,-19,17
730,2160,3,-428,-4692,23,-44,-19,17
731,2159,2,-427,-4692,23,-43,-19,17
732,2158,1,-427,-4693,23,-43,-19,17
733,2157,1,-428,-4695,23,-43,-19,17
734,2157,1,-430,-4692,23,-43,-19,17
735,2156,2,-429,-4690,23,-44,-19,17
736,2157,0,-429,-4692,23,-43,-20,17
737,2157,0,-431,-4693,23,-43,-20,17
738,2157,1,-431,-4693,23,-43,-19,17
739,2158,1,-430,-4693,23,-44,-19,17
740,2159,1,-431,-4692,23,-44,-19,17
741,2159,0,-430,-4691,23,-44,-19,17
742,2160,2,-429,-4690,23,-43,-19,17
743,2160,1,-430,-4690,23,-44,-19,17
744,2162,0,-430,-4690,23,-44,-19,17
745,2161,0,-430,-4689,23,-44,-19,17
746,2161,0,-428,-4688,23,-44,-19,17
747,2160,0,-429,-4690,23,-44,-20,17
748,2160,0,-427,-4691,23,-44,-19,17
749,2159,1,-426,-4692,23,-44,-20,17
750,2160,0,-428,-4692,23,-43,-20,17
751,2159,0,-428,-4691,23,-43,-20,17
752,2159,0,-431,-4691,23,-43,-20,17
753,2158,0,-431,-4692,23,-43,-20,17
754,2158,0,-428,-4693,23,-43,-19,17
755,2157,0,-428,-4692,23,-43,-19,16
756,2159,1,-429,-4691,23,-43,-19,17
757,2158,2,-429,-4690,23,-44,-19,16
758,2159,2,-429,-4691,23,-43,-19,16
759,2159,2,-428,-4691,23,-44,-19,16
760,2159,2,-430,-4691,23,-43,-19,17
761,2159,2,-430,-4691,23,-43,-19,17
762,2158,2,-428,-4690,23,-43,-19,17
763,2158,2,-428,-4690,23,-43,-19,17
764,2158,2,-428,-4692,23,-43,-19,17
765,2159,0,-428,-4692,23,-43,-19,17
766,2160,0,-429,-4691,23,-43,-19,17
767,2161,-1,-427,-4691,23,-43,-19,17
768,2161,-1,-429,-4690,23,-43,-19,17
769,2161,-1,-430,-4690,23,-43,-19,17
770,2162,-2,-429,-4690,23,-43,-19,17
771,2160,-1,-430,-4690,23,-43,-19,17
772,2161,1,-429,-4690,23,-43,-19,17
773,2160,1,-428,-4690,23,-44,-19,17
774,2159,1,-425,-4688,23,-43,-19,17
775,2159,1,-427,-4688,23,-43,-19,17
776,2159,1,-425,-4688,23,-43,-19,17
777,2158,2,-425,-4689,23,-43,-20,17
778,2158,2,-426,-4688,23,-43,-20,17
779,2157,1,-428,-4688,23,-43,-19,17
780,2158,2,-428,-4688,23,-43,-19,17
781,2159,1,-430,-4690,23,-43,-19,17
782,2160,1,-431,-4690,23,-43,-19,17
783,2160,3,-430,-4692,23,-44,-19,17
784,2159,1,-429,-4690,23,-44,-19,17
785,2158,1,-429,-4690,23,-44,-19,17
786,2158,1,-429,-4691,23,-43,-19,17
787,2157,1,-428,-4693,23,-43,-19,18
788,2156,2,-428,-4693,23,-43,-19,17
789,2156,1,-426,-4692,23,-43,-19,17
790,2157,0,-426,-4693,23,-43,-19,17
791,2158,0,-425,-4691,23,-43,-19,17
792,2158,0,-424,-4689,23,-43,-19,18
793,2158,0,-424,-4690,23,-44,-19,18
794,2157,2,-426,-4691,23,-44,-19,17
795,2158,2,-428,-4690,23,-44,-19,17
796,2158,0,-428,-4690,23,-44,-19,17
797,2158,0,-428,-4693,23,-44,-20,17
798,2158,2,-428,-4692,23,-44,-19,17
799,2158,3,-427,-4693,23,-44,-19,17
800,2158,2,-425,-4691,23,-44,-19,17
801,2158,2,-425,-4692,23,-44,-19,17
802,2157,1,-427,-4693,23,-44,-19,17
803,2159,1,-427,-4692,23,-43,-19,17
804,2159,1,-426,-4692,23,-43,-19,17
805,2159,2,-425,-4691,23,-44,-19,17
806,2159,2,-425,-4692,23,-44,-20,17
807,2158,2,-425,-4692,23,-43,-19,17
808,2157,2,-426,-4691,23,-43,-19,17
809,2157,3,-427,-4692,23,-43,-19,17
810,2157,2,-427,-4693,23,-43,-19,17
811,2159,3,-427,-4692,23,-44,-19,17
812,2159,1,-428,-4691,23,-44,-19,17
813,2159,1,-427,-4691,23,-44,-19,17
814,2159,0,-427,-4690,23,-43,-19,17
815,2159,0,-428,-4691,23,-43,-19,17
816,2159,0,-430,-4691,23,-43,-19,17
817,2158,1,-429,-4691,23,-43,-19,17
818,2159,1,-428,-4689,23,-43,-19,17
819,2158,1,-428,-4691,23,-43,-19,17
820,2159,1,-431,-4692,23,-43,-19,17
821,2159,1,-431,-4691,23,-43,-19,17
822,2158,0,-431,-4691,23,-43,-19,17
823,2159,0,-429,-4691,23,-43,-19,17
824,2159,0,-430,-4690,23,-43,-19,17
825,2159,1,-428,-4690,23,-43,-19,17
826,2159,1,-427,-4689,23,-43,-19,17
827,2158,2,-426,-4692,23,-43,-19,17
828,2158,3,-426,-4692,23,-43,-19,17
829,2159,2,-427,-4691,23,-43,-19,17
830,2157,2,-427,-4690,23,-43,-19,17
831,2158,2,-428,-4691,23,-43,-19,17
832,2158,1,-428,-4691,23,-43,-19,17
833,2158,1,-429,-4692,23,-43,-19,17
834,2158,1,-429,-4692,23,-43,-19,17
835,2157,2,-428,-4691,23,-43,-19,17
836,2157,2,-429,-4691,23,-43,-19,17
837,2159,1,-427,-4691,23,-43,-19,17
838,2159,0,-427,-4690,23,-43,-19,17
839,2160,1,-428,-4690,23,-43,-19,17
840,2162,1,-429,-4690,23,-43,-19,17
841,2160,2,-429,-4690,23,-43,-19,17
842,2161,1,-428,-4688,23,-43,-19,17
843,2160,0,-428,-4688,23,-43,-19,17
844,2161,0,-427,-4688,23,-43,-19,17
845,2161,1,-427,-4687,23,-44,-19,17
846,2161,-1,-427,-4689,23,-44,-19,17
847,2161,-1,-427,-4689,23,-44,-19,17
848,2160,1,-428,-4690,23,-44,-19,17
849,2161,1,-431,-4692,23,-44,-19,17
850,2160,2,-430,-4692,23,-44,-19,17
851,2160,2,-430,-4692,23,-44,-19,17
852,2160,1,-430,-4692,23,-44,-19,17
853,2157,1,-430,-4689,23,-44,-19,17
854,2157,1,-430,-4688,23,-44,-19,17
855,2158,1,-430,-4690,23,-43,-19,17
856,2158,1,-431,-4689,23,-43,-19,17
857,2157,1,-431,-4690,23,-43,-19,17
858,2158,1,-432,-4690,23,-44,-19,17
859,2158,1,-429,-4690,23,-43,-19,17
860,2158,1,-430,-4690,23,-44,-19,17
861,2157,2,-429,-4688,23,-44,-19,17
862,2157,2,-429,-4689,23,-44,-19,17
863,2157,2,-430,-4688,23,-43,-19,17
864,2158,1,-431,-4687,23,-44,-19,17
865,2157,1,-430,-4688,23,-44,-19,17
866,2157,2,-431,-4689,23,-43,-19,17
867,2157,2,-431,-4688,23,-44,-19,17
868,2157,2,-433,-4687,23,-44,-19,17
869,2158,2,-433,-4686,23,-44,-19,17
870,2159,1,-432,-4688,23,-43,-19,17
871,2160,2,-431,-4690,23,-43,-19,17
872,2159,1,-431,-4689,23,-44,-19,17
873,2159,1,-431,-4689,23,-44,-19,17
874,2160,2,-429,-4689,23,-44,-19,17
875,2159,2,-429,-4689,23,-44,-19,17
876,2159,1,-429,-4688,23,-44,-20,17
877,2158,1,-429,-4688,23,-44,-19,17
878,2159,0,-428,-4687,23,-44,-19,17
879,2159,1,-428,-4687,23,-43,-19,16
880,2159,1,-427,-4688,23,-43,-19,16
881,2160,2,-429,-4689,23,-43,-19,17
882,2159,2,-430,-4688,23,-43,-19,17
883,2158,2,-430,-4688,23,-43,-19,17
884,2158,1,-431,-4688,23,-43,-19,17
885,2158,1,-432,-4688,23,-44,-19,17
886,2157,2,-431,-4689,23,-44,-19,16
887,2158,2,-432,-4689,23,-43,-19,16
888,2157,2,-431,-4689,23,-43,-19,17
889,2157,2,-429,-4690,23,-43,-19,17
890,2157,2,-428,-4689,23,-43,-20,17
891,2159,2,-428,-4689,23,-43,-20,17
892,2159,2,-428,-4690,23,-43,-20,16
893,2159,2,-427,-4690,23,-43,-19,17
894,2160,3,-427,-4690,23,-43,-19,17
895,2161,3,-427,-4690,23,-43,-20,17
896,2158,2,-429,-4691,23,-43,-20,17
897,2159,1,-430,-4690,23,-44,-20,17
898,2159,2,-430,-4690,23,-44,-20,17
899,2158,2,-431,-4689,23,-44,-20,17
900,2158,1,-431,-4689,23,-44,-19,17
901,2157,1,-432,-4690,23,-44,-19,17
902,2157,0,-432,-4690,23,-44,-19,17
903,2159,0,-432,-4689,23,-44,-19,17
904,2159,1,-432,-4688,23,-44,-19,17
905,2159,1,-431,-4689,23,-44,-19,17
906,2159,2,-430,-4688,23,-43,-19,17
907,2158,2,-431,-4689,23,-43,-19,16
908,2158,2,-431,-4689,23,-43,-19,17
909,2160,2,-433,-4687,23,-43,-19,17
910,2160,1,-432,-4689,23,-43,-19,17
911,2160,1,-431,-4689,23,-44,-19,16
912,2160,1,-431,-4691,23,-43,-19,17
913,2160,1,-429,-4690,23,-44,-20,17
914,2160,0,-430,-4688,23,-43,-20,17
915,2159,0,-428,-4688,23,-43,-20,17
916,2158,0,-428,-4688,23,-44,-19,17
917,2159,-1,-429,-4688,23,-44,-19,17
918,2157,-1,-428,-4691,23,-44,-19,17
919,2159,1,-427,-4692,23,-44,-19,17
920,2159,1,-428,-4689,23,-44,-19,17
921,2158,2,-428,-4688,23,-44,-19,17
922,2157,1,-428,-4688,23,-44,-19,17
923,2157,1,-428,-4688,23,-44,-19,17
924,2158,1,-428,-4689,23,-44,-19,17
925,2159,1,-428,-4690,23,-44,-19,17
926,2159,0,-430,-4690,23,-44,-20,17
927,2159,0,-430,-4690,23,-44,-19,17
928,2160,0,-431,-4690,23,-44,-19,17
929,2159,-1,-429,-4690,23,-44,-19,17
930,2159,1,-429,-4690,23,-44,-20,17
931,2159,2,-430,-4692,23,-44,-19,17
932,2158,2,-430,-4692,23,-44,-19,17
933,2158,2,-429,-4691,23,-44,-19,17
934,2158,3,-429,-4691,23,-44,-19,17
935,2158,3,-429,-4691,23,-44,-19,17
936,2158,3,-430,-4692,23,-43,-19,17
937,2157,2,-431,-4691,23,-44,-19,17
938,2158,2,-429,-4692,23,-43,-20,17
939,2158,3,-429,-4692,23,-43,-19,17
940,2159,2,-429,-4691,23,-43,-19,17
941,2158,0,-430,-4690,23,-43,-19,17
942,2157,1,-428,-4690,23,-43,-19,17
943,2157,1,-430,-4690,23,-43,-19,17
944,2158,1,-428,-4690,23,-43,-19,17
945,2157,2,-427,-4690,23,-43,-19,17
946,2158,1,-426,-4691,23,-43,-19,17
947,2158,1,-427,-4691,23,-43,-19,17
948,2158,0,-426,-4691,23,-43,-19,17
949,2157,0,-425,-4692,23,-43,-19,17
950,2158,1,-427,-4691,23,-43,-19,17
951,2159,1,-426,-4691,23,-43,-19,17
952,2161,1,-425,-4691,23,-43,-19,17
953,2160,1,-426,-4692,23,-43,-20,17
954,2160,0,-427,-4693,23,-44,-19,17
955,2160,1,-428,-4694,23,-44,-19,17
956,2159,1,-429,-4691,23,-44,-19,17
957,2158,1,-431,-4691,23,-44,-19,17
958,2158,2,-430,-4690,23,-44,-19,17
959,2158,2,-430,-4690,23,-44,-19,17
960,2157,2,-428,-4688,23,-44,-19,17
961,2158,1,-428,-4688,23,-43,-19,17
962,2158,1,-427,-4687,23,-43,-19,17
963,2159,1,-427,-4687,23,-43,-19,17
964,2159,2,-428,-4687,23,-44,-19,17
965,2159,2,-429,-4687,23,-44,-19,17
966,2159,2,-427,-4687,23,-44,-19,17
967,2159,2,-427,-4688,23,-44,-19,17
968,2158,3,-426,-4689,23,-44,-19,17
969,2157,2,-428,-4689,23,-44,-20,17
970,2157,2,-428,-4690,23,-43,-20,17
971,2157,3,-428,-4689,23,-44,-20,17
972,2157,3,-429,-4689,23,-44,-20,17
973,2157,2,-428,-4689,23,-43,-19,17
974,2157,2,-428,-4689,23,-43,-19,17
975,2158,2,-428,-4689,23,-43,-19,17
976,2156,3,-427,-4689,23,-43,-19,17
977,2158,4,-428,-4689,23,-43,-20,17
978,2159,4,-427,-4690,23,-43,-19,17
979,2158,4,-427,-4690,23,-44,-20,17
980,2159,3,-427,-4689,23,-44,-20,17
981,2158,3,-428,-4690,23,-43,-19,17
982,2160,2,-428,-4689,23,-43,-19,17
983,2159,1,-429,-4687,23,-43,-19,17
984,2159,0,-429,-4686,23,-44,-19,17
985,2159,1,-429,-4687,23,-44,-19,17
986,2158,0,-429,-4687,23,-43,-19,17
987,2158,1,-429,-4687,23,-44,-19,17
988,2159,1,-430,-4687,23,-44,-19,16
989,2159,1,-431,-4686,23,-44,-19,16
990,2159,1,-430,-4686,23,-44,-19,16
991,2159,-1,-429,-4687,23,-43,-20,17
992,2159,0,-428,-4687,23,-44,-19,17
993,2159,0,-428,-4687,23,-43,-19,17
994,2157,1,-429,-4686,23,-44,-20,17
995,2157,1,-431,-4687,23,-44,-19,17
996,2158,2,-430,-4684,23,-44,-19,17
997,2159,3,-431,-4683,23,-44,-19,17
998,2159,3,-431,-4683,23,-44,-20,17
