,acc_X,acc_Y,acc_Z,temp,tempC,gyr_X,gyr_Y,gyr_Z
0,2161,-2,-423,-4685,23,-174,-73,71
1,2163,1,-420,-4682,23,-170,-72,71
2,2160,0,-422,-4678,23,-169,-74,72
3,2159,1,-425,-4676,23,-173,-75,71
4,2155,-1,-431,-4682,23,-174,-72,69
5,2157,0,-430,-4684,23,-171,-70,70
6,2157,-1,-422,-4682,23,-173,-71,70
7,2159,0,-423,-4677,23,-176,-69,72
8,2161,-3,-424,-4676,23,-169,-73,70
9,2160,0,-426,-4680,23,-173,-75,68
10,2157,-1,-427,-4683,23,-175,-80,67
11,2159,0,-429,-4681,23,-173,-77,72
12,2162,0,-431,-4681,23,-171,-76,73
13,2160,-1,-431,-4672,23,-177,-73,71
14,2160,1,-430,-4672,23,-176,-74,72
15,2161,2,-428,-4679,23,-174,-79,69
16,2159,2,-430,-4677,23,-177,-76,69
17,2161,1,-433,-4676,23,-179,-76,71
18,2161,-2,-428,-4673,23,-173,-73,70
19,2159,-2,-429,-4677,23,-170,-77,67
20,2161,-2,-426,-4679,23,-174,-76,69
21,2158,-4,-428,-4681,23,-176,-75,70
22,2160,-2,-426,-4678,23,-173,-81,67
23,2159,-2,-425,-4679,23,-175,-80,70
24,2161,-2,-424,-4679,23,-175,-79,68
25,2160,-4,-425,-4674,23,-171,-80,71
26,2162,-2,-428,-4671,23,-171,-80,70
27,2161,0,-425,-4673,23,-176,-76,68
28,2160,-1,-427,-4680,23,-178,-80,70
29,2157,0,-422,-4680,23,-175,-79,69
30,2160,2,-428,-4673,23,-173,-75,65
31,2162,2,-428,-4675,23,-173,-78,67
32,2160,4,-431,-4678,23,-174,-81,69
33,2157,0,-430,-4676,23,-175,-77,67
34,2161,2,-427,-4674,23,-176,-77,67
35,2162,0,-429,-4674,23,-176,-77,66
36,2157,-2,-433,-4680,23,-173,-79,72
37,2154,-2,-436,-4681,23,-171,-76,69
38,2156,3,-434,-4678,23,-174,-73,67
39,2158,2,-430,-4676,23,-171,-74,69
40,2159,5,-432,-4676,23,-172,-73,71
41,2158,4,-430,-4676,23,-172,-71,73
42,2162,-2,-433,-4679,23,-173,-69,74
43,2155,2,-432,-4673,23,-172,-73,73
44,2156,4,-429,-4677,23,-175,-73,73
45,2157,1,-429,-4677,23,-175,-69,73
46,2159,3,-429,-4679,23,-177,-72,72
47,2157,1,-431,-4679,23,-173,-76,74
48,2158,3,-430,-4676,23,-172,-76,74
49,2158,-1,-427,-4673,23,-171,-74,74
50,2158,-5,-426,-4676,23,-172,-73,75
51,2160,0,-422,-4677,23,-171,-71,71
52,2158,1,-426,-4676,23,-172,-71,73
53,2155,-1,-422,-4677,23,-177,-74,73
54,2159,1,-422,-4679,23,-172,-73,72
55,2162,-1,-424,-4679,23,-174,-71,72
56,2158,-4,-420,-4681,23,-176,-72,72
57,2159,-3,-428,-4677,23,-174,-75,67
58,2161,1,-418,-4677,23,-177,-78,66
59,2160,-1,-423,-4675,23,-174,-78,68
60,2161,1,-425,-4675,23,-172,-78,70
61,2160,1,-430,-4676,23,-176,-78,67
62,2160,1,-429,-4671,23,-170,-79,68
63,2161,0,-431,-4675,23,-173,-81,70
64,2160,-1,-425,-4676,23,-172,-77,73
65,2157,-1,-429,-4675,23,-172,-77,69
66,2158,2,-425,-4678,23,-171,-80,68
67,2155,4,-419,-4678,23,-172,-81,69
68,2157,4,-426,-4677,23,-169,-79,69
69,2154,5,-428,-4679,23,-173,-75,69
70,2157,9,-431,-4679,23,-175,-80,72
71,2158,2,-428,-4679,23,-174,-78,70
72,2157,3,-437,-4671,23,-176,-81,69
73,2158,4,-429,-4672,23,-174,-71,70
74,2160,-2,-428,-4672,23,-172,-72,70
75,2156,1,-433,-4676,23,-173,-73,69
76,2157,-3,-431,-4676,23,-173,-73,69
77,2159,-1,-434,-4678,23,-175,-75,68
78,2159,1,-431,-4677,23,-171,-73,67
79,2158,-1,-429,-4679,23,-171,-75,68
80,2157,-2,-428,-4675,23,-170,-73,70
81,2157,-2,-431,-4681,23,-173,-73,69
82,2158,1,-427,-4682,23,-171,-74,71
83,2161,0,-428,-4683,23,-172,-75,69
84,2162,3,-430,-4681,23,-172,-72,69
85,2161,2,-428,-4677,23,-174,-73,69
86,2160,1,-426,-4683,23,-174,-74,69
87,2160,2,-427,-4682,23,-173,-78,69
88,2160,-1,-429,-4677,23,-177,-75,70
89,2162,-2,-424,-4678,23,-174,-72,70
90,2160,-4,-420,-4681,23,-172,-71,69
91,2157,-2,-424,-4677,23,-171,-72,70
92,2159,0,-426,-4677,23,-168,-71,70
93,2160,-1,-426,-4676,23,-176,-74,69
94,2158,1,-425,-4681,23,-176,-78,69
95,2160,-2,-422,-4680,23,-175,-80,69
96,2159,-2,-420,-4679,23,-173,-74,70
97,2160,0,-424,-4678,23,-171,-79,72
98,2157,0,-421,-4678,23,-172,-75,69
99,2160,2,-427,-4678,23,-171,-75,69
100,2163,0,-427,-4676,23,-171,-76,71
101,2163,-1,-424,-4677,23,-173,-76,71
102,2159,-2,-428,-4675,23,-175,-73,74
103,2156,-6,-431,-4680,23,-174,-75,71
104,2155,-3,-432,-4680,23,-175,-77,71
105,2159,0,-428,-4679,23,-177,-76,68
106,2158,1,-426,-4680,23,-173,-77,69
107,2160,0,-431,-4680,23,-174,-72,68
108,2161,-1,-427,-4677,23,-177,-72,68
109,2160,3,-429,-4680,23,-172,-77,68
110,2155,1,-427,-4679,23,-175,-78,69
111,2153,-1,-428,-4683,23,-173,-74,69
112,2157,0,-434,-4681,23,-174,-80,70
113,2159,-1,-434,-4678,23,-176,-79,67
114,2161,2,-424,-4678,23,-174,-78,72
115,2161,1,-433,-4681,23,-178,-76,69
116,2157,1,-428,-4679,23,-176,-76,69
117,2157,0,-424,-4681,23,-177,-75,70
118,2157,3,-426,-4682,23,-178,-76,67
119,2160,3,-431,-4677,23,-173,-77,68
120,2159,2,-435,-4674,23,-174,-77,72
121,2162,1,-434,-4675,23,-173,-75,71
122,2159,-2,-434,-4680,23,-176,-71,72
123,2155,0,-429,-4680,23,-177,-76,70
124,2157,-2,-426,-4673,23,-173,-74,69
125,2159,0,-431,-4679,23,-170,-75,71
126,2162,1,-422,-4680,23,-169,-77,73
127,2161,1,-429,-4684,23,-171,-70,70
128,2159,2,-427,-4676,23,-173,-75,71
129,2162,4,-422,-4671,23,-172,-74,72
130,2160,-1,-422,-4672,23,-172,-76,71
131,2160,2,-429,-4679,23,-172,-72,73
132,2157,-1,-423,-4682,23,-171,-72,73
133,2160,0,-425,-4683,23,-171,-77,73
134,2157,-1,-423,-4679,23,-172,-77,74
135,2160,-1,-426,-4677,23,-174,-77,71
136,2160,1,-431,-4679,23,-172,-73,71
137,2160,0,-428,-4677,23,-169,-75,70
138,2161,-4,-431,-4675,23,-171,-77,72
139,2158,0,-428,-4679,23,-172,-74,71
140,2156,1,-424,-4679,23,-172,-76,66
141,2160,0,-435,-4678,23,-174,-79,68
142,2158,4,-435,-4678,23,-172,-77,68
143,2160,3,-433,-4677,23,-174,-76,67
144,2160,3,-426,-4679,23,-171,-75,69
145,2160,5,-428,-4677,23,-176,-76,68
146,2159,-1,-431,-4672,23,-176,-79,68
147,2161,1,-432,-4674,23,-173,-80,65
148,2157,1,-429,-4675,23,-173,-80,70
149,2157,1,-425,-4683,23,-170,-77,69
150,2159,0,-421,-4682,23,-170,-76,67
151,2159,-1,-427,-4682,23,-173,-78,68
152,2160,2,-426,-4680,23,-174,-78,67
153,2159,2,-426,-4677,23,-176,-77,67
154,2160,0,-423,-4679,23,-173,-79,69
155,2161,0,-423,-4680,23,-173,-77,68
156,2160,-5,-429,-4677,23,-175,-77,67
157,2160,-1,-428,-4680,23,-174,-77,67
158,2160,-2,-428,-4681,23,-174,-76,67
159,2161,-2,-433,-4681,23,-176,-79,65
160,2159,5,-428,-4682,23,-177,-77,69
161,2160,5,-430,-4679,23,-175,-80,66
162,2162,3,-425,-4677,23,-175,-77,72
163,2162,2,-425,-4676,23,-172,-72,70
164,2162,-3,-430,-4676,23,-172,-74,70
165,2161,2,-433,-4677,23,-172,-73,70
166,2160,4,-434,-4678,23,-173,-75,73
167,2158,4,-424,-4677,23,-173,-74,71
168,2158,1,-428,-4682,23,-177,-77,73
169,2160,-2,-424,-4675,23,-176,-77,73
170,2157,-1,-427,-4672,23,-176,-76,73
171,2158,1,-423,-4676,23,-177,-74,73
172,2159,-2,-423,-4675,23,-170,-76,69
173,2155,1,-420,-4678,23,-174,-75,71
174,2154,1,-429,-4678,23,-178,-72,69
175,2155,-3,-427,-4681,23,-175,-76,71
176,2157,-3,-422,-4678,23,-174,-73,71
177,2159,0,-429,-4678,23,-171,-73,72
178,2161,2,-432,-4678,23,-174,-73,72
179,2157,1,-428,-4679,23,-169,-73,71
180,2158,-2,-430,-4680,23,-175,-74,69
181,2157,0,-428,-4682,23,-173,-77,69
182,2155,-1,-425,-4683,23,-173,-76,70
183,2154,-1,-429,-4677,23,-174,-75,70
184,2155,-1,-422,-4678,23,-176,-71,72
185,2157,0,-415,-4678,23,-176,-76,68
186,2158,2,-421,-4674,23,-172,-75,70
187,2158,0,-423,-4679,23,-174,-73,68
188,2158,1,-423,-4679,23,-173,-76,72
189,2158,-1,-423,-4678,23,-174,-76,73
190,2159,-2,-423,-4677,23,-173,-77,70
191,2159,-1,-424,-4685,23,-173,-79,72
192,2159,2,-428,-4674,23,-174,-80,68
193,2157,3,-424,-4672,23,-178,-81,66
194,2158,4,-430,-4668,23,-175,-75,70
195,2161,2,-427,-4669,23,-176,-76,69
196,2161,-2,-426,-4672,23,-173,-77,69
197,2155,-3,-432,-4678,23,-175,-79,71
198,2157,-2,-434,-4681,23,-171,-77,70
199,2158,2,-430,-4686,23,-172,-73,70
200,2156,2,-432,-4680,23,-175,-75,72
201,2155,1,-433,-4679,23,-174,-75,69
202,2157,4,-433,-4680,23,-175,-76,69
203,2157,3,-426,-4680,23,-175,-71,68
204,2156,3,-429,-4677,23,-176,-71,70
205,2160,1,-425,-4671,23,-177,-73,73
206,2160,2,-420,-4674,23,-173,-71,70
207,2158,1,-426,-4674,23,-176,-74,71
208,2160,-4,-425,-4681,23,-169,-77,70
209,2159,-1,-422,-4685,23,-172,-76,70
210,2158,-3,-428,-4684,23,-175,-73,67
211,2157,-6,-424,-4681,23,-175,-75,69
212,2156,-2,-425,-4678,23,-175,-73,71
213,2160,2,-426,-4680,23,-176,-74,67
214,2161,2,-422,-4678,23,-172,-78,68
215,2160,0,-430,-4677,23,-173,-74,68
216,2159,1,-432,-4678,23,-176,-75,71
217,2159,0,-432,-4678,23,-170,-74,69
218,2160,-2,-436,-4676,23,-171,-75,69
219,2161,-2,-428,-4671,23,-174,-75,71
220,2157,-1,-425,-4672,23,-176,-74,71
221,2161,-3,-427,-4676,23,-173,-75,68
222,2158,0,-432,-4679,23,-172,-74,69
223,2156,0,-439,-4682,23,-174,-78,68
224,2155,-2,-430,-4678,23,-170,-74,69
225,2158,4,-428,-4674,23,-171,-74,71
226,2160,2,-430,-4676,23,-170,-76,71
227,2159,0,-430,-4678,23,-171,-72,71
228,2162,3,-430,-4683,23,-174,-71,66
229,2161,3,-428,-4679,23,-172,-77,70
230,2159,1,-432,-4681,23,-172,-79,71
231,2163,1,-432,-4680,23,-175,-79,72
232,2164,0,-431,-4679,23,-170,-79,71
233,2160,-2,-426,-4680,23,-174,-78,68
234,2158,0,-430,-4680,23,-173,-78,70
235,2158,1,-431,-4675,23,-174,-78,72
236,2158,-3,-433,-4671,23,-172,-74,69
237,2158,2,-431,-4679,23,-174,-74,69
238,2160,1,-430,-4679,23,-172,-76,66
239,2158,3,-428,-4677,23,-174,-73,72
240,2158,-1,-427,-4681,23,-178,-71,68
241,2156,-1,-431,-4674,23,-174,-72,70
242,2155,0,-427,-4677,23,-172,-79,72
243,2156,-1,-433,-4679,23,-170,-74,73
244,2157,-1,-427,-4679,23,-174,-75,71
245,2157,1,-427,-4674,23,-173,-73,73
246,2156,1,-420,-4670,23,-173,-72,71
247,2157,-2,-420,-4678,23,-172,-74,68
248,2159,0,-419,-4677,23,-173,-75,68
249,2158,4,-425,-4673,23,-175,-77,73
250,2158,1,-427,-4674,23,-173,-80,71
251,2162,0,-426,-4679,23,-172,-81,71
252,2159,3,-425,-4677,23,-173,-80,72
253,2160,-1,-424,-4682,23,-173,-79,69
254,2155,-1,-432,-4674,23,-173,-76,71
255,2158,-2,-428,-4675,23,-176,-75,70
256,2160,3,-428,-4673,23,-173,-77,71
257,2158,1,-425,-4670,23,-176,-76,69
258,2164,1,-430,-4676,23,-177,-79,67
259,2158,0,-423,-4672,23,-173,-79,69
260,2160,-1,-432,-4678,23,-170,-78,72
261,2161,1,-431,-4680,23,-171,-75,70
262,2161,-1,-426,-4677,23,-173,-77,69
263,2159,1,-429,-4677,23,-171,-79,70
264,2157,1,-424,-4676,23,-173,-77,69
265,2158,2,-428,-4680,23,-173,-78,72
266,2161,-3,-430,-4679,23,-174,-76,73
267,2159,-4,-423,-4679,23,-177,-77,70
268,2159,-3,-423,-4678,23,-173,-79,70
269,2159,2,-430,-4680,23,-174,-79,66
270,2158,0,-426,-4679,23,-172,-75,65
271,2160,0,-425,-4678,23,-173,-76,71
272,2158,0,-427,-4674,23,-172,-77,71
273,2165,-4,-429,-4671,23,-175,-78,68
274,2159,-2,-426,-4675,23,-174,-75,67
275,2160,2,-424,-4675,23,-171,-75,71
276,2156,3,-427,-4671,23,-170,-78,69
277,2157,2,-434,-4670,23,-172,-79,70
278,2154,0,-431,-4672,23,-175,-78,69
279,2153,2,-429,-4679,23,-172,-74,70
280,2156,4,-428,-4679,23,-170,-76,68
281,2159,2,-423,-4675,23,-169,-76,65
282,2162,0,-423,-4674,23,-170,-75,68
283,2162,3,-412,-4674,23,-170,-72,69
284,2162,2,-421,-4674,23,-174,-76,68
285,2158,3,-429,-4675,23,-172,-72,69
286,2163,-2,-433,-4674,23,-172,-74,72
287,2159,0,-428,-4678,23,-174,-72,68
288,2160,-2,-428,-4674,23,-174,-78,67
289,2160,-4,-428,-4676,23,-176,-76,66
290,2153,-2,-427,-4679,23,-173,-78,68
291,2157,-1,-431,-4676,23,-173,-80,71
292,2159,-2,-430,-4677,23,-171,-77,66
293,2161,3,-426,-4675,23,-170,-75,69
294,2160,-1,-438,-4676,23,-174,-74,73
295,2153,-2,-433,-4680,23,-173,-79,69
296,2155,0,-431,-4676,23,-174,-82,68
297,2159,0,-427,-4677,23,-174,-77,70
298,2162,-1,-432,-4675,23,-172,-72,69
299,2162,0,-431,-4677,23,-171,-73,69
300,2160,1,-428,-4676,23,-173,-75,66
301,2158,-2,-432,-4679,23,-173,-72,67
302,2156,3,-427,-4679,23,-172,-76,72
303,2157,0,-436,-4672,23,-170,-76,69
304,2161,1,-429,-4673,23,-170,-75,70
305,2161,6,-423,-4679,23,-171,-74,72
306,2160,0,-428,-4679,23,-171,-74,72
307,2160,1,-426,-4677,23,-176,-76,67
308,2161,2,-427,-4677,23,-174,-78,66
309,2158,3,-425,-4674,23,-176,-77,68
310,2159,-1,-427,-4675,23,-177,-77,68
311,2158,4,-429,-4677,23,-175,-79,68
312,2161,2,-431,-4674,23,-175,-78,71
313,2160,1,-430,-4675,23,-174,-78,71
314,2157,3,-431,-4678,23,-174,-77,74
315,2161,4,-429,-4671,23,-175,-77,72
316,2160,-1,-428,-4672,23,-174,-76,71
317,2156,-1,-423,-4673,23,-171,-76,71
318,2155,-2,-428,-4668,23,-172,-74,73
319,2157,-1,-428,-4671,23,-173,-74,74
320,2158,-3,-429,-4676,23,-169,-76,73
321,2158,-2,-429,-4671,23,-170,-75,74
322,2163,5,-426,-4673,23,-173,-73,72
323,2160,2,-422,-4673,23,-170,-73,73
324,2162,3,-426,-4669,23,-174,-74,69
325,2160,4,-426,-4671,23,-172,-73,71
326,2161,2,-425,-4672,23,-172,-73,71
327,2158,3,-421,-4675,23,-173,-75,73
328,2157,1,-425,-4677,23,-174,-75,72
329,2153,1,-429,-4678,23,-173,-76,68
330,2159,0,-428,-4672,23,-171,-75,69
331,2161,-4,-426,-4673,23,-174,-72,67
332,2160,-5,-428,-4670,23,-174,-73,71
333,2161,-2,-427,-4673,23,-171,-77,72
334,2160,-5,-428,-4674,23,-174,-73,71
335,2160,-9,-420,-4669,23,-177,-72,72
336,2164,-8,-424,-4671,23,-173,-73,71
337,2164,-5,-424,-4672,23,-171,-74,71
338,2159,-1,-430,-4675,23,-174,-74,68
339,2159,0,-426,-4676,23,-174,-80,70
340,2162,1,-425,-4678,23,-174,-77,71
341,2158,1,-423,-4682,23,-176,-78,72
342,2158,1,-425,-4678,23,-175,-77,71
343,2160,4,-425,-4678,23,-176,-78,69
344,2159,-2,-423,-4677,23,-173,-80,67
345,2160,-1,-430,-4676,23,-173,-78,66
346,2160,-1,-430,-4675,23,-177,-75,69
347,2163,2,-432,-4679,23,-174,-79,67
348,2162,2,-432,-4676,23,-172,-75,70
349,2161,1,-431,-4672,23,-174,-76,71
350,2163,0,-432,-4677,23,-173,-71,71
351,2160,-2,-436,-4679,23,-174,-75,70
352,2157,-2,-435,-4675,23,-172,-74,71
353,2160,-3,-434,-4676,23,-177,-73,72
354,2159,-2,-435,-4672,23,-175,-74,70
355,2158,-1,-431,-4675,23,-178,-80,70
356,2160,-6,-430,-4670,23,-176,-74,68
357,2163,-2,-430,-4677,23,-175,-75,68
358,2160,1,-427,-4680,23,-172,-73,71
359,2159,1,-425,-4678,23,-173,-71,74
360,2160,-2,-429,-4680,23,-174,-76,69
361,2158,1,-430,-4684,23,-173,-73,70
362,2157,3,-427,-4682,23,-171,-76,73
363,2159,4,-425,-4678,23,-173,-74,73
364,2162,3,-423,-4674,23,-178,-75,71
365,2160,-2,-422,-4675,23,-174,-73,71
366,2161,1,-428,-4679,23,-173,-71,72
367,2159,2,-425,-4678,23,-175,-73,71
368,2158,0,-433,-4678,23,-175,-75,70
369,2160,0,-424,-4677,23,-177,-75,73
370,2159,3,-424,-4677,23,-176,-75,73
371,2158,-3,-424,-4673,23,-173,-77,71
372,2161,4,-425,-4679,23,-174,-74,73
373,2161,2,-431,-4672,23,-170,-74,71
374,2161,-3,-427,-4673,23,-172,-74,75
375,2159,-2,-427,-4665,23,-172,-75,73
376,2160,-1,-424,-4673,23,-171,-72,66
377,2158,-4,-423,-4674,23,-172,-75,68
378,2159,-1,-422,-4673,23,-175,-77,69
379,2156,-1,-425,-4677,23,-176,-78,71
380,2158,-1,-419,-4667,23,-171,-79,72
381,2158,-2,-419,-4668,23,-173,-79,68
382,2162,-1,-423,-4671,23,-173,-78,70
383,2158,3,-424,-4675,23,-171,-78,69
384,2163,4,-426,-4676,23,-175,-76,71
385,2160,3,-425,-4673,23,-175,-80,68
386,2159,2,-425,-4674,23,-171,-82,70
387,2157,2,-432,-4675,23,-174,-79,66
388,2162,2,-430,-4671,23,-174,-79,68
389,2161,2,-430,-4674,23,-174,-79,68
390,2161,2,-431,-4672,23,-173,-80,69
391,2161,2,-428,-4671,23,-174,-77,71
392,2158,-1,-433,-4674,23,-172,-76,68
393,2159,2,-429,-4678,23,-175,-74,69
394,2159,2,-433,-4678,23,-176,-76,70
395,2159,1,-435,-4673,23,-173,-72,72
396,2158,0,-432,-4681,23,-173,-75,71
397,2159,0,-436,-4671,23,-169,-75,70
398,2160,5,-428,-4669,23,-174,-72,72
399,2159,1,-423,-4668,23,-174,-72,72
400,2159,0,-426,-4670,23,-173,-74,72
401,2161,-3,-426,-4672,23,-171,-72,69
402,2164,0,-422,-4671,23,-173,-71,69
403,2162,-4,-428,-4672,23,-174,-76,70
404,2159,-3,-432,-4672,23,-175,-78,68
405,2157,2,-427,-4671,23,-174,-75,74
406,2163,1,-428,-4671,23,-173,-72,75
407,2160,3,-427,-4668,23,-172,-71,73
408,2161,0,-429,-4674,23,-171,-73,71
409,2158,-3,-422,-4673,23,-171,-77,71
410,2155,0,-428,-4677,23,-173,-75,68
411,2157,1,-431,-4670,23,-177,-75,71
412,2161,0,-432,-4667,23,-172,-75,69
413,2163,0,-430,-4672,23,-171,-75,70
414,2160,-1,-428,-4669,23,-173,-78,69
415,2161,2,-433,-4671,23,-173,-74,71
416,2159,2,-431,-4668,23,-173,-77,73
417,2157,3,-429,-4672,23,-171,-78,72
418,2158,3,-427,-4671,23,-174,-75,69
419,2160,1,-430,-4675,23,-175,-76,68
420,2160,-2,-426,-4675,23,-173,-74,69
421,2159,0,-425,-4671,23,-176,-75,70
422,2157,2,-425,-4672,23,-172,-77,71
423,2156,4,-429,-4669,23,-173,-73,68
424,2156,3,-432,-4672,23,-176,-78,70
425,2155,3,-432,-4675,23,-177,-79,68
426,2154,2,-421,-4679,23,-176,-78,69
427,2155,-2,-424,-4676,23,-172,-78,66
428,2160,-1,-425,-4673,23,-173,-77,67
429,2160,2,-426,-4670,23,-174,-77,70
430,2159,3,-428,-4675,23,-177,-76,68
431,2159,-2,-425,-4675,23,-179,-77,69
432,2158,0,-425,-4676,23,-171,-77,72
433,2158,-3,-429,-4670,23,-172,-80,68
434,2161,2,-435,-4672,23,-170,-77,68
435,2162,-1,-430,-4671,23,-173,-77,70
436,2159,-2,-431,-4675,23,-174,-80,72
437,2161,1,-426,-4668,23,-174,-78,68
438,2161,-3,-427,-4672,23,-175,-78,71
439,2166,-2,-428,-4675,23,-177,-74,70
440,2161,1,-428,-4674,23,-177,-73,67
441,2160,3,-430,-4674,23,-173,-74,67
442,2157,2,-434,-4676,23,-174,-77,70
443,2159,0,-430,-4672,23,-175,-73,69
444,2164,2,-431,-4672,23,-176,-75,67
445,2159,0,-433,-4674,23,-171,-72,71
446,2156,1,-426,-4672,23,-172,-72,75
447,2158,3,-428,-4672,23,-175,-72,73
448,2158,-1,-426,-4674,23,-173,-70,70
449,2157,2,-427,-4669,23,-171,-71,70
450,2160,2,-422,-4674,23,-170,-75,71
451,2157,4,-424,-4674,23,-172,-75,72
452,2159,3,-427,-4672,23,-175,-73,68
453,2157,0,-429,-4670,23,-174,-76,72
454,2157,-5,-427,-4674,23,-171,-75,71
455,2157,-2,-425,-4674,23,-172,-73,70
456,2159,1,-426,-4673,23,-175,-72,71
457,2160,0,-427,-4670,23,-173,-73,71
458,2157,-3,-426,-4675,23,-171,-72,66
459,2154,-2,-426,-4671,23,-171,-71,66
460,2157,-1,-423,-4673,23,-175,-74,70
461,2159,-1,-428,-4671,23,-173,-76,69
462,2160,0,-423,-4674,23,-171,-79,68
463,2160,0,-425,-4681,23,-170,-79,68
464,2158,-2,-426,-4676,23,-171,-75,67
465,2158,-1,-420,-4670,23,-171,-73,68
466,2156,-2,-416,-4669,23,-171,-74,68
467,2159,-2,-421,-4673,23,-173,-75,70
468,2159,-2,-423,-4669,23,-172,-77,71
469,2158,3,-423,-4670,23,-174,-78,68
470,2159,0,-427,-4668,23,-172,-77,71
471,2159,4,-428,-4672,23,-171,-80,68
472,2155,1,-422,-4668,23,-169,-77,72
473,2154,4,-430,-4667,23,-175,-79,71
474,2157,-4,-433,-4672,23,-176,-78,72
475,2160,-2,-428,-4675,23,-175,-81,67
476,2161,0,-429,-4672,23,-175,-79,68
477,2161,2,-433,-4673,23,-173,-78,69
478,2160,-2,-431,-4667,23,-174,-75,67
479,2160,-1,-433,-4670,23,-175,-76,67
480,2160,-2,-435,-4669,23,-175,-76,66
481,2160,-4,-435,-4671,23,-173,-78,68
482,2157,-2,-430,-4671,23,-171,-78,69
483,2154,1,-428,-4669,23,-173,-75,72
484,2160,-1,-424,-4669,23,-171,-74,70
485,2156,2,-426,-4666,23,-170,-80,70
486,2159,2,-424,-4672,23,-172,-76,72
487,2158,2,-430,-4671,23,-173,-76,69
488,2156,1,-422,-4672,23,-174,-75,69
489,2155,0,-424,-4670,23,-174,-75,68
490,2157,2,-425,-4667,23,-175,-73,70
491,2160,1,-431,-4671,23,-174,-72,70
492,2158,1,-429,-4668,23,-171,-76,68
493,2160,3,-428,-4666,23,-173,-74,72
494,2162,1,-428,-4671,23,-176,-75,71
495,2161,0,-432,-4672,23,-173,-78,72
496,2158,-2,-431,-4673,23,-173,-78,71
497,2159,-3,-429,-4672,23,-174,-78,71
498,2161,2,-426,-4675,23,-172,-78,71
499,2160,1,-429,-4671,23,-172,-78,71
500,2161,0,-427,-4671,23,-172,-76,72
501,2161,2,-423,-4672,23,-173,-78,70
502,2160,3,-423,-4674,23,-175,-74,72
503,2158,1,-424,-4678,23,-176,-76,70
504,2158,-5,-423,-4668,23,-173,-72,71
505,2158,-3,-426,-4670,23,-175,-73,68
506,2158,-4,-431,-4666,23,-176,-73,67
507,2158,2,-432,-4667,23,-175,-78,68
508,2157,-1,-423,-4672,23,-171,-73,69
509,2160,1,-425,-4676,23,-173,-73,71
510,2162,-2,-421,-4674,23,-175,-76,69
511,2160,-1,-424,-4673,23,-176,-75,73
512,2155,-1,-425,-4668,23,-174,-76,72
513,2157,-3,-423,-4662,23,-173,-76,69
514,2158,-3,-433,-4669,23,-173,-77,68
515,2161,2,-432,-4670,23,-174,-75,69
516,2161,0,-426,-4671,23,-173,-73,71
517,2158,-4,-428,-4666,23,-170,-72,70
518,2158,4,-428,-4673,23,-171,-73,70
519,2158,3,-427,-4668,23,-175,-74,71
520,2157,1,-431,-4674,23,-171,-73,71
521,2160,0,-430,-4676,23,-171,-78,70
522,2160,2,-428,-4673,23,-176,-73,72
523,2164,0,-421,-4674,23,-172,-75,75
524,2165,-1,-425,-4671,23,-174,-74,70
525,2166,2,-422,-4675,23,-175,-72,73
526,2164,-2,-426,-4670,23,-175,-71,72
527,2162,-1,-428,-4670,23,-175,-77,66
528,2159,-3,-434,-4671,23,-174,-77,69
529,2162,-1,-429,-4667,23,-174,-74,71
530,2161,2,-430,-4666,23,-170,-78,67
531,2160,2,-432,-4672,23,-175,-74,66
532,2157,3,-435,-4674,23,-172,-74,67
533,2158,2,-427,-4670,23,-178,-79,69
534,2158,-1,-430,-4669,23,-171,-74,71
535,2160,-1,-431,-4675,23,-175,-73,67
536,2159,1,-427,-4679,23,-171,-72,67
537,2158,0,-426,-4678,23,-175,-70,69
538,2158,4,-422,-4674,23,-173,-71,71
539,2163,1,-425,-4674,23,-173,-72,69
540,2164,-3,-426,-4672,23,-175,-75,72
541,2164,2,-423,-4674,23,-175,-77,70
542,2161,0,-421,-4674,23,-176,-76,68
543,2159,-1,-425,-4674,23,-173,-79,71
544,2159,-4,-427,-4671,23,-172,-74,72
545,2157,-2,-423,-4675,23,-173,-76,67
546,2157,1,-429,-4673,23,-172,-73,70
547,2160,-1,-427,-4674,23,-173,-78,70
548,2161,3,-422,-4671,23,-175,-76,69
549,2158,0,-423,-4673,23,-176,-81,72
550,2161,-1,-427,-4671,23,-174,-76,72
551,2157,2,-429,-4672,23,-173,-75,69
552,2161,1,-428,-4667,23,-171,-76,69
553,2158,3,-429,-4673,23,-174,-75,68
554,2158,-1,-428,-4678,23,-173,-76,66
555,2157,-1,-427,-4678,23,-177,-76,68
556,2159,2,-420,-4679,23,-174,-79,73
557,2165,-1,-431,-4673,23,-172,-77,74
558,2159,-4,-431,-4674,23,-178,-75,69
559,2162,-4,-433,-4672,23,-175,-74,72
560,2158,-1,-429,-4671,23,-171,-75,70
561,2156,-1,-431,-4673,23,-174,-74,70
562,2157,2,-423,-4669,23,-172,-76,71
563,2157,0,-426,-4671,23,-172,-74,70
564,2162,3,-426,-4672,23,-174,-77,70
565,2162,2,-426,-4672,23,-174,-76,71
566,2162,4,-427,-4673,23,-172,-78,69
567,2159,0,-426,-4674,23,-176,-75,67
568,2161,-3,-421,-4674,23,-175,-76,68
569,2161,-2,-425,-4677,23,-174,-75,69
570,2161,-2,-427,-4677,23,-174,-78,70
571,2161,-1,-430,-4675,23,-171,-77,71
572,2162,-3,-429,-4677,23,-175,-77,72
573,2159,-1,-427,-4672,23,-174,-78,72
574,2156,-5,-426,-4672,23,-174,-78,70
575,2157,-2,-427,-4667,23,-174,-78,71
576,2159,-4,-427,-4669,23,-172,-72,67
577,2162,-1,-425,-4671,23,-173,-79,68
578,2156,-2,-425,-4669,23,-174,-76,66
579,2157,1,-424,-4673,23,-174,-77,67
580,2160,1,-420,-4672,23,-177,-76,68
581,2157,-1,-426,-4676,23,-172,-74,69
582,2163,2,-429,-4675,23,-173,-73,70
583,2158,1,-428,-4673,23,-173,-74,68
584,2159,-1,-427,-4675,23,-174,-73,67
585,2159,3,-426,-4678,23,-174,-75,67
586,2161,3,-428,-4681,23,-173,-76,67
587,2158,-1,-426,-4678,23,-173,-75,67
588,2159,0,-421,-4675,23,-171,-79,71
589,2153,-3,-425,-4672,23,-170,-76,73
590,2157,-1,-426,-4669,23,-173,-76,71
591,2154,-3,-422,-4667,23,-172,-77,71
592,2158,1,-425,-4668,23,-175,-78,73
593,2160,1,-427,-4676,23,-175,-76,74
594,2159,0,-422,-4672,23,-173,-75,66
595,2162,-2,-426,-4676,23,-175,-75,68
596,2159,2,-431,-4675,23,-174,-74,70
597,2162,0,-427,-4675,23,-175,-74,70
598,2159,0,-429,-4675,23,-173,-74,69
599,2161,-2,-423,-4676,23,-176,-77,71
600,2161,0,-430,-4675,23,-173,-76,70
601,2164,-2,-427,-4675,23,-174,-77,73
602,2160,-1,-427,-4680,23,-171,-74,73
603,2158,-2,-422,-4676,23,-173,-75,70
604,2160,-4,-426,-4678,23,-172,-72,67
605,2163,2,-423,-4677,23,-170,-70,70
606,2161,1,-425,-4672,23,-172,-74,70
607,2159,-1,-428,-4673,23,-172,-76,70
608,2160,-5,-426,-4672,23,-174,-79,67
609,2156,1,-426,-4680,23,-175,-79,69
610,2157,3,-424,-4673,23,-173,-74,67
611,2159,0,-430,-4678,23,-172,-75,69
612,2162,0,-428,-4681,23,-174,-75,67
613,2163,1,-430,-4678,23,-174,-76,68
614,2161,2,-431,-4681,23,-174,-76,72
615,2159,2,-435,-4677,23,-172,-78,73
616,2158,1,-427,-4676,23,-175,-77,70
617,2158,-3,-422,-4677,23,-172,-75,70
618,2155,-2,-427,-4681,23,-175,-72,72
619,2160,0,-428,-4683,23,-171,-76,68
620,2159,0,-427,-4681,23,-173,-76,68
621,2161,1,-425,-4679,23,-171,-76,68
622,2160,2,-422,-4673,23,-172,-76,72
623,2157,0,-421,-4677,23,-173,-76,71
624,2158,2,-420,-4675,23,-176,-79,73
625,2158,2,-428,-4673,23,-175,-79,72
626,2159,-1,-434,-4678,23,-173,-78,72
627,2162,0,-431,-4674,23,-171,-76,71
628,2160,2,-426,-4675,23,-171,-78,70
629,2162,0,-432,-4670,23,-173,-77,70
630,2160,0,-435,-4673,23,-171,-77,70
631,2157,-4,-434,-4677,23,-176,-75,72
632,2158,-6,-433,-4672,23,-175,-77,70
633,2154,-4,-435,-4671,23,-173,-76,68
634,2153,-3,-434,-4674,23,-173,-74,66
635,2155,-1,-440,-4676,23,-173,-73,70
636,2152,2,-431,-4671,23,-172,-74,72
637,2156,1,-429,-4669,23,-173,-72,71
638,2159,1,-436,-4674,23,-176,-74,70
639,2161,-3,-432,-4674,23,-176,-72,69
640,2162,-2,-423,-4672,23,-176,-76,68
641,2161,-2,-427,-4673,23,-172,-72,74
642,2158,0,-426,-4668,23,-174,-73,71
643,2156,-1,-423,-4679,23,-170,-75,76
644,2157,0,-430,-4674,23,-172,-72,72
645,2160,4,-428,-4673,23,-174,-75,72
646,2153,2,-429,-4673,23,-172,-79,72
647,2155,-4,-431,-4668,23,-178,-77,71
648,2157,-1,-426,-4672,23,-174,-74,72
649,2158,-3,-424,-4671,23,-172,-77,72
650,2159,-2,-427,-4675,23,-173,-76,71
651,2159,-1,-429,-4671,23,-172,-77,71
652,2156,0,-429,-4676,23,-172,-75,73
653,2157,-2,-432,-4672,23,-171,-73,71
654,2154,-3,-433,-4675,23,-172,-75,73
655,2159,-1,-430,-4675,23,-176,-74,73
656,2160,-3,-429,-4677,23,-172,-71,73
657,2159,-2,-423,-4672,23,-173,-72,71
658,2161,-2,-425,-4666,23,-172,-73,69
659,2157,-1,-424,-4672,23,-173,-74,68
660,2156,-2,-428,-4672,23,-168,-74,70
661,2158,0,-424,-4671,23,-172,-77,68
662,2161,0,-423,-4672,23,-173,-75,70
663,2160,-1,-424,-4671,23,-174,-75,69
664,2159,2,-423,-4667,23,-173,-75,69
665,2155,0,-421,-4669,23,-172,-82,66
666,2159,3,-422,-4670,23,-175,-77,71
667,2161,5,-430,-4668,23,-176,-77,69
668,2157,1,-428,-4672,23,-172,-79,69
669,2163,4,-430,-4667,23,-173,-75,71
670,2163,1,-424,-4671,23,-169,-77,68
671,2161,1,-435,-4674,23,-170,-72,65
672,2160,1,-435,-4676,23,-170,-76,68
673,2156,1,-432,-4679,23,-173,-78,72
674,2156,0,-428,-4674,23,-173,-74,69
675,2156,3,-424,-4672,23,-171,-76,68
676,2161,0,-427,-4670,23,-169,-74,66
677,2159,4,-426,-4674,23,-170,-74,68
678,2156,1,-429,-4672,23,-174,-74,67
679,2159,3,-424,-4669,23,-174,-78,69
680,2157,-1,-432,-4669,23,-172,-76,72
681,2158,0,-430,-4668,23,-174,-75,69
682,2160,2,-427,-4671,23,-172,-74,70
683,2160,1,-425,-4668,23,-171,-77,68
684,2160,-1,-429,-4669,23,-174,-73,70
685,2160,-2,-430,-4670,23,-174,-74,68
686,2157,-1,-428,-4666,23,-173,-74,69
687,2160,2,-425,-4669,23,-171,-70,70
688,2161,2,-430,-4672,23,-172,-71,71
689,2156,3,-429,-4674,23,-174,-69,70
690,2159,-1,-431,-4668,23,-173,-73,70
691,2158,1,-433,-4672,23,-174,-79,68
692,2155,3,-425,-4673,23,-173,-78,68
693,2157,0,-430,-4666,23,-171,-78,68
694,2161,-4,-422,-4673,23,-172,-76,71
695,2163,-1,-430,-4669,23,-169,-76,69
696,2161,2,-426,-4672,23,-172,-73,65
697,2159,2,-429,-4671,23,-171,-73,68
698,2161,-1,-423,-4672,23,-173,-74,70
699,2159,-1,-423,-4667,23,-172,-74,69
700,2160,1,-422,-4667,23,-168,-73,67
701,2158,0,-426,-4666,23,-173,-74,67
702,2160,-2,-425,-4673,23,-173,-75,67
703,2160,3,-424,-4669,23,-175,-76,69
704,2161,2,-426,-4672,23,-174,-78,70
705,2157,-2,-428,-4670,23,-171,-77,68
706,2158,-3,-425,-4668,23,-175,-76,70
707,2159,0,-431,-4669,23,-177,-75,71
708,2161,1,-429,-4667,23,-173,-78,67
709,2160,0,-427,-4667,23,-174,-78,68
710,2159,1,-429,-4670,23,-170,-78,70
711,2160,-2,-426,-4669,23,-173,-77,69
712,2157,-3,-431,-4676,23,-172,-72,72
713,2158,4,-428,-4669,23,-176,-74,70
714,2161,2,-432,-4665,23,-174,-69,72
715,2162,-2,-430,-4666,23,-173,-72,69
716,2158,-4,-426,-4669,23,-176,-74,68
717,2161,-2,-430,-4670,23,-176,-75,67
718,2162,0,-431,-4673,23,-174,-76,68
719,2160,-2,-428,-4672,23,-173,-76,70
720,2162,0,-431,-4674,23,-171,-74,71
721,2159,-3,-429,-4674,23,-169,-73,68
722,2160,-1,-429,-4668,23,-168,-74,70
723,2158,-4,-431,-4668,23,-170,-74,72
724,2159,-1,-430,-4671,23,-174,-79,73
725,2159,3,-427,-4671,23,-174,-76,71
726,2161,4,-427,-4670,23,-173,-74,68
727,2159,2,-425,-4672,23,-173,-75,71
728,2154,-2,-428,-4674,23,-172,-76,71
729,2157,3,-422,-4668,23,-172,-79,71
730,2158,-1,-425,-4670,23,-171,-79,71
731,2161,-1,-431,-4666,23,-173,-75,71
732,2158,-1,-428,-4668,23,-171,-70,70
733,2155,-1,-424,-4672,23,-172,-72,67
734,2154,0,-424,-4664,23,-175,-74,73
735,2155,3,-427,-4666,23,-172,-73,73
736,2160,1,-424,-4670,23,-171,-75,69
737,2159,6,-429,-4676,23,-172,-76,70
738,2156,2,-425,-4675,23,-175,-77,73
739,2157,0,-428,-4671,23,-172,-77,71
740,2159,2,-426,-4668,23,-175,-77,69
741,2158,2,-421,-4668,23,-177,-75,68
742,2156,-2,-421,-4671,23,-176,-76,70
743,2160,1,-423,-4675,23,-175,-75,70
744,2156,2,-426,-4674,23,-175,-75,68
745,2157,-1,-426,-4674,23,-170,-77,69
746,2159,0,-427,-4675,23,-177,-81,69
747,2159,-2,-428,-4677,23,-172,-78,68
748,2162,0,-430,-4670,23,-174,-78,68
749,2164,1,-430,-4672,23,-172,-75,68
750,2163,-1,-432,-4670,23,-171,-78,69
751,2163,3,-427,-4669,23,-177,-77,68
752,2163,1,-425,-4677,23,-176,-77,65
753,2161,1,-427,-4677,23,-177,-77,69
754,2161,1,-426,-4675,23,-173,-77,72
755,2159,-1,-426,-4675,23,-173,-74,70
756,2162,-1,-427,-4672,23,-171,-78,70
757,2162,1,-429,-4673,23,-173,-73,67
758,2156,4,-430,-4673,23,-171,-73,69
759,2162,0,-425,-4676,23,-172,-75,71
760,2163,5,-427,-4674,23,-171,-77,70
761,2163,4,-427,-4668,23,-176,-77,72
762,2160,2,-421,-4670,23,-171,-76,74
763,2158,0,-421,-4668,23,-174,-72,70
764,2162,3,-425,-4670,23,-173,-75,71
765,2162,-1,-431,-4666,23,-171,-79,69
766,2160,-3,-426,-4671,23,-172,-79,69
767,2161,-5,-430,-4672,23,-171,-79,71
768,2160,-1,-432,-4668,23,-171,-75,71
769,2162,-1,-428,-4667,23,-172,-76,69
770,2160,-2,-434,-4672,23,-172,-79,72
771,2161,0,-432,-4672,23,-176,-75,73
772,2163,-4,-429,-4674,23,-172,-76,69
773,2159,1,-434,-4671,23,-174,-73,71
774,2162,1,-426,-4671,23,-175,-69,71
775,2158,-1,-421,-4672,23,-173,-71,70
776,2158,-1,-421,-4666,23,-172,-74,71
777,2159,3,-421,-4672,23,-170,-74,76
778,2158,3,-423,-4669,23,-173,-76,71
779,2158,4,-423,-4670,23,-172,-72,70
780,2157,1,-423,-4668,23,-173,-69,74
781,2155,0,-422,-4670,23,-176,-73,70
782,2159,1,-423,-4670,23,-175,-73,70
783,2156,3,-422,-4670,23,-176,-78,72
784,2160,2,-421,-4672,23,-176,-78,72
785,2162,2,-425,-4674,23,-176,-74,76
786,2158,-4,-421,-4674,23,-176,-76,72
787,2160,-4,-420,-4675,23,-173,-76,70
788,2160,-2,-423,-4674,23,-177,-76,68
789,2161,-5,-426,-4671,23,-174,-79,67
790,2162,-1,-420,-4668,23,-172,-76,71
791,2156,0,-426,-4669,23,-175,-78,70
792,2157,-1,-422,-4672,23,-171,-80,69
793,2157,3,-428,-4669,23,-171,-78,69
794,2160,1,-428,-4668,23,-168,-78,67
795,2166,0,-435,-4672,23,-170,-77,69
796,2164,3,-436,-4673,23,-171,-78,73
797,2162,-1,-432,-4673,23,-173,-76,71
798,2157,0,-433,-4671,23,-173,-80,71
799,2158,1,-428,-4676,23,-176,-78,71
800,2156,1,-423,-4672,23,-173,-80,68
801,2159,1,-421,-4668,23,-172,-75,69
802,2159,-1,-424,-4666,23,-175,-79,69
803,2160,-3,-429,-4670,23,-177,-77,68
804,2158,-2,-426,-4668,23,-172,-76,69
805,2161,-2,-429,-4666,23,-175,-73,70
806,2159,-1,-420,-4669,23,-173,-73,72
807,2160,0,-429,-4670,23,-174,-77,72
808,2161,-1,-430,-4676,23,-175,-76,70
809,2161,1,-428,-4672,23,-176,-79,73
810,2161,1,-428,-4667,23,-178,-74,72
811,2161,1,-429,-4666,23,-175,-77,71
812,2161,1,-433,-4666,23,-175,-75,72
813,2159,3,-426,-4675,23,-173,-78,70
814,2158,1,-424,-4671,23,-170,-73,72
815,2161,-3,-427,-4673,23,-173,-71,72
816,2155,-1,-426,-4674,23,-173,-75,70
817,2159,-1,-421,-4670,23,-172,-78,68
818,2160,3,-421,-4672,23,-174,-77,72
819,2160,4,-424,-4667,23,-175,-76,71
820,2160,4,-424,-4669,23,-176,-74,72
821,2159,0,-425,-4666,23,-174,-77,72
822,2158,-1,-435,-4672,23,-175,-76,70
823,2155,-3,-427,-4674,23,-172,-79,70
824,2153,2,-430,-4668,23,-172,-77,69
825,2154,5,-425,-4670,23,-173,-77,72
826,2158,0,-430,-4671,23,-174,-76,73
827,2158,1,-431,-4671,23,-174,-75,69
828,2156,4,-435,-4668,23,-173,-71,71
829,2156,4,-428,-4668,23,-173,-75,69
830,2156,5,-431,-4670,23,-171,-75,68
831,2157,1,-427,-4670,23,-174,-75,69
832,2152,3,-427,-4669,23,-177,-77,69
833,2156,3,-425,-4671,23,-173,-74,74
834,2156,0,-429,-4674,23,-174,-75,69
835,2158,1,-427,-4672,23,-174,-75,75
836,2158,1,-424,-4672,23,-172,-75,71
837,2157,3,-423,-4670,23,-175,-75,71
838,2158,-1,-421,-4673,23,-173,-77,72
839,2156,0,-425,-4671,23,-172,-76,71
840,2156,-2,-428,-4669,23,-172,-79,70
841,2158,-4,-433,-4673,23,-177,-79,70
842,2157,-2,-432,-4674,23,-176,-82,68
843,2158,0,-423,-4669,23,-175,-79,69
844,2161,2,-428,-4667,23,-176,-76,69
845,2159,3,-427,-4667,23,-178,-74,68
846,2157,-1,-428,-4662,23,-175,-74,69
847,2162,1,-429,-4667,23,-174,-75,71
848,2160,2,-432,-4670,23,-174,-75,71
849,2160,4,-436,-4673,23,-175,-76,69
850,2160,-1,-430,-4671,23,-176,-77,69
851,2161,-4,-427,-4669,23,-174,-76,69
852,2159,-1,-430,-4666,23,-177,-77,67
853,2157,1,-430,-4666,23,-174,-77,69
854,2160,2,-426,-4668,23,-176,-77,68
855,2159,1,-432,-4665,23,-172,-73,70
856,2155,5,-434,-4664,23,-174,-75,70
857,2159,2,-435,-4664,23,-175,-77,68
858,2162,-2,-425,-4664,23,-172,-75,70
859,2158,1,-423,-4662,23,-170,-76,70
860,2161,2,-431,-4668,23,-169,-75,70
861,2161,0,-434,-4668,23,-171,-76,70
862,2160,0,-433,-4667,23,-175,-74,68
863,2158,-1,-427,-4671,23,-175,-75,70
864,2159,-3,-427,-4671,23,-173,-76,68
865,2159,-3,-430,-4666,23,-175,-74,69
866,2160,2,-428,-4671,23,-170,-78,67
867,2160,0,-432,-4669,23,-170,-76,70
868,2160,-1,-428,-4669,23,-168,-76,70
869,2156,-3,-433,-4672,23,-174,-76,73
870,2158,-1,-426,-4665,23,-177,-73,69
871,2157,-2,-426,-4665,23,-176,-76,71
872,2158,-3,-427,-4666,23,-176,-74,71
873,2163,-1,-430,-4667,23,-175,-75,73
874,2166,1,-423,-4666,23,-176,-76,73
875,2159,4,-428,-4668,23,-175,-76,71
876,2160,2,-422,-4669,23,-174,-76,71
877,2163,3,-427,-4669,23,-171,-77,70
878,2162,1,-426,-4673,23,-177,-75,67
879,2163,-5,-425,-4670,23,-178,-76,68
880,2159,-4,-427,-4670,23,-172,-75,68
881,2157,-4,-426,-4669,23,-173,-77,70
882,2153,-3,-431,-4669,23,-175,-75,70
883,2157,-3,-435,-4664,23,-176,-75,69
884,2160,-4,-431,-4669,23,-175,-77,69
885,2163,0,-430,-4670,23,-173,-76,69
886,2164,-2,-426,-4671,23,-169,-76,69
887,2158,-4,-424,-4665,23,-172,-76,70
888,2157,0,-426,-4659,23,-173,-76,68
889,2158,-1,-428,-4659,23,-171,-74,71
890,2154,-1,-429,-4664,23,-173,-74,69
891,2155,-1,-427,-4669,23,-174,-75,68
892,2159,-1,-430,-4670,23,-177,-76,71
893,2158,-1,-430,-4668,23,-174,-75,72
894,2161,0,-430,-4670,23,-175,-80,72
895,2158,0,-434,-4669,23,-176,-78,73
896,2158,-1,-431,-4670,23,-173,-78,70
897,2156,-2,-427,-4674,23,-176,-80,69
898,2157,-1,-427,-4670,23,-173,-75,72
899,2161,2,-424,-4667,23,-173,-77,70
900,2162,-3,-424,-4664,23,-175,-79,70
901,2161,-1,-430,-4670,23,-177,-79,69
902,2160,0,-425,-4664,23,-173,-76,70
903,2159,2,-427,-4667,23,-172,-76,74
904,2158,0,-431,-4667,23,-176,-77,75
905,2159,0,-427,-4666,23,-177,-76,73
906,2157,4,-423,-4665,23,-175,-75,68
907,2157,2,-424,-4661,23,-173,-73,71
908,2161,4,-425,-4663,23,-170,-74,69
909,2160,2,-431,-4663,23,-175,-75,72
910,2159,-3,-427,-4668,23,-173,-72,70
911,2160,2,-426,-4666,23,-172,-73,70
912,2157,0,-427,-4669,23,-174,-75,71
913,2159,4,-428,-4661,23,-173,-72,72
914,2158,-3,-427,-4663,23,-169,-75,68
915,2160,-3,-425,-4671,23,-174,-75,65
916,2160,1,-428,-4667,23,-173,-74,69
917,2161,1,-428,-4669,23,-174,-74,68
918,2162,0,-429,-4668,23,-176,-77,69
919,2157,0,-427,-4668,23,-176,-78,72
920,2159,-1,-428,-4663,23,-175,-76,72
921,2161,-5,-431,-4666,23,-172,-77,68
922,2160,-1,-426,-4665,23,-175,-75,70
923,2158,1,-421,-4662,23,-173,-76,69
924,2156,4,-425,-4666,23,-174,-78,71
925,2157,3,-426,-4668,23,-172,-77,69
926,2159,3,-430,-4669,23,-174,-73,69
927,2156,3,-426,-4663,23,-176,-76,71
928,2159,2,-426,-4662,23,-174,-78,72
929,2157,2,-432,-4656,23,-174,-76,71
930,2155,2,-429,-4660,23,-173,-79,70
931,2159,0,-424,-4667,23,-173,-79,70
932,2163,5,-429,-4665,23,-176,-73,71
933,2163,2,-426,-4666,23,-179,-77,70
934,2160,1,-427,-4665,23,-177,-77,70
935,2160,4,-433,-4665,23,-173,-80,70
936,2162,1,-430,-4665,23,-174,-76,70
937,2159,0,-424,-4667,23,-174,-71,67
938,2158,1,-430,-4666,23,-176,-74,70
939,2156,2,-428,-4666,23,-171,-78,70
940,2159,1,-427,-4670,23,-173,-79,69
941,2155,2,-431,-4669,23,-173,-76,69
942,2158,-2,-424,-4667,23,-173,-77,68
943,2161,0,-427,-4668,23,-172,-75,72
944,2158,0,-426,-4667,23,-173,-76,71
945,2153,0,-427,-4669,23,-173,-73,72
946,2155,-1,-426,-4662,23,-175,-75,70
947,2156,-2,-426,-4661,23,-175,-72,68
948,2154,5,-426,-4662,23,-177,-70,67
949,2160,1,-430,-4669,23,-175,-73,70
950,2159,1,-432,-4670,23,-173,-75,70
951,2159,2,-427,-4666,23,-174,-76,70
952,2157,5,-417,-4669,23,-174,-74,70
953,2160,3,-423,-4670,23,-173,-77,72
954,2155,2,-428,-4672,23,-170,-74,71
955,2157,-1,-424,-4669,23,-172,-76,70
956,2158,2,-427,-4669,23,-171,-76,69
957,2160,3,-426,-4670,23,-174,-76,72
958,2162,3,-430,-4669,23,-174,-78,69
959,2159,0,-425,-4668,23,-174,-74,69
960,2160,-3,-422,-4669,23,-173,-76,68
961,2158,0,-427,-4669,23,-176,-77,68
962,2158,-1,-431,-4669,23,-175,-78,71
963,2159,4,-425,-4669,23,-174,-79,70
964,2160,0,-427,-4670,23,-175,-77,67
965,2159,-4,-427,-4668,23,-178,-78,67
966,2154,-1,-427,-4667,23,-173,-74,69
967,2157,-1,-429,-4664,23,-172,-75,68
968,2155,1,-427,-4668,23,-175,-74,69
969,2158,1,-423,-4661,23,-174,-75,69
970,2157,-4,-429,-4665,23,-175,-73,68
971,2159,2,-430,-4666,23,-174,-77,74
972,2161,0,-431,-4670,23,-174,-76,71
973,2156,0,-432,-4665,23,-170,-73,71
974,2161,0,-429,-4664,23,-173,-76,70
975,2162,1,-428,-4667,23,-178,-77,68
976,2163,2,-426,-4662,23,-174,-80,67
977,2161,2,-428,-4669,23,-174,-79,70
978,2160,0,-427,-4666,23,-175,-78,70
979,2156,-2,-432,-4668,23,-173,-75,69
980,2158,-3,-438,-4668,23,-174,-79,68
981,2161,-2,-436,-4669,23,-173,-81,68
982,2157,-2,-429,-4667,23,-171,-77,68
983,2157,0,-433,-4670,23,-173,-74,69
984,2157,3,-429,-4669,23,-176,-74,71
985,2156,4,-432,-4671,23,-175,-74,68
986,2159,2,-431,-4664,23,-173,-79,68
987,2159,-3,-431,-4664,23,-172,-72,69
988,2156,1,-421,-4665,23,-173,-73,68
989,2160,4,-425,-4667,23,-174,-73,69
990,2159,-1,-421,-4668,23,-175,-73,71
991,2159,1,-419,-4667,23,-176,-76,70
992,2158,-1,-423,-4665,23,-177,-74,67
993,2155,0,-424,-4666,23,-177,-72,68
994,2155,-2,-426,-4667,23,-175,-78,69
995,2156,-2,-421,-4666,23,-173,-75,68
996,2157,1,-419,-4669,23,-172,-79,66
997,2159,0,-426,-4666,23,-172,-75,71
998,2159,-2,-429,-4667,23,-174,-75,67
