,acc_X,acc_Y,acc_Z,temp,tempC,gyr_X,gyr_Y,gyr_Z
0,17262,14,-3436,-4715,23,-43,-19,17
1,17258,12,-3426,-4714,23,-44,-19,17
2,17268,16,-3420,-4714,23,-43,-19,17
3,17266,16,-3410,-4716,23,-43,-19,17
4,17268,12,-3418,-4715,23,-43,-19,17
5,17278,10,-3410,-4717,23,-43,-19,17
6,17284,14,-3408,-4716,23,-43,-19,17
7,17290,14,-3422,-4716,23,-43,-19,17
8,17276,0,-3416,-4715,23,-43,-19,17
9,17278,-4,-3420,-4713,23,-43,-19,17
10,17272,2,-3446,-4714,23,-43,-19,17
11,17276,4,-3450,-4715,23,-43,-19,17
12,17270,2,-3448,-4715,23,-43,-19,17
13,17268,8,-3456,-4715,23,-44,-19,17
14,17262,0,-3448,-4716,23,-44,-19,17
15,17274,12,-3456,-4715,23,-44,-19,17
16,17274,16,-3446,-4717,23,-43,-19,17
17,17272,16,-3452,-4716,23,-43,-19,17
18,17264,28,-3454,-4718,23,-44,-19,17
19,17260,20,-3426,-4717,23,-44,-19,17
20,17256,16,-3418,-4717,23,-44,-19,17
21,17264,16,-3420,-4715,23,-44,-20,17
22,17260,22,-3412,-4716,23,-44,-19,17
23,17268,18,-3404,-4716,23,-44,-19,17
24,17268,6,-3408,-4717,23,-44,-19,17
25,17262,2,-3410,-4716,23,-43,-19,17
26,17276,-8,-3422,-4716,23,-43,-19,17
27,17288,2,-3418,-4715,23,-43,-20,17
28,17288,4,-3422,-4715,23,-44,-20,17
29,17274,-2,-3424,-4714,23,-44,-19,16
30,17274,-4,-3436,-4715,23,-44,-20,17
31,17278,2,-3426,-4715,23,-44,-20,16
32,17272,10,-3414,-4716,23,-44,-19,16
33,17272,12,-3428,-4717,23,-44,-19,16
34,17258,20,-3420,-4716,23,-43,-19,16
35,17260,22,-3438,-4718,23,-44,-19,16
36,17260,8,-3440,-4717,23,-44,-20,16
37,17256,0,-3440,-4716,23,-44,-19,17
38,17252,6,-3432,-4716,23,-43,-19,17
39,17260,14,-3428,-4718,23,-43,-19,17
40,17272,12,-3424,-4716,23,-43,-19,17
41,17270,10,-3430,-4716,23,-43,-19,17
42,17278,26,-3420,-4715,23,-43,-19,17
43,17272,16,-3422,-4715,23,-43,-19,17
44,17260,14,-3418,-4713,23,-43,-19,17
45,17252,6,-3436,-4714,23,-43,-19,17
46,17244,12,-3460,-4713,23,-43,-19,17
47,17258,10,-3444,-4713,23,-43,-19,17
48,17264,12,-3436,-4713,23,-43,-19,17
49,17260,6,-3436,-4714,23,-44,-19,17
50,17264,12,-3438,-4714,23,-44,-19,17
51,17268,24,-3436,-4716,23,-44,-19,17
52,17276,18,-3438,-4716,23,-44,-19,17
53,17278,16,-3440,-4715,23,-44,-19,17
54,17274,14,-3426,-4715,23,-44,-19,17
55,17272,20,-3416,-4717,23,-44,-19,17
56,17274,16,-3408,-4717,23,-44,-19,17
57,17274,12,-3408,-4716,23,-44,-19,17
58,17276,12,-3398,-4717,23,-44,-19,17
59,17274,10,-3410,-4719,23,-43,-19,17
60,17270,8,-3404,-4719,23,-44,-19,17
61,17262,10,-3410,-4720,23,-44,-19,17
62,17272,10,-3414,-4719,23,-43,-19,17
63,17270,8,-3428,-4718,23,-43,-19,17
64,17268,12,-3420,-4718,23,-43,-19,17
65,17274,14,-3412,-4714,23,-43,-20,17
66,17270,26,-3404,-4717,23,-43,-20,17
67,17272,24,-3402,-4716,23,-43,-19,17
68,17280,24,-3398,-4716,23,-44,-19,17
69,17282,24,-3400,-4717,23,-43,-19,17
70,17284,24,-3410,-4716,23,-43,-19,17
71,17278,28,-3408,-4715,23,-43,-19,17
72,17278,30,-3422,-4715,23,-44,-19,17
73,17270,26,-3416,-4715,23,-43,-19,17
74,17272,28,-3406,-4716,23,-43,-19,17
75,17266,22,-3418,-4716,23,-43,-19,17
76,17270,12,-3406,-4715,23,-43,-19,17
77,17278,18,-3414,-4718,23,-43,-19,17
78,17280,16,-3408,-4717,23,-43,-19,17
79,17278,14,-3410,-4718,23,-44,-19,17
80,17268,10,-3406,-4717,23,-44,-19,17
81,17280,4,-3426,-4719,23,-44,-19,17
82,17276,2,-3428,-4718,23,-44,-19,17
83,17274,22,-3438,-4718,23,-44,-19,17
84,17268,26,-3438,-4716,23,-44,-19,17
85,17266,20,-3422,-4716,23,-44,-19,17
86,17262,22,-3410,-4716,23,-43,-19,17
87,17268,28,-3416,-4717,23,-43,-19,17
88,17272,24,-3412,-4716,23,-43,-19,17
89,17276,16,-3422,-4716,23,-43,-19,17
90,17284,24,-3432,-4716,23,-43,-19,17
91,17294,24,-3426,-4715,23,-43,-19,17
92,17288,30,-3420,-4717,23,-43,-19,17
93,17282,20,-3430,-4717,23,-43,-19,17
94,17282,20,-3440,-4717,23,-43,-19,17
95,17272,12,-3438,-4717,23,-43,-18,17
96,17278,14,-3434,-4715,23,-43,-19,17
97,17270,8,-3448,-4715,23,-43,-19,17
98,17262,16,-3434,-4715,23,-43,-19,17
99,17254,6,-3416,-4715,23,-43,-19,17
100,17262,10,-3420,-4717,23,-44,-19,17
101,17268,14,-3414,-4716,23,-43,-19,17
102,17268,16,-3422,-4717,23,-43,-19,17
103,17258,22,-3426,-4716,23,-43,-19,17
104,17268,24,-3422,-4718,23,-43,-20,17
105,17266,26,-3410,-4717,23,-43,-19,17
106,17270,12,-3418,-4718,23,-43,-19,17
107,17282,16,-3422,-4717,23,-44,-20,17
108,17270,10,-3422,-4719,23,-44,-20,17
109,17266,6,-3430,-4719,23,-44,-20,17
110,17270,10,-3430,-4719,23,-43,-20,17
111,17262,16,-3430,-4717,23,-43,-20,17
112,17260,12,-3436,-4720,23,-43,-20,17
113,17264,14,-3434,-4719,23,-43,-20,17
114,17266,10,-3440,-4718,23,-44,-20,17
115,17258,12,-3436,-4718,23,-43,-20,17
116,17260,8,-3422,-4717,23,-43,-20,17
117,17262,10,-3416,-4717,23,-44,-20,17
118,17262,16,-3410,-4716,23,-43,-20,17
119,17264,14,-3416,-4716,23,-43,-19,17
120,17274,16,-3422,-4714,23,-43,-19,17
121,17274,20,-3416,-4715,23,-43,-19,17
122,17280,22,-3426,-4713,23,-43,-19,17
123,17284,24,-3424,-4713,23,-43,-19,17
124,17290,26,-3424,-4713,23,-43,-19,17
125,17278,24,-3438,-4716,23,-43,-19,17
126,17268,30,-3430,-4715,23,-43,-19,17
127,17266,32,-3446,-4715,23,-44,-19,17
128,17272,32,-3448,-4714,23,-43,-19,17
129,17266,20,-3444,-4714,23,-44,-19,17
130,17268,12,-3454,-4712,23,-43,-19,17
131,17280,2,-3442,-4713,23,-43,-19,17
132,17282,0,-3434,-4715,23,-44,-19,17
133,17278,2,-3436,-4715,23,-44,-19,17
134,17276,0,-3432,-4715,23,-43,-19,17
135,17272,2,-3430,-4716,23,-43,-19,17
136,17284,14,-3432,-4717,23,-43,-19,17
137,17284,22,-3438,-4717,23,-43,-19,17
138,17286,20,-3440,-4718,23,-44,-19,17
139,17284,18,-3424,-4718,23,-44,-19,17
140,17274,18,-3410,-4716,23,-43,-20,17
141,17274,16,-3400,-4716,23,-43,-19,17
142,17272,16,-3404,-4719,23,-43,-19,17
143,17278,6,-3408,-4717,23,-43,-19,17
144,17278,8,-3418,-4717,23,-43,-19,17
145,17268,6,-3416,-4718,23,-43,-19,16
146,17272,2,-3414,-4719,23,-43,-20,16
147,17274,16,-3416,-4719,23,-43,-19,17
148,17284,4,-3426,-4716,23,-43,-20,17
149,17280,4,-3428,-4716,23,-43,-20,17
150,17286,8,-3430,-4717,23,-43,-20,17
151,17284,12,-3412,-4717,23,-43,-20,17
152,17282,20,-3410,-4718,23,-43,-20,17
153,17282,20,-3430,-4719,23,-43,-20,17
154,17286,14,-3432,-4720,23,-43,-20,17
155,17280,14,-3434,-4719,23,-43,-20,17
156,17268,14,-3436,-4720,23,-43,-20,17
157,17274,12,-3434,-4721,23,-43,-19,17
158,17274,10,-3448,-4720,23,-44,-19,17
159,17270,26,-3452,-4720,23,-44,-19,17
160,17268,16,-3432,-4719,23,-44,-19,17
161,17266,30,-3420,-4718,23,-43,-19,17
162,17260,32,-3418,-4719,23,-43,-19,17
163,17262,36,-3416,-4719,23,-43,-20,17
164,17264,24,-3416,-4719,23,-43,-19,17
165,17268,16,-3424,-4720,23,-43,-19,17
166,17276,18,-3422,-4718,23,-43,-20,17
167,17276,12,-3440,-4717,23,-44,-20,17
168,17282,14,-3426,-4717,23,-43,-19,17
169,17278,16,-3452,-4717,23,-43,-19,17
170,17272,14,-3454,-4717,23,-43,-19,17
171,17276,18,-3450,-4718,23,-43,-19,17
172,17278,8,-3440,-4716,23,-43,-19,17
173,17276,0,-3444,-4717,23,-43,-19,17
174,17274,0,-3454,-4718,23,-43,-19,17
175,17272,8,-3434,-4718,23,-43,-19,17
176,17276,10,-3442,-4720,23,-43,-19,17
177,17286,14,-3434,-4720,23,-44,-20,17
178,17288,16,-3422,-4718,23,-44,-19,17
179,17280,30,-3430,-4717,23,-44,-19,17
180,17276,28,-3424,-4720,23,-44,-19,17
181,17266,32,-3412,-4720,23,-44,-19,17
182,17278,32,-3426,-4720,23,-44,-20,17
183,17268,24,-3422,-4719,23,-44,-19,17
184,17268,30,-3426,-4718,23,-44,-19,17
185,17270,32,-3416,-4717,23,-44,-19,17
186,17268,18,-3430,-4719,23,-44,-20,17
187,17272,20,-3438,-4718,23,-44,-19,17
188,17266,22,-3416,-4717,23,-44,-19,17
189,17278,32,-3406,-4716,23,-44,-19,17
190,17272,20,-3418,-4717,23,-44,-19,16
191,17286,12,-3420,-4718,23,-44,-19,16
192,17286,2,-3426,-4716,23,-44,-19,17
193,17278,4,-3428,-4714,23,-44,-19,17
194,17268,2,-3434,-4714,23,-44,-19,17
195,17262,12,-3438,-4715,23,-44,-19,17
196,17260,16,-3432,-4716,23,-44,-19,17
197,17262,22,-3428,-4717,23,-44,-19,17
198,17266,22,-3436,-4719,23,-44,-19,17
199,17266,18,-3442,-4719,23,-44,-19,17
200,17274,12,-3434,-4719,23,-44,-19,17
201,17274,8,-3418,-4719,23,-44,-19,17
202,17274,0,-3424,-4717,23,-44,-19,17
203,17280,6,-3412,-4717,23,-44,-19,17
204,17272,8,-3420,-4716,23,-44,-19,17
205,17276,10,-3414,-4718,23,-44,-19,17
206,17280,12,-3410,-4716,23,-44,-19,17
207,17268,16,-3426,-4718,23,-44,-19,17
208,17274,18,-3440,-4717,23,-44,-19,17
209,17264,12,-3448,-4719,23,-44,-19,17
210,17268,12,-3450,-4718,23,-43,-19,17
211,17268,18,-3444,-4717,23,-44,-19,17
212,17266,12,-3436,-4717,23,-44,-19,17
213,17270,8,-3424,-4716,23,-44,-19,17
214,17274,22,-3430,-4717,23,-44,-19,17
215,17276,20,-3436,-4717,23,-44,-19,17
216,17268,20,-3444,-4717,23,-44,-19,17
217,17268,14,-3428,-4714,23,-44,-20,17
218,17274,12,-3428,-4716,23,-44,-19,17
219,17278,20,-3430,-4716,23,-44,-19,17
220,17274,26,-3430,-4715,23,-44,-19,17
221,17278,22,-3436,-4716,23,-44,-19,17
222,17280,20,-3438,-4717,23,-44,-19,17
223,17286,14,-3426,-4717,23,-44,-19,17
224,17272,16,-3432,-4715,23,-44,-19,17
225,17282,18,-3436,-4715,23,-44,-19,17
226,17270,14,-3438,-4716,23,-43,-19,17
227,17280,20,-3452,-4715,23,-43,-20,17
228,17288,8,-3440,-4714,23,-43,-20,17
229,17280,6,-3444,-4717,23,-43,-20,17
230,17278,16,-3428,-4718,23,-44,-20,17
231,17276,10,-3428,-4717,23,-44,-19,17
232,17272,6,-3436,-4719,23,-44,-19,17
233,17268,2,-3426,-4717,23,-43,-19,17
234,17260,10,-3428,-4715,23,-43,-19,17
235,17264,4,-3416,-4716,23,-44,-19,17
236,17274,8,-3418,-4717,23,-43,-20,17
237,17270,14,-3408,-4716,23,-43,-20,17
238,17274,8,-3406,-4717,23,-43,-20,17
239,17278,2,-3430,-4716,23,-43,-20,17
240,17276,-4,-3412,-4717,23,-43,-19,17
241,17278,-4,-3424,-4716,23,-43,-19,17
242,17274,12,-3416,-4716,23,-43,-19,17
243,17272,18,-3406,-4716,23,-43,-19,17
244,17268,14,-3406,-4718,23,-43,-19,17
245,17270,16,-3408,-4719,23,-43,-19,17
246,17270,12,-3404,-4720,23,-43,-20,17
247,17264,12,-3406,-4719,23,-43,-19,17
248,17268,4,-3422,-4719,23,-43,-19,17
249,17266,10,-3428,-4720,23,-43,-19,17
250,17264,22,-3446,-4720,23,-44,-19,17
251,17270,26,-3438,-4719,23,-44,-19,17
252,17264,20,-3428,-4720,23,-43,-19,17
253,17270,20,-3446,-4719,23,-43,-19,17
254,17272,24,-3434,-4718,23,-43,-19,17
255,17270,34,-3422,-4718,23,-43,-19,17
256,17270,22,-3434,-4717,23,-43,-19,17
257,17272,16,-3440,-4718,23,-43,-19,17
258,17274,10,-3426,-4717,23,-43,-19,17
259,17264,6,-3422,-4717,23,-43,-19,17
260,17262,6,-3420,-4717,23,-43,-19,17
261,17270,10,-3414,-4718,23,-43,-19,17
262,17270,18,-3400,-4717,23,-43,-19,17
263,17270,12,-3410,-4717,23,-43,-19,17
264,17268,12,-3410,-4718,23,-43,-19,17
265,17270,14,-3400,-4717,23,-43,-19,17
266,17262,18,-3402,-4716,23,-43,-19,17
267,17272,14,-3406,-4717,23,-43,-19,17
268,17274,14,-3400,-4717,23,-43,-20,17
269,17270,18,-3412,-4717,23,-43,-20,17
270,17274,10,-3426,-4719,23,-43,-19,17
271,17274,12,-3426,-4719,23,-43,-20,17
272,17272,10,-3444,-4720,23,-43,-19,17
273,17266,10,-3442,-4718,23,-44,-19,17
274,17274,4,-3458,-4718,23,-44,-19,17
275,17272,8,-3444,-4719,23,-43,-19,17
276,17274,8,-3430,-4720,23,-43,-19,17
277,17278,6,-3438,-4722,23,-43,-19,17
278,17274,8,-3432,-4721,23,-43,-19,17
279,17272,12,-3426,-4719,23,-43,-19,17
280,17272,10,-3434,-4721,23,-43,-19,17
281,17270,8,-3440,-4720,23,-43,-20,17
282,17278,8,-3432,-4719,23,-43,-19,17
283,17280,4,-3432,-4718,23,-43,-20,17
284,17278,8,-3424,-4719,23,-44,-20,17
285,17274,6,-3436,-4718,23,-44,-20,17
286,17274,8,-3438,-4718,23,-44,-20,17
287,17280,16,-3448,-4717,23,-44,-19,17
288,17280,8,-3444,-4716,23,-44,-19,17
289,17286,12,-3432,-4714,23,-43,-19,17
290,17286,18,-3430,-4712,23,-43,-19,17
291,17282,16,-3434,-4712,23,-43,-19,17
292,17274,10,-3432,-4715,23,-44,-19,17
293,17276,8,-3438,-4716,23,-44,-19,17
294,17270,10,-3440,-4716,23,-43,-19,17
295,17264,10,-3418,-4716,23,-43,-19,17
296,17272,22,-3422,-4717,23,-43,-19,17
297,17270,14,-3414,-4717,23,-44,-19,17
298,17268,16,-3414,-4717,23,-44,-19,17
299,17278,10,-3410,-4719,23,-44,-19,17
300,17274,12,-3418,-4720,23,-43,-19,17
301,17264,12,-3402,-4719,23,-43,-19,17
302,17264,14,-3406,-4721,23,-43,-19,17
303,17268,12,-3420,-4721,23,-44,-19,17
304,17274,22,-3406,-4721,23,-43,-19,17
305,17272,10,-3402,-4719,23,-43,-19,17
306,17276,18,-3404,-4722,23,-43,-19,17
307,17268,14,-3404,-4721,23,-43,-19,17
308,17270,16,-3412,-4720,23,-43,-19,17
309,17262,16,-3430,-4721,23,-43,-19,17
310,17256,20,-3430,-4719,23,-44,-19,17
311,17264,16,-3430,-4719,23,-44,-19,17
312,17260,26,-3428,-4719,23,-44,-19,17
313,17258,34,-3428,-4720,23,-44,-19,17
314,17258,30,-3440,-4720,23,-44,-19,17
315,17266,16,-3430,-4718,23,-44,-19,17
316,17274,14,-3436,-4718,23,-44,-19,17
317,17268,16,-3428,-4719,23,-44,-19,17
318,17274,8,-3434,-4720,23,-43,-19,17
319,17276,-2,-3432,-4717,23,-44,-19,17
320,17278,0,-3428,-4718,23,-44,-19,17
321,17278,-2,-3418,-4720,23,-44,-19,17
322,17276,8,-3418,-4719,23,-43,-19,17
323,17280,4,-3420,-4718,23,-44,-19,17
324,17280,18,-3418,-4716,23,-44,-19,17
325,17278,18,-3404,-4719,23,-44,-20,17
326,17272,16,-3416,-4720,23,-44,-20,17
327,17270,24,-3418,-4721,23,-44,-19,17
328,17270,24,-3420,-4720,23,-44,-19,17
329,17272,18,-3428,-4718,23,-44,-19,17
330,17270,18,-3434,-4717,23,-43,-19,16
331,17284,16,-3430,-4718,23,-43,-19,17
332,17276,20,-3428,-4718,23,-43,-19,17
333,17274,26,-3432,-4718,23,-43,-19,17
334,17274,24,-3416,-4718,23,-43,-19,17
335,17276,12,-3422,-4719,23,-43,-19,17
336,17278,12,-3416,-4719,23,-43,-19,17
337,17284,14,-3410,-4717,23,-43,-19,17
338,17278,14,-3422,-4718,23,-43,-19,17
339,17278,10,-3410,-4719,23,-43,-19,17
340,17276,4,-3404,-4718,23,-43,-19,17
341,17274,-2,-3412,-4718,23,-43,-19,17
342,17268,16,-3418,-4717,23,-43,-19,17
343,17278,10,-3402,-4718,23,-43,-19,17
344,17270,12,-3404,-4717,23,-44,-19,17
345,17266,10,-3412,-4717,23,-44,-19,17
346,17266,18,-3408,-4718,23,-44,-19,17
347,17272,16,-3410,-4718,23,-43,-19,17
348,17262,12,-3404,-4716,23,-44,-19,17
349,17270,6,-3428,-4715,23,-44,-19,17
350,17270,8,-3438,-4714,23,-44,-19,17
351,17264,16,-3434,-4713,23,-44,-19,17
352,17266,14,-3432,-4714,23,-43,-20,17
353,17268,2,-3442,-4714,23,-44,-20,17
354,17266,2,-3428,-4715,23,-44,-19,17
355,17266,0,-3424,-4714,23,-44,-19,17
356,17270,0,-3426,-4715,23,-43,-19,17
357,17270,10,-3426,-4714,23,-44,-19,17
358,17274,16,-3424,-4714,23,-44,-20,17
359,17272,8,-3426,-4713,23,-44,-19,17
360,17270,2,-3432,-4713,23,-44,-19,17
361,17262,8,-3426,-4714,23,-44,-19,17
362,17258,14,-3420,-4714,23,-44,-19,17
363,17258,16,-3422,-4714,23,-44,-19,17
364,17264,16,-3428,-4715,23,-43,-19,17
365,17268,16,-3434,-4716,23,-43,-19,17
366,17266,12,-3442,-4715,23,-43,-20,17
367,17262,6,-3452,-4716,23,-43,-19,17
368,17258,8,-3444,-4716,23,-43,-19,17
369,17274,10,-3448,-4717,23,-43,-19,17
370,17274,4,-3432,-4716,23,-44,-19,17
371,17274,6,-3426,-4716,23,-43,-19,16
372,17278,12,-3418,-4715,23,-43,-19,17
373,17276,8,-3420,-4716,23,-43,-19,16
374,17272,4,-3422,-4717,23,-43,-19,17
375,17268,4,-3426,-4717,23,-43,-19,17
376,17262,8,-3424,-4718,23,-43,-19,17
377,17270,14,-3414,-4720,23,-43,-19,17
378,17272,18,-3412,-4721,23,-43,-19,17
379,17272,22,-3404,-4722,23,-43,-19,17
380,17272,22,-3398,-4720,23,-43,-19,17
381,17270,32,-3400,-4720,23,-43,-19,17
382,17272,30,-3418,-4719,23,-43,-19,17
383,17264,24,-3422,-4721,23,-43,-19,17
384,17268,18,-3410,-4719,23,-43,-19,17
385,17272,14,-3410,-4719,23,-43,-19,17
386,17272,18,-3408,-4719,23,-43,-19,16
387,17274,22,-3406,-4720,23,-43,-20,17
388,17270,14,-3422,-4718,23,-43,-20,17
389,17268,20,-3420,-4718,23,-43,-19,16
390,17274,24,-3420,-4718,23,-43,-19,17
391,17268,24,-3416,-4717,23,-43,-19,17
392,17266,36,-3408,-4715,23,-43,-19,17
393,17268,36,-3420,-4717,23,-43,-19,17
394,17264,28,-3420,-4718,23,-43,-19,17
395,17270,20,-3426,-4717,23,-43,-19,17
396,17262,18,-3410,-4715,23,-43,-19,17
397,17262,22,-3410,-4715,23,-43,-19,17
398,17250,14,-3412,-4716,23,-43,-19,17
399,17254,18,-3420,-4718,23,-44,-19,17
400,17264,18,-3438,-4718,23,-43,-19,17
401,17264,22,-3428,-4717,23,-44,-19,17
402,17268,16,-3432,-4716,23,-43,-19,17
403,17286,14,-3432,-4717,23,-43,-19,17
404,17282,14,-3430,-4717,23,-44,-19,17
405,17284,20,-3434,-4718,23,-44,-19,17
406,17286,30,-3422,-4717,23,-44,-19,17
407,17284,26,-3422,-4717,23,-43,-19,17
408,17282,18,-3414,-4716,23,-43,-19,17
409,17276,10,-3418,-4716,23,-43,-19,17
410,17278,10,-3420,-4718,23,-43,-19,17
411,17282,6,-3412,-4715,23,-43,-19,17
412,17280,6,-3422,-4714,23,-44,-19,17
413,17284,4,-3416,-4716,23,-43,-19,17
414,17292,2,-3418,-4716,23,-43,-19,17
415,17282,4,-3422,-4718,23,-43,-19,17
416,17292,10,-3416,-4718,23,-43,-20,17
417,17280,12,-3418,-4718,23,-43,-19,17
418,17274,14,-3410,-4717,23,-43,-19,17
419,17282,26,-3414,-4717,23,-43,-19,17
420,17278,22,-3404,-4716,23,-43,-19,17
421,17284,24,-3406,-4714,23,-43,-19,17
422,17276,20,-3424,-4714,23,-43,-19,17
423,17278,22,-3430,-4713,23,-43,-19,17
424,17276,26,-3432,-4715,23,-43,-20,17
425,17272,18,-3428,-4715,23,-43,-20,17
426,17264,16,-3420,-4715,23,-43,-20,17
427,17262,12,-3404,-4715,23,-43,-19,17
428,17270,12,-3402,-4714,23,-43,-19,17
429,17278,18,-3422,-4716,23,-43,-19,17
430,17276,18,-3440,-4716,23,-43,-20,17
431,17272,26,-3430,-4717,23,-43,-19,17
432,17264,12,-3424,-4716,23,-43,-20,17
433,17262,4,-3426,-4715,23,-43,-20,17
434,17270,8,-3414,-4715,23,-43,-20,17
435,17272,10,-3406,-4715,23,-43,-20,17
436,17282,6,-3410,-4716,23,-43,-20,17
437,17280,10,-3420,-4716,23,-43,-20,17
438,17270,22,-3404,-4717,23,-43,-20,17
439,17270,22,-3400,-4715,23,-43,-19,17
440,17270,20,-3406,-4714,23,-43,-19,17
441,17272,18,-3392,-4713,23,-44,-20,17
442,17262,22,-3414,-4714,23,-44,-19,17
443,17270,24,-3424,-4714,23,-43,-20,17
444,17258,24,-3424,-4714,23,-43,-19,17
445,17264,26,-3414,-4713,23,-43,-20,17
446,17270,30,-3406,-4713,23,-43,-19,17
447,17266,26,-3406,-4713,23,-43,-19,17
448,17270,24,-3416,-4712,23,-43,-19,17
449,17272,20,-3406,-4712,23,-43,-19,17
450,17272,22,-3422,-4711,23,-43,-19,17
451,17276,22,-3422,-4713,23,-43,-19,17
452,17286,30,-3426,-4712,23,-43,-20,17
453,17290,14,-3430,-4714,23,-43,-20,17
454,17286,12,-3428,-4712,23,-43,-20,17
455,17282,20,-3446,-4712,23,-43,-20,17
456,17288,26,-3448,-4713,23,-43,-19,17
457,17286,28,-3438,-4714,23,-43,-19,17
458,17280,22,-3428,-4716,23,-43,-19,17
459,17284,22,-3416,-4716,23,-43,-19,17
460,17276,26,-3412,-4717,23,-43,-19,17
461,17274,28,-3422,-4717,23,-43,-19,17
462,17258,24,-3410,-4716,23,-44,-19,17
463,17260,16,-3408,-4714,23,-44,-19,17
464,17254,10,-3402,-4713,23,-44,-19,17
465,17260,8,-3418,-4715,23,-43,-19,17
466,17270,12,-3422,-4714,23,-43,-19,17
467,17258,18,-3422,-4715,23,-43,-19,17
468,17272,28,-3420,-4713,23,-43,-19,17
469,17276,26,-3426,-4712,23,-44,-19,17
470,17284,18,-3410,-4714,23,-43,-19,17
471,17280,18,-3426,-4715,23,-43,-19,17
472,17272,12,-3434,-4715,23,-43,-19,17
473,17268,6,-3430,-4713,23,-43,-19,17
474,17272,10,-3444,-4713,23,-43,-19,17
475,17282,10,-3446,-4712,23,-43,-19,17
476,17284,22,-3434,-4715,23,-43,-19,17
477,17278,22,-3434,-4715,23,-43,-20,17
478,17270,14,-3444,-4715,23,-44,-19,17
479,17282,16,-3436,-4715,23,-44,-19,17
480,17278,14,-3434,-4715,23,-43,-19,17
481,17274,14,-3440,-4716,23,-44,-19,17
482,17262,18,-3440,-4715,23,-43,-19,17
483,17252,22,-3438,-4716,23,-43,-19,17
484,17256,10,-3418,-4718,23,-43,-19,17
485,17262,14,-3422,-4718,23,-43,-19,17
486,17268,16,-3418,-4717,23,-43,-19,17
487,17272,18,-3412,-4717,23,-43,-19,17
488,17264,6,-3404,-4714,23,-43,-19,17
489,17274,14,-3408,-4713,23,-44,-19,17
490,17276,4,-3414,-4713,23,-43,-19,17
491,17276,6,-3408,-4714,23,-43,-19,17
492,17284,14,-3406,-4714,23,-43,-19,17
493,17286,10,-3400,-4715,23,-43,-19,17
494,17282,18,-3402,-4715,23,-43,-19,17
495,17282,16,-3394,-4715,23,-43,-19,17
496,17266,24,-3402,-4715,23,-43,-19,17
497,17260,28,-3414,-4715,23,-43,-19,17
498,17260,24,-3414,-4716,23,-43,-19,17
499,17264,22,-3408,-4715,23,-43,-19,17
500,17262,10,-3400,-4713,23,-43,-19,17
501,17266,4,-3406,-4713,23,-43,-19,17
502,17268,2,-3398,-4714,23,-43,-19,17
503,17282,8,-3406,-4713,23,-43,-19,17
504,17286,12,-3402,-4714,23,-43,-19,17
505,17280,12,-3414,-4714,23,-43,-19,17
506,17278,12,-3408,-4713,23,-43,-19,17
507,17280,24,-3416,-4713,23,-43,-19,17
508,17266,20,-3426,-4711,23,-43,-19,17
509,17268,16,-3434,-4710,23,-43,-19,17
510,17266,12,-3430,-4712,23,-43,-19,17
511,17270,14,-3422,-4711,23,-43,-19,17
512,17262,10,-3440,-4712,23,-43,-19,17
513,17258,6,-3430,-4714,23,-43,-19,17
514,17264,18,-3430,-4714,23,-43,-19,17
515,17270,10,-3440,-4715,23,-43,-19,16
516,17266,8,-3418,-4714,23,-43,-19,17
517,17266,16,-3412,-4714,23,-43,-19,17
518,17268,16,-3416,-4715,23,-43,-20,17
519,17266,4,-3422,-4716,23,-44,-19,17
520,17266,8,-3420,-4715,23,-44,-19,17
521,17274,2,-3424,-4714,23,-44,-19,17
522,17268,10,-3418,-4714,23,-44,-19,17
523,17266,16,-3420,-4713,23,-44,-19,17
524,17254,16,-3436,-4713,23,-44,-19,17
525,17262,24,-3446,-4714,23,-43,-19,17
526,17264,30,-3448,-4713,23,-43,-20,17
527,17264,28,-3452,-4715,23,-43,-20,17
528,17264,20,-3446,-4714,23,-43,-20,17
529,17264,18,-3434,-4715,23,-43,-20,17
530,17260,16,-3416,-4714,23,-43,-20,17
531,17264,10,-3418,-4714,23,-43,-20,17
532,17262,10,-3416,-4716,23,-43,-19,17
533,17264,10,-3404,-4717,23,-43,-19,17
534,17272,8,-3406,-4717,23,-43,-19,17
535,17284,12,-3412,-4716,23,-43,-19,17
536,17270,14,-3412,-4716,23,-44,-19,17
537,17266,10,-3420,-4718,23,-44,-19,17
538,17260,2,-3414,-4717,23,-43,-19,17
539,17266,0,-3434,-4718,23,-43,-19,17
540,17258,10,-3428,-4719,23,-43,-20,17
541,17268,18,-3434,-4718,23,-43,-20,17
542,17272,10,-3440,-4717,23,-43,-20,17
543,17264,8,-3428,-4717,23,-43,-20,17
544,17260,14,-3436,-4718,23,-43,-19,17
545,17268,16,-3432,-4718,23,-43,-19,17
546,17258,10,-3432,-4719,23,-43,-19,17
547,17266,12,-3424,-4718,23,-44,-20,17
548,17270,18,-3424,-4717,23,-44,-20,17
549,17276,16,-3440,-4717,23,-44,-20,17
550,17280,16,-3430,-4715,23,-44,-19,17
551,17276,20,-3424,-4716,23,-44,-19,17
552,17272,28,-3430,-4715,23,-44,-20,17
553,17274,22,-3428,-4717,23,-44,-19,17
554,17268,18,-3422,-4717,23,-44,-19,17
555,17268,16,-3418,-4717,23,-44,-19,17
556,17268,18,-3418,-4716,23,-44,-19,17
557,17268,20,-3420,-4715,23,-44,-19,17
558,17280,18,-3418,-4715,23,-43,-19,17
559,17280,14,-3414,-4714,23,-43,-19,17
560,17270,20,-3422,-4714,23,-43,-19,17
561,17284,18,-3408,-4714,23,-43,-19,17
562,17284,30,-3416,-4715,23,-44,-19,17
563,17284,24,-3402,-4715,23,-43,-19,17
564,17276,22,-3422,-4716,23,-44,-19,17
565,17274,22,-3428,-4716,23,-43,-19,17
566,17278,18,-3440,-4714,23,-44,-19,17
567,17282,16,-3440,-4714,23,-43,-19,17
568,17282,8,-3436,-4715,23,-44,-19,17
569,17274,-2,-3440,-4715,23,-43,-19,17
570,17276,0,-3432,-4718,23,-43,-20,17
571,17282,-4,-3430,-4718,23,-43,-19,17
572,17286,2,-3420,-4717,23,-43,-19,17
573,17290,8,-3410,-4715,23,-43,-19,17
574,17288,8,-3416,-4715,23,-43,-19,17
575,17284,14,-3424,-4714,23,-43,-19,17
576,17288,18,-3422,-4712,23,-43,-19,17
577,17284,12,-3422,-4712,23,-43,-19,17
578,17278,8,-3436,-4712,23,-43,-19,17
579,17284,8,-3430,-4714,23,-43,-19,17
580,17286,8,-3416,-4712,23,-43,-19,17
581,17284,4,-3428,-4712,23,-44,-19,17
582,17288,10,-3430,-4713,23,-43,-19,17
583,17278,10,-3438,-4714,23,-43,-19,17
584,17276,14,-3432,-4714,23,-43,-19,17
585,17280,22,-3434,-4714,23,-43,-19,17
586,17272,20,-3428,-4715,23,-43,-19,17
587,17272,24,-3412,-4715,23,-44,-19,17
588,17270,18,-3422,-4715,23,-44,-19,17
589,17274,12,-3424,-4715,23,-44,-19,17
590,17274,6,-3430,-4715,23,-44,-19,17
591,17272,2,-3436,-4714,23,-44,-19,17
592,17272,2,-3438,-4716,23,-44,-19,17
593,17282,8,-3440,-4717,23,-44,-19,17
594,17280,14,-3432,-4716,23,-44,-19,17
595,17276,10,-3446,-4716,23,-43,-19,17
596,17282,12,-3448,-4716,23,-43,-19,17
597,17278,16,-3420,-4717,23,-44,-19,17
598,17276,12,-3428,-4719,23,-44,-19,17
599,17276,20,-3442,-4718,23,-44,-19,17
600,17284,20,-3428,-4716,23,-44,-19,17
601,17280,16,-3428,-4715,23,-44,-19,17
602,17274,16,-3432,-4713,23,-44,-19,17
603,17280,10,-3440,-4713,23,-44,-20,17
604,17284,0,-3450,-4713,23,-43,-20,17
605,17290,-4,-3444,-4712,23,-44,-19,17
606,17292,2,-3440,-4712,23,-44,-19,17
607,17286,0,-3446,-4712,23,-44,-19,17
608,17284,8,-3442,-4712,23,-44,-19,17
609,17288,4,-3444,-4713,23,-43,-19,17
610,17290,10,-3438,-4714,23,-43,-19,17
611,17288,2,-3434,-4714,23,-43,-19,17
612,17282,2,-3422,-4713,23,-43,-19,17
613,17266,12,-3424,-4713,23,-43,-19,17
614,17262,18,-3418,-4713,23,-43,-19,17
615,17270,20,-3424,-4713,23,-43,-19,17
616,17266,20,-3404,-4713,23,-43,-19,17
617,17272,18,-3412,-4715,23,-43,-19,17
618,17274,18,-3402,-4716,23,-44,-19,17
619,17266,24,-3414,-4716,23,-43,-19,17
620,17278,12,-3424,-4715,23,-43,-20,17
621,17272,4,-3426,-4714,23,-43,-20,17
622,17276,14,-3442,-4715,23,-43,-20,17
623,17280,12,-3438,-4714,23,-43,-19,17
624,17268,14,-3434,-4716,23,-43,-19,17
625,17262,4,-3426,-4717,23,-43,-19,17
626,17262,10,-3436,-4716,23,-43,-19,17
627,17274,12,-3416,-4718,23,-43,-20,17
628,17270,18,-3432,-4717,23,-43,-20,17
629,17274,14,-3420,-4716,23,-43,-20,17
630,17274,22,-3436,-4717,23,-43,-20,17
631,17274,28,-3440,-4716,23,-44,-20,17
632,17288,24,-3450,-4714,23,-44,-19,17
633,17292,34,-3442,-4714,23,-44,-19,17
634,17286,30,-3444,-4715,23,-43,-19,17
635,17278,24,-3430,-4714,23,-43,-19,17
636,17278,26,-3430,-4713,23,-43,-19,17
637,17268,26,-3440,-4713,23,-43,-19,17
638,17280,32,-3446,-4712,23,-43,-19,17
639,17276,28,-3452,-4712,23,-44,-19,17
640,17276,26,-3446,-4712,23,-44,-19,17
641,17282,18,-3428,-4714,23,-44,-19,17
642,17284,14,-3432,-4715,23,-44,-19,17
643,17276,8,-3430,-4714,23,-44,-19,17
644,17278,14,-3436,-4714,23,-43,-19,17
645,17274,16,-3434,-4714,23,-43,-19,17
646,17270,20,-3424,-4716,23,-44,-19,17
647,17266,12,-3434,-4717,23,-44,-19,16
648,17264,2,-3430,-4716,23,-43,-19,17
649,17270,4,-3430,-4717,23,-44,-19,17
650,17272,16,-3434,-4716,23,-44,-19,17
651,17262,10,-3438,-4715,23,-44,-19,17
652,17266,10,-3428,-4714,23,-44,-19,17
653,17264,22,-3424,-4715,23,-44,-20,17
654,17278,20,-3422,-4716,23,-44,-19,17
655,17278,28,-3410,-4716,23,-44,-20,17
656,17278,32,-3424,-4716,23,-44,-20,17
657,17274,28,-3422,-4715,23,-44,-20,17
658,17268,22,-3432,-4715,23,-43,-19,17
659,17272,16,-3440,-4716,23,-43,-19,17
660,17286,20,-3450,-4715,23,-43,-19,17
661,17280,12,-3444,-4715,23,-43,-19,17
662,17270,12,-3432,-4715,23,-43,-19,17
663,17272,24,-3428,-4715,23,-43,-19,17
664,17272,22,-3416,-4716,23,-43,-19,17
665,17266,26,-3424,-4714,23,-43,-19,17
666,17262,32,-3432,-4716,23,-44,-19,17
667,17262,32,-3432,-4716,23,-44,-19,17
668,17268,32,-3450,-4716,23,-44,-19,17
669,17264,32,-3440,-4714,23,-44,-19,17
670,17270,36,-3442,-4715,23,-44,-19,17
671,17274,30,-3430,-4714,23,-44,-19,17
672,17274,32,-3418,-4712,23,-44,-20,16
673,17266,28,-3416,-4713,23,-43,-20,17
674,17264,16,-3428,-4714,23,-43,-20,17
675,17270,14,-3438,-4712,23,-44,-20,17
676,17270,12,-3444,-4713,23,-43,-20,17
677,17270,12,-3434,-4713,23,-43,-20,17
678,17278,14,-3438,-4715,23,-44,-20,17
679,17270,8,-3440,-4715,23,-44,-20,17
680,17266,20,-3440,-4714,23,-44,-20,17
681,17252,22,-3428,-4714,23,-44,-20,17
682,17262,26,-3434,-4715,23,-44,-19,17
683,17264,30,-3434,-4715,23,-44,-19,17
684,17258,36,-3444,-4716,23,-44,-19,17
685,17262,36,-3440,-4714,23,-43,-20,17
686,17270,30,-3428,-4713,23,-43,-19,17
687,17270,24,-3440,-4711,23,-43,-19,17
688,17262,26,-3432,-4711,23,-43,-19,17
689,17262,24,-3430,-4711,23,-43,-19,17
690,17266,20,-3428,-4710,23,-43,-19,17
691,17268,24,-3444,-4710,23,-43,-19,17
692,17270,18,-3438,-4711,23,-43,-19,17
693,17270,16,-3438,-4714,23,-43,-19,17
694,17276,20,-3442,-4716,23,-44,-19,17
695,17280,16,-3436,-4716,23,-43,-19,17
696,17276,22,-3428,-4716,23,-43,-19,17
697,17272,22,-3424,-4717,23,-43,-19,17
698,17278,32,-3422,-4716,23,-43,-20,17
699,17284,22,-3424,-4715,23,-43,-20,17
700,17276,28,-3420,-4714,23,-43,-19,17
701,17278,26,-3426,-4714,23,-43,-20,17
702,17282,18,-3422,-4715,23,-43,-20,17
703,17286,12,-3436,-4717,23,-43,-20,17
704,17278,10,-3440,-4718,23,-43,-19,17
705,17276,10,-3438,-4717,23,-44,-20,17
706,17280,12,-3432,-4715,23,-43,-20,17
707,17272,4,-3444,-4715,23,-43,-20,17
708,17270,8,-3438,-4714,23,-44,-20,17
709,17270,10,-3434,-4714,23,-44,-19,17
710,17266,10,-3434,-4715,23,-43,-20,17
711,17262,24,-3416,-4716,23,-43,-20,17
712,17254,22,-3404,-4716,23,-44,-20,17
713,17254,32,-3396,-4716,23,-44,-20,17
714,17254,30,-3408,-4716,23,-43,-20,16
715,17264,30,-3414,-4715,23,-43,-20,16
716,17264,30,-3420,-4715,23,-43,-20,16
717,17268,34,-3416,-4714,23,-43,-20,17
718,17270,20,-3420,-4713,23,-43,-20,16
719,17270,18,-3426,-4713,23,-44,-20,16
720,17268,24,-3432,-4710,23,-44,-20,17
721,17270,26,-3444,-4709,23,-44,-20,17
722,17278,26,-3424,-4709,23,-44,-20,17
723,17284,16,-3428,-4710,23,-44,-20,17
724,17284,10,-3434,-4712,23,-44,-20,17
725,17282,10,-3438,-4713,23,-44,-20,17
726,17280,-2,-3444,-4714,23,-44,-20,17
727,17270,-2,-3442,-4713,23,-44,-19,17
728,17262,4,-3416,-4712,23,-44,-19,17
729,17260,2,-3410,-4711,23,-44,-19,17
730,17260,-6,-3412,-4711,23,-44,-19,17
731,17268,-10,-3416,-4711,23,-44,-19,18
732,17268,-2,-3400,-4711,23,-44,-19,17
733,17268,4,-3406,-4713,23,-43,-19,17
734,17268,8,-3404,-4712,23,-44,-19,17
735,17268,6,-3408,-4714,23,-43,-19,17
736,17260,0,-3402,-4716,23,-44,-19,17
737,17258,0,-3418,-4716,23,-44,-19,17
738,17256,2,-3432,-4716,23,-44,-19,17
739,17254,-4,-3434,-4715,23,-43,-19,17
740,17254,2,-3424,-4715,23,-44,-19,17
741,17260,-2,-3446,-4714,23,-44,-19,17
742,17264,2,-3428,-4713,23,-44,-19,17
743,17272,14,-3438,-4714,23,-44,-19,17
744,17276,22,-3432,-4713,23,-44,-19,17
745,17282,16,-3424,-4714,23,-44,-19,17
746,17282,6,-3422,-4715,23,-44,-19,17
747,17268,-4,-3420,-4712,23,-44,-19,17
748,17274,8,-3418,-4711,23,-44,-19,17
749,17280,10,-3410,-4711,23,-44,-19,17
750,17270,4,-3416,-4712,23,-44,-19,17
751,17260,4,-3416,-4713,23,-43,-19,17
752,17264,4,-3410,-4714,23,-43,-19,17
753,17270,6,-3404,-4712,23,-44,-19,17
754,17258,12,-3416,-4712,23,-44,-19,17
755,17266,4,-3434,-4712,23,-44,-19,17
756,17260,2,-3426,-4712,23,-44,-19,17
757,17260,8,-3422,-4714,23,-44,-19,17
758,17268,2,-3430,-4716,23,-44,-19,17
759,17270,0,-3424,-4715,23,-44,-19,17
760,17270,0,-3440,-4717,23,-44,-19,17
761,17278,4,-3426,-4717,23,-44,-19,17
762,17274,8,-3418,-4717,23,-44,-19,17
763,17284,0,-3430,-4716,23,-43,-19,17
764,17278,-6,-3434,-4715,23,-43,-19,17
765,17278,2,-3432,-4715,23,-43,-19,17
766,17272,8,-3424,-4714,23,-44,-19,17
767,17268,14,-3416,-4714,23,-44,-19,17
768,17274,10,-3416,-4714,23,-43,-20,17
769,17270,6,-3416,-4715,23,-43,-19,17
770,17264,8,-3426,-4715,23,-43,-19,17
771,17258,-2,-3412,-4715,23,-43,-19,17
772,17272,2,-3404,-4713,23,-43,-20,17
773,17266,8,-3402,-4711,23,-43,-19,17
774,17268,6,-3400,-4714,23,-43,-19,17
775,17274,4,-3380,-4713,23,-43,-19,17
776,17276,-6,-3382,-4713,23,-43,-19,17
777,17272,0,-3400,-4713,23,-43,-20,17
778,17274,-2,-3412,-4713,23,-43,-20,17
779,17290,12,-3412,-4712,23,-43,-19,17
780,17284,18,-3398,-4713,23,-43,-19,17
781,17278,20,-3412,-4711,23,-43,-19,17
782,17278,18,-3410,-4713,23,-43,-19,17
783,17278,18,-3412,-4714,23,-43,-19,17
784,17280,16,-3412,-4714,23,-43,-19,17
785,17282,10,-3424,-4713,23,-43,-19,17
786,17276,18,-3428,-4711,23,-43,-19,17
787,17272,12,-3440,-4712,23,-44,-19,17
788,17276,10,-3442,-4713,23,-43,-19,17
789,17268,16,-3444,-4712,23,-43,-19,17
790,17266,10,-3444,-4712,23,-43,-19,17
791,17268,10,-3434,-4713,23,-43,-19,17
792,17274,0,-3436,-4713,23,-43,-19,17
793,17278,-2,-3436,-4714,23,-43,-19,17
794,17274,-4,-3444,-4713,23,-43,-19,17
795,17270,-10,-3436,-4712,23,-44,-19,17
796,17270,-4,-3424,-4713,23,-44,-19,17
797,17266,2,-3424,-4713,23,-43,-19,17
798,17268,6,-3420,-4714,23,-43,-19,17
799,17264,18,-3426,-4713,23,-44,-19,17
800,17270,18,-3428,-4714,23,-44,-19,17
801,17278,18,-3428,-4714,23,-43,-19,17
802,17272,12,-3418,-4715,23,-43,-20,17
803,17266,8,-3426,-4713,23,-44,-19,17
804,17270,8,-3434,-4713,23,-44,-19,17
805,17270,2,-3440,-4712,23,-44,-19,17
806,17270,10,-3440,-4712,23,-43,-19,17
807,17268,18,-3418,-4713,23,-43,-19,17
808,17272,26,-3426,-4710,23,-43,-19,17
809,17274,20,-3432,-4709,23,-44,-19,17
810,17278,18,-3420,-4709,23,-43,-19,17
811,17282,16,-3410,-4709,23,-43,-19,17
812,17276,12,-3424,-4709,23,-43,-19,17
813,17280,10,-3430,-4710,23,-43,-19,17
814,17290,16,-3426,-4709,23,-44,-19,17
815,17288,16,-3424,-4709,23,-44,-19,17
816,17282,20,-3420,-4710,23,-44,-19,17
817,17278,22,-3410,-4711,23,-44,-20,17
818,17282,20,-3422,-4712,23,-44,-19,17
819,17276,24,-3424,-4714,23,-44,-19,17
820,17272,20,-3416,-4713,23,-44,-19,17
821,17270,24,-3422,-4713,23,-43,-20,17
822,17274,22,-3418,-4713,23,-43,-19,17
823,17274,32,-3412,-4712,23,-43,-19,17
824,17274,22,-3412,-4712,23,-44,-19,17
825,17264,18,-3414,-4713,23,-44,-19,17
826,17264,18,-3408,-4713,23,-44,-19,17
827,17268,20,-3412,-4712,23,-44,-19,17
828,17264,22,-3410,-4712,23,-44,-19,17
829,17268,26,-3398,-4711,23,-44,-19,17
830,17262,28,-3420,-4710,23,-44,-19,17
831,17266,26,-3430,-4710,23,-44,-19,17
832,17264,18,-3420,-4708,23,-44,-19,17
833,17264,26,-3424,-4708,23,-44,-19,17
834,17264,28,-3426,-4709,23,-44,-19,17
835,17262,20,-3432,-4708,23,-44,-19,17
836,17258,20,-3436,-4711,23,-44,-19,17
837,17252,2,-3432,-4713,23,-44,-19,17
838,17260,12,-3422,-4712,23,-44,-19,17
839,17266,18,-3414,-4711,23,-44,-19,17
840,17274,20,-3398,-4713,23,-44,-19,17
841,17274,20,-3406,-4713,23,-44,-19,17
842,17268,16,-3416,-4711,23,-44,-19,17
843,17266,20,-3428,-4711,23,-43,-19,17
844,17266,26,-3436,-4713,23,-43,-19,17
845,17264,28,-3438,-4714,23,-43,-19,17
846,17256,30,-3436,-4716,23,-43,-19,17
847,17270,34,-3410,-4716,23,-43,-19,17
848,17276,22,-3418,-4713,23,-44,-19,17
849,17272,24,-3412,-4712,23,-44,-20,17
850,17278,20,-3408,-4714,23,-43,-19,17
851,17282,18,-3398,-4714,23,-43,-19,17
852,17272,4,-3410,-4714,23,-43,-19,17
853,17266,8,-3414,-4714,23,-43,-19,17
854,17258,12,-3406,-4714,23,-43,-19,17
855,17260,16,-3406,-4713,23,-43,-20,17
856,17272,16,-3400,-4714,23,-43,-19,17
857,17266,14,-3408,-4716,23,-43,-19,17
858,17268,16,-3416,-4715,23,-43,-20,17
859,17276,26,-3432,-4716,23,-43,-19,17
860,17270,26,-3430,-4713,23,-43,-20,17
861,17278,18,-3422,-4713,23,-43,-20,17
862,17272,12,-3426,-4714,23,-43,-20,17
863,17274,6,-3436,-4714,23,-43,-19,17
864,17282,6,-3434,-4713,23,-43,-19,17
865,17290,10,-3414,-4712,23,-43,-19,16
866,17286,8,-3420,-4710,23,-43,-19,17
867,17290,16,-3418,-4711,23,-43,-20,17
868,17284,0,-3420,-4711,23,-43,-20,17
869,17280,4,-3424,-4710,23,-43,-20,17
870,17274,6,-3428,-4710,23,-43,-20,16
871,17278,4,-3430,-4711,23,-43,-20,16
872,17280,8,-3428,-4710,23,-44,-20,17
873,17274,14,-3434,-4710,23,-43,-20,17
874,17274,16,-3446,-4711,23,-43,-20,17
875,17272,16,-3442,-4711,23,-43,-20,17
876,17278,18,-3440,-4712,23,-43,-20,17
877,17278,16,-3424,-4711,23,-43,-20,17
878,17280,18,-3420,-4710,23,-44,-20,17
879,17278,8,-3418,-4709,23,-44,-19,17
880,17288,6,-3414,-4709,23,-44,-19,17
881,17282,10,-3418,-4708,23,-44,-19,17
882,17274,12,-3428,-4708,23,-44,-19,17
883,17266,0,-3432,-4708,23,-43,-19,17
884,17260,4,-3424,-4708,23,-43,-19,17
885,17260,2,-3414,-4709,23,-44,-19,17
886,17260,6,-3406,-4711,23,-44,-20,17
887,17260,12,-3410,-4710,23,-44,-19,17
888,17262,16,-3420,-4708,23,-44,-19,17
889,17272,14,-3428,-4710,23,-44,-19,17
890,17274,4,-3440,-4711,23,-44,-19,17
891,17270,10,-3434,-4709,23,-43,-19,17
892,17274,12,-3416,-4710,23,-43,-19,17
893,17272,24,-3414,-4709,23,-44,-19,17
894,17266,18,-3422,-4710,23,-44,-19,17
895,17268,14,-3428,-4711,23,-44,-19,17
896,17274,4,-3430,-4710,23,-43,-19,17
897,17270,6,-3430,-4707,23,-43,-19,17
898,17268,18,-3436,-4707,23,-43,-19,17
899,17264,26,-3428,-4708,23,-43,-19,17
900,17266,28,-3438,-4708,23,-44,-20,17
901,17268,16,-3446,-4709,23,-44,-19,17
902,17262,6,-3450,-4710,23,-44,-19,17
903,17266,0,-3448,-4711,23,-43,-19,17
904,17276,12,-3428,-4710,23,-43,-19,17
905,17286,2,-3424,-4710,23,-43,-19,17
906,17282,10,-3404,-4710,23,-43,-19,17
907,17284,12,-3412,-4709,23,-43,-19,17
908,17276,10,-3402,-4710,23,-43,-19,17
909,17276,16,-3402,-4711,23,-43,-20,17
910,17278,18,-3404,-4711,23,-43,-19,17
911,17272,18,-3406,-4713,23,-43,-19,17
912,17278,4,-3410,-4712,23,-43,-20,17
913,17282,4,-3416,-4712,23,-43,-19,17
914,17272,12,-3432,-4713,23,-43,-19,17
915,17268,20,-3434,-4712,23,-43,-19,17
916,17264,16,-3440,-4713,23,-43,-19,17
917,17266,8,-3440,-4712,23,-43,-19,17
918,17250,2,-3432,-4712,23,-43,-19,17
919,17254,-4,-3414,-4712,23,-43,-19,17
920,17264,-8,-3426,-4712,23,-43,-19,17
921,17266,-4,-3434,-4713,23,-43,-19,17
922,17272,-6,-3424,-4712,23,-44,-19,17
923,17276,-2,-3434,-4712,23,-44,-19,17
924,17276,0,-3438,-4711,23,-43,-19,17
925,17270,6,-3434,-4710,23,-43,-19,17
926,17266,0,-3428,-4710,23,-44,-20,17
927,17268,10,-3438,-4710,23,-44,-20,17
928,17264,4,-3436,-4710,23,-44,-20,17
929,17260,2,-3420,-4709,23,-44,-20,17
930,17264,0,-3408,-4711,23,-44,-20,17
931,17270,2,-3422,-4710,23,-44,-20,17
932,17274,2,-3424,-4708,23,-43,-19,17
933,17270,10,-3426,-4708,23,-43,-19,17
934,17278,14,-3422,-4709,23,-43,-19,17
935,17278,12,-3438,-4709,23,-43,-20,17
936,17272,18,-3430,-4708,23,-44,-19,17
937,17274,22,-3426,-4707,23,-44,-19,17
938,17280,14,-3424,-4707,23,-44,-19,17
939,17274,18,-3410,-4708,23,-44,-19,17
940,17280,16,-3388,-4709,23,-44,-19,17
941,17266,16,-3386,-4710,23,-43,-20,18
942,17264,16,-3400,-4709,23,-43,-20,17
943,17268,12,-3400,-4708,23,-44,-20,17
944,17276,18,-3400,-4708,23,-44,-20,17
945,17286,24,-3408,-4707,23,-44,-19,17
946,17276,22,-3416,-4708,23,-44,-20,17
947,17286,16,-3410,-4708,23,-43,-19,17
948,17280,10,-3414,-4707,23,-44,-19,17
949,17282,12,-3432,-4708,23,-44,-19,17
950,17274,6,-3426,-4708,23,-44,-19,17
951,17276,2,-3418,-4707,23,-44,-19,17
952,17280,12,-3420,-4707,23,-44,-19,17
953,17278,14,-3418,-4707,23,-44,-19,17
954,17282,12,-3428,-4707,23,-44,-19,17
955,17294,16,-3432,-4708,23,-43,-19,17
956,17290,6,-3434,-4707,23,-43,-19,17
957,17290,14,-3432,-4707,23,-44,-19,17
958,17288,14,-3430,-4709,23,-44,-19,17
959,17284,16,-3434,-4709,23,-44,-19,17
960,17288,16,-3448,-4709,23,-44,-19,17
961,17288,18,-3430,-4709,23,-44,-19,17
962,17282,26,-3422,-4710,23,-44,-19,17
963,17286,28,-3406,-4710,23,-44,-19,17
964,17296,24,-3410,-4709,23,-43,-19,17
965,17296,24,-3406,-4711,23,-44,-19,16
966,17300,26,-3398,-4711,23,-43,-19,17
967,17290,20,-3408,-4710,23,-43,-19,17
968,17288,36,-3408,-4710,23,-43,-19,17
969,17294,28,-3398,-4710,23,-43,-19,17
970,17282,12,-3404,-4711,23,-43,-19,17
971,17280,18,-3430,-4710,23,-44,-19,17
972,17278,32,-3428,-4709,23,-44,-19,17
973,17280,34,-3418,-4710,23,-44,-19,17
974,17274,30,-3410,-4709,23,-44,-19,17
975,17272,26,-3408,-4709,23,-44,-19,17
976,17274,24,-3410,-4710,23,-43,-19,17
977,17270,12,-3420,-4710,23,-43,-19,17
978,17260,12,-3432,-4710,23,-44,-19,17
979,17266,22,-3438,-4712,23,-44,-19,17
980,17270,12,-3430,-4712,23,-44,-19,17
981,17274,18,-3414,-4712,23,-43,-19,17
982,17276,8,-3394,-4712,23,-44,-19,17
983,17282,14,-3394,-4710,23,-44,-19,17
984,17266,20,-3404,-4709,23,-44,-19,17
985,17268,32,-3418,-4710,23,-44,-19,17
986,17280,22,-3416,-4709,23,-43,-19,17
987,17282,16,-3406,-4708,23,-44,-19,17
988,17276,22,-3412,-4709,23,-43,-19,17
989,17276,20,-3414,-4709,23,-44,-19,17
990,17270,22,-3398,-4708,23,-43,-19,17
991,17272,16,-3404,-4707,23,-44,-19,17
992,17272,16,-3402,-4707,23,-43,-20,17
993,17262,14,-3410,-4709,23,-44,-20,17
994,17264,12,-3408,-4709,23,-44,-19,17
995,17270,18,-3412,-4708,23,-43,-19,17
996,17264,20,-3422,-4709,23,-44,-19,17
997,17262,16,-3434,-4709,23,-44,-20,17
998,17272,14,-3426,-4710,23,-44,-20,17
