,acc_X,acc_Y,acc_Z,temp,tempC,gyr_X,gyr_Y,gyr_Z
0,8636,13,-1704,-4741,23,-173,-74,69
1,8639,11,-1697,-4742,23,-171,-73,67
2,8649,17,-1725,-4744,23,-174,-78,68
3,8641,8,-1699,-4751,23,-171,-75,70
4,8647,27,-1712,-4744,23,-174,-74,70
5,8635,26,-1720,-4741,23,-174,-75,73
6,8653,9,-1731,-4745,23,-174,-80,73
7,8629,13,-1728,-4746,23,-173,-77,68
8,8624,17,-1720,-4743,23,-170,-79,70
9,8642,11,-1702,-4743,23,-170,-77,70
10,8641,12,-1693,-4740,23,-170,-74,68
11,8641,10,-1692,-4744,23,-169,-70,67
12,8633,4,-1711,-4747,23,-173,-75,72
13,8636,19,-1712,-4751,23,-170,-73,70
14,8633,5,-1725,-4751,23,-175,-73,73
15,8626,18,-1711,-4747,23,-175,-73,72
16,8631,3,-1719,-4748,23,-176,-73,73
17,8635,17,-1705,-4747,23,-175,-74,71
18,8624,15,-1698,-4745,23,-174,-74,72
19,8620,13,-1712,-4744,23,-175,-75,69
20,8636,-6,-1728,-4742,23,-171,-75,68
21,8632,17,-1729,-4746,23,-172,-78,69
22,8635,17,-1742,-4750,23,-174,-75,69
23,8630,16,-1717,-4747,23,-174,-73,73
24,8635,4,-1717,-4748,23,-174,-76,71
25,8634,5,-1709,-4747,23,-176,-76,72
26,8637,17,-1700,-4746,23,-172,-76,71
27,8634,3,-1691,-4750,23,-173,-76,67
28,8632,3,-1711,-4751,23,-171,-72,71
29,8630,7,-1730,-4748,23,-172,-73,67
30,8626,-4,-1736,-4739,23,-171,-71,69
31,8623,-2,-1730,-4739,23,-179,-76,72
32,8627,3,-1730,-4741,23,-176,-75,69
33,8641,5,-1734,-4743,23,-172,-76,71
34,8643,17,-1737,-4745,23,-173,-74,72
35,8629,9,-1725,-4743,23,-173,-73,72
36,8643,1,-1723,-4745,23,-174,-76,74
37,8632,3,-1726,-4742,23,-170,-74,68
38,8649,6,-1710,-4744,23,-174,-76,71
39,8642,16,-1686,-4741,23,-176,-78,70
40,8667,6,-1695,-4743,23,-179,-80,69
41,8654,4,-1678,-4744,23,-171,-77,71
42,8652,10,-1687,-4747,23,-173,-76,68
43,8632,16,-1716,-4746,23,-170,-78,69
44,8652,16,-1702,-4754,23,-172,-77,69
45,8643,42,-1697,-4745,23,-174,-74,71
46,8641,14,-1716,-4748,23,-173,-77,67
47,8644,8,-1736,-4743,23,-173,-74,67
48,8636,-6,-1718,-4743,23,-174,-76,69
49,8625,-12,-1708,-4745,23,-173,-73,68
50,8627,4,-1717,-4745,23,-174,-73,69
51,8633,1,-1711,-4744,23,-175,-72,70
52,8640,7,-1719,-4746,23,-171,-75,68
53,8635,11,-1734,-4749,23,-175,-80,68
54,8628,-1,-1711,-4748,23,-175,-78,71
55,8618,-2,-1704,-4747,23,-177,-79,66
56,8642,2,-1729,-4746,23,-175,-77,68
57,8629,9,-1718,-4746,23,-171,-79,72
58,8640,7,-1732,-4747,23,-173,-80,68
59,8629,8,-1709,-4745,23,-174,-73,66
60,8635,17,-1714,-4750,23,-170,-70,67
61,8637,10,-1705,-4751,23,-170,-72,66
62,8643,-2,-1723,-4751,23,-172,-76,69
63,8641,0,-1713,-4750,23,-171,-76,69
64,8640,17,-1721,-4747,23,-176,-73,71
65,8625,0,-1728,-4748,23,-172,-78,70
66,8627,-2,-1718,-4742,23,-173,-76,69
67,8638,-1,-1710,-4744,23,-175,-76,69
68,8632,19,-1733,-4746,23,-171,-80,67
69,8640,-1,-1729,-4742,23,-171,-78,70
70,8636,9,-1733,-4745,23,-176,-74,69
71,8625,1,-1729,-4748,23,-175,-74,69
72,8625,7,-1720,-4750,23,-173,-74,71
73,8628,14,-1723,-4745,23,-171,-77,70
74,8621,24,-1712,-4746,23,-171,-75,69
75,8631,15,-1714,-4745,23,-172,-75,70
76,8643,10,-1721,-4742,23,-171,-75,70
77,8639,30,-1718,-4744,23,-172,-77,66
78,8635,23,-1737,-4743,23,-170,-75,65
79,8636,26,-1724,-4744,23,-172,-72,70
80,8654,14,-1723,-4742,23,-175,-74,68
81,8648,15,-1728,-4741,23,-174,-76,70
82,8646,11,-1737,-4742,23,-170,-78,68
83,8625,7,-1723,-4748,23,-170,-76,72
84,8621,-5,-1720,-4745,23,-173,-73,72
85,8627,5,-1723,-4740,23,-171,-72,69
86,8621,4,-1725,-4741,23,-175,-74,68
87,8645,-5,-1712,-4742,23,-177,-78,66
88,8644,-7,-1706,-4745,23,-173,-77,70
89,8625,4,-1704,-4743,23,-175,-75,72
90,8626,7,-1708,-4738,23,-171,-72,70
91,8624,14,-1700,-4745,23,-171,-76,71
92,8634,19,-1696,-4742,23,-175,-74,71
93,8644,8,-1720,-4744,23,-171,-79,69
94,8642,14,-1725,-4744,23,-172,-77,70
95,8631,10,-1725,-4742,23,-175,-76,71
96,8641,10,-1725,-4742,23,-174,-79,68
97,8638,1,-1724,-4738,23,-173,-77,69
98,8623,9,-1743,-4740,23,-174,-80,68
99,8646,16,-1748,-4738,23,-174,-78,68
100,8646,8,-1732,-4743,23,-175,-78,68
101,8633,5,-1724,-4739,23,-174,-75,71
102,8643,11,-1711,-4742,23,-174,-77,70
103,8620,24,-1716,-4743,23,-174,-77,70
104,8621,14,-1710,-4738,23,-173,-72,67
105,8632,-5,-1698,-4738,23,-174,-76,69
106,8627,4,-1712,-4739,23,-175,-79,67
107,8639,-10,-1710,-4734,23,-174,-78,65
108,8649,6,-1704,-4741,23,-171,-77,65
109,8633,-1,-1716,-4740,23,-171,-78,73
110,8653,1,-1724,-4741,23,-169,-75,72
111,8646,14,-1722,-4741,23,-172,-76,72
112,8654,18,-1715,-4741,23,-174,-76,72
113,8652,4,-1698,-4742,23,-172,-78,70
114,8627,4,-1711,-4741,23,-172,-78,67
115,8635,-6,-1721,-4749,23,-172,-77,66
116,8634,6,-1736,-4748,23,-174,-72,67
117,8636,1,-1724,-4737,23,-170,-74,65
118,8645,9,-1733,-4741,23,-171,-78,65
119,8639,6,-1721,-4744,23,-169,-75,66
120,8639,4,-1707,-4740,23,-170,-73,67
121,8625,12,-1724,-4740,23,-172,-76,69
122,8633,13,-1723,-4742,23,-173,-78,71
123,8634,10,-1717,-4742,23,-174,-75,67
124,8623,10,-1732,-4739,23,-175,-73,69
125,8617,17,-1710,-4741,23,-173,-72,69
126,8617,6,-1718,-4739,23,-172,-78,66
127,8636,-2,-1699,-4745,23,-173,-74,65
128,8626,10,-1721,-4746,23,-171,-72,67
129,8633,9,-1715,-4745,23,-175,-72,67
130,8636,15,-1717,-4743,23,-171,-76,66
131,8636,9,-1727,-4747,23,-173,-76,70
132,8643,12,-1723,-4748,23,-168,-77,69
133,8636,5,-1739,-4746,23,-172,-76,71
134,8642,16,-1739,-4741,23,-174,-74,69
135,8649,13,-1749,-4741,23,-175,-74,67
136,8641,10,-1738,-4742,23,-174,-74,68
137,8628,3,-1723,-4742,23,-172,-74,71
138,8624,-1,-1717,-4744,23,-172,-74,70
139,8636,-4,-1713,-4745,23,-171,-74,71
140,8642,-3,-1718,-4745,23,-173,-72,69
141,8641,6,-1712,-4744,23,-174,-75,70
142,8642,-1,-1722,-4738,23,-169,-76,69
143,8638,15,-1692,-4737,23,-170,-72,70
144,8635,0,-1719,-4741,23,-172,-73,69
145,8639,2,-1722,-4741,23,-172,-71,68
146,8640,0,-1733,-4739,23,-172,-74,68
147,8636,6,-1708,-4746,23,-175,-75,65
148,8636,4,-1728,-4748,23,-175,-74,67
149,8642,16,-1710,-4745,23,-172,-72,68
150,8619,12,-1712,-4739,23,-173,-74,67
151,8638,17,-1722,-4738,23,-172,-76,71
152,8629,1,-1737,-4742,23,-175,-75,68
153,8639,15,-1717,-4741,23,-172,-76,70
154,8641,7,-1715,-4740,23,-172,-77,70
155,8650,11,-1706,-4739,23,-172,-76,70
156,8630,20,-1720,-4739,23,-171,-75,72
157,8615,14,-1723,-4741,23,-172,-78,72
158,8636,6,-1726,-4742,23,-176,-75,71
159,8619,4,-1725,-4738,23,-173,-72,67
160,8635,20,-1721,-4740,23,-175,-73,66
161,8633,9,-1725,-4740,23,-174,-75,66
162,8635,2,-1732,-4739,23,-170,-76,72
163,8632,-3,-1742,-4741,23,-170,-77,72
164,8634,5,-1726,-4738,23,-171,-77,69
165,8626,12,-1738,-4745,23,-175,-73,68
166,8635,5,-1720,-4740,23,-170,-76,68
167,8644,-6,-1711,-4742,23,-169,-76,65
168,8641,12,-1704,-4745,23,-172,-77,69
169,8644,12,-1724,-4742,23,-174,-75,67
170,8624,21,-1715,-4737,23,-172,-76,68
171,8618,18,-1720,-4743,23,-170,-76,68
172,8630,4,-1726,-4741,23,-173,-77,70
173,8631,2,-1704,-4738,23,-174,-76,69
174,8645,4,-1732,-4735,23,-173,-81,70
175,8652,7,-1742,-4734,23,-174,-80,68
176,8628,13,-1719,-4746,23,-175,-77,67
177,8638,11,-1715,-4742,23,-173,-78,67
178,8651,12,-1716,-4738,23,-174,-78,72
179,8641,-1,-1714,-4740,23,-177,-78,71
180,8639,9,-1708,-4744,23,-173,-73,74
181,8644,7,-1719,-4738,23,-172,-72,70
182,8643,6,-1701,-4735,23,-173,-76,70
183,8648,21,-1728,-4739,23,-173,-75,66
184,8631,22,-1704,-4739,23,-173,-76,69
185,8636,28,-1703,-4736,23,-171,-75,70
186,8638,35,-1715,-4740,23,-169,-79,70
187,8632,20,-1711,-4740,23,-176,-77,69
188,8618,15,-1743,-4739,23,-173,-73,65
189,8630,12,-1723,-4742,23,-173,-76,69
190,8628,10,-1711,-4740,23,-175,-75,70
191,8629,15,-1732,-4743,23,-174,-76,71
192,8644,0,-1712,-4744,23,-171,-77,68
193,8652,5,-1705,-4740,23,-169,-78,69
194,8638,6,-1714,-4747,23,-170,-79,67
195,8642,5,-1711,-4743,23,-173,-73,67
196,8646,5,-1730,-4741,23,-176,-75,70
197,8627,22,-1741,-4742,23,-176,-75,69
198,8629,26,-1720,-4740,23,-174,-75,73
199,8627,14,-1728,-4740,23,-175,-75,72
200,8630,25,-1724,-4738,23,-175,-71,73
201,8631,13,-1700,-4737,23,-173,-74,71
202,8632,18,-1702,-4737,23,-176,-77,69
203,8637,5,-1742,-4737,23,-174,-77,69
204,8641,18,-1743,-4738,23,-174,-76,68
205,8639,12,-1732,-4739,23,-170,-76,67
206,8640,15,-1737,-4735,23,-172,-73,66
207,8639,7,-1712,-4738,23,-171,-72,69
208,8639,-9,-1725,-4743,23,-171,-72,70
209,8645,1,-1734,-4742,23,-174,-74,73
210,8633,3,-1707,-4739,23,-174,-74,69
211,8640,2,-1705,-4739,23,-177,-76,69
212,8637,3,-1727,-4738,23,-174,-70,70
213,8629,15,-1702,-4739,23,-171,-72,69
214,8647,12,-1725,-4737,23,-169,-77,71
215,8646,9,-1728,-4734,23,-172,-75,72
216,8631,9,-1722,-4739,23,-172,-76,72
217,8632,10,-1732,-4735,23,-172,-74,66
218,8632,-4,-1723,-4739,23,-172,-71,67
219,8635,17,-1712,-4741,23,-173,-73,66
220,8635,13,-1722,-4739,23,-173,-74,68
221,8625,14,-1731,-4739,23,-174,-74,69
222,8633,18,-1731,-4739,23,-171,-70,65
223,8643,28,-1715,-4740,23,-171,-74,67
224,8634,15,-1698,-4742,23,-173,-74,69
225,8631,14,-1715,-4746,23,-175,-76,72
226,8629,2,-1717,-4741,23,-175,-73,69
227,8632,2,-1715,-4740,23,-174,-74,70
228,8636,9,-1727,-4739,23,-174,-77,69
229,8640,2,-1719,-4739,23,-173,-78,69
230,8621,1,-1703,-4734,23,-173,-75,71
231,8632,-7,-1712,-4737,23,-172,-76,69
232,8642,-6,-1723,-4731,23,-174,-81,67
233,8636,-4,-1720,-4735,23,-174,-78,70
234,8635,20,-1731,-4731,23,-173,-76,70
235,8636,21,-1704,-4737,23,-174,-79,71
236,8642,4,-1722,-4740,23,-175,-74,71
237,8640,1,-1727,-4743,23,-175,-77,72
238,8651,-10,-1721,-4735,23,-174,-74,70
239,8635,13,-1737,-4733,23,-171,-76,69
240,8634,-4,-1719,-4734,23,-175,-76,69
241,8635,7,-1703,-4740,23,-174,-75,71
242,8639,12,-1716,-4737,23,-172,-73,66
243,8630,11,-1720,-4732,23,-172,-77,68
244,8626,4,-1720,-4734,23,-177,-74,70
245,8631,2,-1712,-4739,23,-172,-76,71
246,8627,3,-1726,-4739,23,-170,-77,70
247,8628,8,-1717,-4742,23,-173,-78,71
248,8625,4,-1723,-4737,23,-175,-75,68
249,8614,0,-1740,-4737,23,-176,-75,68
250,8632,1,-1738,-4733,23,-172,-77,70
251,8639,0,-1735,-4740,23,-176,-78,68
252,8625,-7,-1716,-4741,23,-175,-76,70
253,8630,-11,-1722,-4740,23,-172,-77,67
254,8642,5,-1723,-4736,23,-172,-74,70
255,8643,6,-1701,-4741,23,-174,-71,69
256,8625,22,-1731,-4742,23,-173,-73,68
257,8630,24,-1724,-4740,23,-172,-77,67
258,8624,28,-1717,-4739,23,-173,-74,71
259,8636,13,-1713,-4739,23,-172,-77,72
260,8640,12,-1707,-4745,23,-169,-79,69
261,8638,2,-1706,-4743,23,-172,-75,68
262,8634,-6,-1709,-4744,23,-171,-80,67
263,8628,12,-1732,-4738,23,-174,-76,69
264,8641,-1,-1704,-4738,23,-173,-73,68
265,8652,0,-1721,-4741,23,-172,-74,68
266,8651,0,-1722,-4741,23,-170,-75,69
267,8622,11,-1719,-4741,23,-169,-76,70
268,8622,17,-1706,-4740,23,-172,-78,70
269,8638,3,-1706,-4746,23,-171,-77,70
270,8633,-1,-1711,-4743,23,-174,-77,69
271,8633,2,-1709,-4742,23,-172,-81,67
272,8637,16,-1719,-4742,23,-171,-76,71
273,8631,16,-1705,-4744,23,-172,-77,69
274,8627,11,-1735,-4743,23,-173,-78,69
275,8629,4,-1755,-4743,23,-176,-79,67
276,8629,8,-1715,-4744,23,-176,-75,69
277,8628,1,-1719,-4746,23,-174,-73,66
278,8627,1,-1701,-4741,23,-174,-74,71
279,8629,14,-1711,-4740,23,-171,-72,71
280,8633,15,-1718,-4744,23,-171,-74,67
281,8640,8,-1734,-4742,23,-171,-76,67
282,8637,15,-1721,-4747,23,-174,-75,70
283,8622,24,-1716,-4735,23,-172,-74,68
284,8635,5,-1705,-4733,23,-171,-73,67
285,8632,1,-1708,-4734,23,-173,-79,68
286,8627,11,-1698,-4740,23,-174,-73,68
287,8629,7,-1698,-4737,23,-175,-75,69
288,8647,6,-1711,-4739,23,-174,-74,67
289,8644,14,-1713,-4741,23,-173,-70,68
290,8626,8,-1714,-4739,23,-172,-76,69
291,8632,9,-1704,-4742,23,-176,-77,68
292,8617,22,-1717,-4744,23,-173,-79,71
293,8626,26,-1705,-4737,23,-173,-75,72
294,8632,13,-1691,-4734,23,-173,-75,67
295,8639,11,-1702,-4740,23,-172,-75,70
296,8644,17,-1724,-4741,23,-172,-77,71
297,8638,3,-1736,-4740,23,-170,-74,70
298,8627,13,-1755,-4734,23,-174,-75,71
299,8653,21,-1720,-4740,23,-174,-77,68
300,8632,14,-1705,-4742,23,-173,-76,69
301,8635,14,-1710,-4739,23,-172,-75,69
302,8627,-1,-1711,-4736,23,-175,-76,69
303,8626,-2,-1724,-4741,23,-178,-77,68
304,8633,6,-1738,-4736,23,-174,-74,68
305,8634,-4,-1720,-4742,23,-173,-77,71
306,8618,1,-1731,-4737,23,-174,-78,72
307,8636,4,-1701,-4736,23,-175,-75,73
308,8647,5,-1711,-4735,23,-177,-75,70
309,8644,0,-1711,-4735,23,-175,-75,69
310,8626,-5,-1748,-4739,23,-171,-76,70
311,8642,5,-1718,-4740,23,-173,-79,72
312,8641,2,-1716,-4732,23,-173,-75,68
313,8634,5,-1713,-4731,23,-173,-71,69
314,8629,10,-1708,-4738,23,-171,-74,67
315,8634,6,-1721,-4735,23,-175,-80,67
316,8618,13,-1706,-4740,23,-173,-80,66
317,8629,10,-1710,-4734,23,-170,-76,70
318,8627,10,-1711,-4737,23,-171,-71,69
319,8636,1,-1730,-4737,23,-176,-74,68
320,8636,6,-1733,-4738,23,-177,-77,69
321,8635,5,-1710,-4739,23,-175,-76,70
322,8633,16,-1720,-4737,23,-174,-76,69
323,8629,9,-1694,-4737,23,-175,-72,71
324,8631,14,-1709,-4739,23,-176,-73,70
325,8628,13,-1725,-4739,23,-171,-76,68
326,8623,10,-1732,-4741,23,-173,-76,67
327,8637,20,-1725,-4737,23,-172,-75,70
328,8632,16,-1727,-4734,23,-171,-73,72
329,8643,16,-1728,-4737,23,-172,-74,68
330,8640,4,-1728,-4737,23,-173,-75,68
331,8637,16,-1716,-4737,23,-171,-71,67
332,8645,14,-1718,-4739,23,-172,-74,69
333,8641,25,-1733,-4736,23,-172,-75,70
334,8643,18,-1709,-4739,23,-167,-76,70
335,8643,17,-1714,-4742,23,-170,-76,68
336,8637,14,-1720,-4740,23,-170,-76,70
337,8629,30,-1722,-4739,23,-171,-76,68
338,8632,14,-1739,-4742,23,-174,-77,68
339,8628,12,-1729,-4738,23,-174,-79,70
340,8625,17,-1714,-4740,23,-172,-78,67
341,8643,27,-1729,-4743,23,-176,-73,70
342,8641,24,-1725,-4740,23,-176,-72,69
343,8648,21,-1718,-4741,23,-173,-72,71
344,8639,34,-1729,-4737,23,-172,-74,69
345,8638,16,-1714,-4734,23,-171,-75,70
346,8656,12,-1719,-4731,23,-172,-75,71
347,8635,14,-1722,-4734,23,-172,-73,72
348,8636,8,-1715,-4737,23,-172,-72,70
349,8631,4,-1694,-4735,23,-174,-80,72
350,8642,6,-1712,-4737,23,-171,-75,70
351,8636,4,-1716,-4734,23,-170,-75,69
352,8632,10,-1697,-4736,23,-174,-74,71
353,8641,4,-1706,-4740,23,-173,-73,69
354,8617,-14,-1717,-4737,23,-172,-73,72
355,8618,-18,-1728,-4735,23,-175,-72,69
356,8631,-6,-1723,-4733,23,-174,-75,67
357,8632,8,-1730,-4728,23,-174,-70,68
358,8647,17,-1718,-4731,23,-176,-75,70
359,8633,6,-1684,-4735,23,-175,-78,65
360,8627,16,-1710,-4734,23,-174,-77,67
361,8640,15,-1710,-4733,23,-172,-74,68
362,8631,6,-1725,-4734,23,-175,-72,70
363,8632,5,-1741,-4735,23,-175,-75,71
364,8642,4,-1716,-4740,23,-174,-79,70
365,8649,1,-1732,-4738,23,-175,-76,70
366,8640,-5,-1718,-4732,23,-173,-75,67
367,8636,5,-1717,-4735,23,-173,-77,70
368,8618,4,-1729,-4737,23,-171,-76,68
369,8629,9,-1710,-4729,23,-176,-80,68
370,8645,22,-1699,-4733,23,-172,-76,66
371,8640,5,-1730,-4735,23,-170,-78,68
372,8648,9,-1720,-4736,23,-174,-78,68
373,8641,5,-1704,-4739,23,-175,-75,67
374,8637,7,-1713,-4740,23,-174,-77,66
375,8635,4,-1718,-4734,23,-174,-74,66
376,8637,18,-1734,-4737,23,-172,-75,67
377,8629,19,-1724,-4735,23,-171,-72,73
378,8636,-10,-1706,-4737,23,-173,-73,70
379,8642,-1,-1722,-4741,23,-175,-73,69
380,8653,3,-1700,-4737,23,-173,-75,71
381,8628,6,-1715,-4735,23,-176,-77,69
382,8630,22,-1722,-4739,23,-174,-77,69
383,8631,20,-1737,-4735,23,-174,-75,69
384,8627,17,-1737,-4732,23,-174,-74,70
385,8628,12,-1738,-4733,23,-174,-77,66
386,8645,15,-1742,-4736,23,-173,-80,69
387,8626,19,-1738,-4737,23,-175,-77,71
388,8639,16,-1720,-4741,23,-175,-77,68
389,8625,12,-1721,-4738,23,-173,-79,71
390,8635,8,-1750,-4741,23,-172,-75,67
391,8632,15,-1736,-4741,23,-173,-77,66
392,8635,14,-1754,-4737,23,-171,-74,68
393,8627,-2,-1743,-4739,23,-174,-75,68
394,8631,2,-1721,-4732,23,-175,-71,70
395,8638,16,-1711,-4733,23,-170,-73,71
396,8636,19,-1733,-4738,23,-173,-74,69
397,8632,21,-1700,-4736,23,-172,-74,64
398,8624,11,-1705,-4734,23,-173,-80,69
399,8640,-2,-1711,-4733,23,-175,-78,69
400,8628,3,-1724,-4733,23,-172,-80,70
401,8639,5,-1728,-4729,23,-172,-76,68
402,8636,9,-1731,-4733,23,-172,-77,74
403,8641,-1,-1716,-4731,23,-171,-73,69
404,8632,5,-1702,-4731,23,-172,-73,72
405,8620,13,-1713,-4738,23,-173,-73,69
406,8629,10,-1691,-4740,23,-176,-77,69
407,8651,0,-1700,-4735,23,-172,-74,71
408,8647,-2,-1720,-4731,23,-172,-75,68
409,8635,1,-1724,-4733,23,-172,-77,68
410,8655,-4,-1699,-4736,23,-173,-77,72
411,8635,1,-1712,-4743,23,-174,-76,67
412,8644,1,-1715,-4736,23,-175,-75,69
413,8634,-2,-1739,-4732,23,-177,-75,70
414,8625,16,-1733,-4732,23,-171,-75,68
415,8629,9,-1739,-4738,23,-173,-77,66
416,8630,4,-1719,-4735,23,-173,-76,70
417,8641,-3,-1726,-4729,23,-170,-76,69
418,8650,-5,-1731,-4732,23,-171,-72,73
419,8634,5,-1720,-4732,23,-171,-75,69
420,8632,-7,-1696,-4732,23,-171,-72,72
421,8636,10,-1707,-4735,23,-168,-77,70
422,8640,5,-1718,-4735,23,-171,-76,71
423,8624,8,-1722,-4736,23,-173,-76,67
424,8628,6,-1738,-4731,23,-174,-72,68
425,8630,7,-1715,-4734,23,-173,-75,67
426,8641,35,-1714,-4728,23,-172,-71,69
427,8631,12,-1708,-4729,23,-172,-74,68
428,8638,11,-1715,-4733,23,-173,-75,69
429,8635,25,-1722,-4732,23,-175,-73,73
430,8632,19,-1708,-4739,23,-175,-73,72
431,8636,10,-1709,-4732,23,-175,-77,68
432,8642,14,-1720,-4734,23,-173,-75,71
433,8641,-1,-1713,-4730,23,-173,-75,69
434,8635,0,-1750,-4735,23,-174,-75,69
435,8621,8,-1718,-4733,23,-172,-73,69
436,8625,21,-1739,-4732,23,-171,-79,68
437,8620,23,-1722,-4730,23,-172,-75,68
438,8647,11,-1719,-4729,23,-173,-74,70
439,8638,-1,-1713,-4737,23,-171,-76,68
440,8636,13,-1732,-4736,23,-172,-72,67
441,8631,-2,-1700,-4727,23,-175,-72,69
442,8635,17,-1690,-4733,23,-170,-72,69
443,8632,8,-1699,-4731,23,-172,-74,67
444,8641,18,-1738,-4733,23,-171,-74,68
445,8636,7,-1724,-4729,23,-173,-76,69
446,8634,4,-1716,-4732,23,-175,-76,67
447,8636,7,-1727,-4735,23,-170,-72,67
448,8635,3,-1724,-4733,23,-173,-74,68
449,8622,-1,-1701,-4733,23,-174,-74,72
450,8633,5,-1735,-4730,23,-175,-74,68
451,8631,18,-1743,-4731,23,-175,-73,68
452,8639,-7,-1727,-4736,23,-176,-73,64
453,8656,11,-1698,-4734,23,-174,-72,66
454,8655,1,-1721,-4732,23,-173,-76,68
455,8646,6,-1718,-4732,23,-174,-78,65
456,8625,10,-1716,-4732,23,-175,-72,68
457,8633,12,-1732,-4733,23,-177,-72,68
458,8638,-6,-1722,-4738,23,-175,-74,70
459,8639,-6,-1700,-4730,23,-176,-76,69
460,8643,-5,-1714,-4731,23,-174,-76,71
461,8618,9,-1724,-4733,23,-171,-73,70
462,8624,32,-1731,-4731,23,-171,-75,68
463,8624,9,-1718,-4736,23,-168,-75,70
464,8636,13,-1722,-4735,23,-177,-76,67
465,8630,21,-1711,-4733,23,-174,-76,68
466,8638,10,-1717,-4731,23,-173,-77,69
467,8641,7,-1714,-4734,23,-176,-76,71
468,8643,4,-1693,-4735,23,-176,-75,70
469,8655,7,-1685,-4735,23,-175,-74,67
470,8651,17,-1713,-4734,23,-175,-74,71
471,8644,18,-1720,-4736,23,-174,-77,71
472,8641,2,-1718,-4740,23,-177,-76,71
473,8616,12,-1710,-4736,23,-173,-77,69
474,8623,14,-1710,-4733,23,-174,-77,70
475,8645,18,-1717,-4733,23,-173,-76,71
476,8636,15,-1726,-4732,23,-173,-75,67
477,8649,-2,-1735,-4729,23,-172,-76,69
478,8663,12,-1703,-4730,23,-172,-75,70
479,8640,5,-1708,-4728,23,-173,-76,69
480,8637,8,-1744,-4730,23,-172,-75,69
481,8624,12,-1740,-4733,23,-176,-72,69
482,8633,3,-1727,-4736,23,-172,-73,69
483,8641,29,-1711,-4732,23,-171,-75,68
484,8651,13,-1689,-4729,23,-172,-78,69
485,8641,4,-1687,-4731,23,-171,-77,70
486,8647,10,-1713,-4738,23,-175,-73,69
487,8651,14,-1732,-4730,23,-171,-79,70
488,8633,8,-1719,-4729,23,-172,-76,71
489,8621,9,-1719,-4730,23,-174,-75,66
490,8638,14,-1706,-4732,23,-172,-73,66
491,8643,-1,-1696,-4738,23,-173,-74,69
492,8634,-3,-1725,-4729,23,-170,-76,68
493,8627,7,-1734,-4733,23,-171,-79,70
494,8628,14,-1734,-4734,23,-172,-78,70
495,8633,21,-1732,-4731,23,-171,-77,68
496,8632,24,-1712,-4728,23,-173,-79,69
497,8635,6,-1725,-4729,23,-175,-73,69
498,8638,-2,-1741,-4731,23,-175,-73,71
499,8638,4,-1737,-4735,23,-171,-75,71
500,8650,4,-1717,-4734,23,-172,-77,71
501,8631,5,-1704,-4737,23,-173,-78,70
502,8621,12,-1710,-4730,23,-174,-77,68
503,8618,15,-1721,-4734,23,-173,-76,66
504,8640,1,-1729,-4729,23,-173,-73,71
505,8634,4,-1702,-4736,23,-175,-73,68
506,8623,12,-1690,-4734,23,-176,-78,69
507,8623,3,-1703,-4729,23,-174,-80,69
508,8632,5,-1703,-4735,23,-172,-77,72
509,8634,11,-1712,-4729,23,-172,-76,71
510,8638,3,-1710,-4731,23,-172,-74,68
511,8630,-5,-1735,-4733,23,-174,-70,67
512,8632,2,-1720,-4733,23,-174,-71,68
513,8641,2,-1721,-4730,23,-175,-73,72
514,8645,0,-1716,-4739,23,-173,-74,72
515,8637,7,-1709,-4733,23,-172,-74,68
516,8626,-1,-1720,-4731,23,-173,-74,69
517,8623,20,-1719,-4731,23,-176,-70,69
518,8649,20,-1729,-4732,23,-173,-76,68
519,8655,-5,-1713,-4734,23,-173,-71,70
520,8628,1,-1730,-4733,23,-175,-75,65
521,8628,6,-1730,-4735,23,-174,-74,67
522,8626,-2,-1743,-4737,23,-175,-75,67
523,8647,-1,-1739,-4733,23,-173,-76,67
524,8636,-4,-1731,-4732,23,-174,-73,69
525,8633,-6,-1730,-4733,23,-173,-73,72
526,8636,-17,-1729,-4727,23,-170,-74,68
527,8636,6,-1725,-4726,23,-171,-77,64
528,8633,-1,-1741,-4729,23,-176,-75,69
529,8628,-3,-1736,-4729,23,-173,-75,70
530,8645,4,-1716,-4728,23,-173,-77,67
531,8642,2,-1723,-4737,23,-173,-78,70
532,8636,-3,-1727,-4734,23,-170,-77,69
533,8640,14,-1735,-4734,23,-170,-73,69
534,8635,8,-1717,-4735,23,-172,-73,66
535,8652,-6,-1694,-4735,23,-173,-76,67
536,8641,0,-1722,-4730,23,-174,-74,70
537,8630,-1,-1715,-4731,23,-174,-74,69
538,8612,10,-1716,-4732,23,-170,-71,70
539,8607,8,-1729,-4734,23,-168,-76,74
540,8617,9,-1731,-4736,23,-171,-75,70
541,8649,18,-1717,-4733,23,-171,-71,68
542,8641,15,-1726,-4735,23,-171,-73,71
543,8645,-5,-1739,-4731,23,-174,-73,74
544,8641,-12,-1736,-4734,23,-171,-72,67
545,8630,-11,-1736,-4733,23,-172,-75,70
546,8642,1,-1719,-4736,23,-174,-75,71
547,8641,-1,-1712,-4728,23,-173,-74,71
548,8654,5,-1717,-4729,23,-171,-71,68
549,8649,3,-1701,-4725,23,-171,-75,71
550,8641,-1,-1704,-4733,23,-172,-74,67
551,8634,4,-1700,-4734,23,-174,-75,68
552,8644,10,-1712,-4732,23,-178,-74,69
553,8627,12,-1735,-4729,23,-172,-80,69
554,8639,7,-1728,-4729,23,-167,-78,70
555,8649,9,-1733,-4732,23,-172,-80,71
556,8628,6,-1725,-4729,23,-171,-77,70
557,8638,15,-1705,-4731,23,-172,-75,69
558,8641,22,-1706,-4731,23,-172,-75,73
559,8632,0,-1699,-4728,23,-172,-79,71
560,8633,3,-1732,-4732,23,-174,-77,67
561,8633,-9,-1712,-4730,23,-173,-74,68
562,8633,-1,-1712,-4735,23,-168,-78,69
563,8636,2,-1717,-4734,23,-168,-73,67
564,8632,0,-1737,-4730,23,-172,-70,69
565,8636,-2,-1740,-4728,23,-176,-73,68
566,8642,-2,-1746,-4734,23,-173,-71,71
567,8647,1,-1747,-4734,23,-171,-76,69
568,8628,11,-1743,-4734,23,-169,-74,69
569,8622,-1,-1743,-4735,23,-170,-72,71
570,8635,5,-1720,-4733,23,-173,-74,69
571,8630,3,-1731,-4735,23,-172,-73,72
572,8637,4,-1731,-4733,23,-167,-73,70
573,8636,-3,-1728,-4736,23,-167,-76,69
574,8632,4,-1706,-4732,23,-173,-73,67
575,8635,6,-1707,-4735,23,-173,-73,71
576,8617,25,-1701,-4730,23,-175,-76,70
577,8622,2,-1716,-4735,23,-176,-76,71
578,8622,1,-1718,-4730,23,-174,-74,70
579,8637,6,-1718,-4727,23,-170,-76,67
580,8631,5,-1714,-4730,23,-171,-72,72
581,8644,9,-1704,-4735,23,-169,-76,71
582,8641,10,-1690,-4740,23,-169,-78,68
583,8656,13,-1715,-4734,23,-170,-76,69
584,8638,22,-1707,-4731,23,-170,-75,70
585,8624,16,-1698,-4732,23,-171,-76,65
586,8623,12,-1728,-4734,23,-170,-74,68
587,8620,24,-1726,-4734,23,-174,-70,69
588,8631,19,-1717,-4732,23,-171,-74,70
589,8643,9,-1712,-4732,23,-173,-75,72
590,8650,4,-1718,-4735,23,-175,-76,73
591,8649,3,-1715,-4735,23,-175,-76,72
592,8639,1,-1701,-4733,23,-176,-76,72
593,8639,-6,-1728,-4737,23,-174,-74,70
594,8632,8,-1712,-4736,23,-173,-77,71
595,8629,14,-1735,-4736,23,-174,-74,70
596,8641,10,-1727,-4734,23,-171,-73,71
597,8630,9,-1705,-4733,23,-170,-71,70
598,8635,10,-1722,-4733,23,-175,-75,68
599,8635,14,-1720,-4727,23,-173,-78,67
600,8638,-2,-1753,-4727,23,-175,-74,69
601,8642,3,-1734,-4731,23,-171,-72,68
602,8625,5,-1724,-4728,23,-172,-78,68
603,8624,14,-1737,-4732,23,-176,-74,69
604,8622,13,-1720,-4732,23,-172,-74,70
605,8632,29,-1729,-4727,23,-172,-74,70
606,8647,12,-1687,-4727,23,-174,-73,68
607,8631,6,-1716,-4733,23,-170,-78,72
608,8640,16,-1721,-4738,23,-173,-76,73
609,8629,-2,-1706,-4739,23,-171,-74,70
610,8629,9,-1712,-4728,23,-170,-73,69
611,8637,9,-1729,-4732,23,-172,-72,68
612,8633,28,-1701,-4736,23,-172,-73,68
613,8640,18,-1704,-4737,23,-173,-74,69
614,8639,15,-1723,-4736,23,-177,-72,69
615,8640,-5,-1702,-4730,23,-176,-71,65
616,8630,-3,-1710,-4729,23,-174,-74,71
617,8624,29,-1703,-4728,23,-171,-77,68
618,8638,11,-1713,-4732,23,-171,-77,71
619,8634,7,-1725,-4731,23,-173,-74,70
620,8626,2,-1701,-4732,23,-174,-77,71
621,8647,1,-1715,-4733,23,-173,-75,72
622,8633,-1,-1701,-4733,23,-168,-77,71
623,8633,19,-1717,-4735,23,-170,-74,70
624,8650,11,-1712,-4731,23,-170,-76,64
625,8650,14,-1714,-4731,23,-171,-72,65
626,8644,11,-1712,-4733,23,-172,-76,70
627,8642,2,-1720,-4734,23,-175,-73,68
628,8641,4,-1692,-4733,23,-174,-76,71
629,8639,-3,-1707,-4734,23,-172,-76,69
630,8634,12,-1701,-4731,23,-174,-77,68
631,8644,13,-1693,-4729,23,-177,-76,69
632,8639,12,-1707,-4730,23,-173,-75,70
633,8637,16,-1732,-4729,23,-170,-76,69
634,8633,24,-1731,-4731,23,-171,-77,70
635,8630,12,-1723,-4737,23,-174,-75,70
636,8632,1,-1718,-4734,23,-175,-74,71
637,8651,-2,-1716,-4734,23,-178,-70,70
638,8641,-19,-1728,-4736,23,-174,-73,68
639,8620,3,-1715,-4733,23,-171,-71,69
640,8623,20,-1730,-4730,23,-171,-74,68
641,8634,30,-1742,-4731,23,-173,-74,69
642,8620,8,-1714,-4736,23,-173,-73,70
643,8626,3,-1729,-4735,23,-171,-74,70
644,8634,-3,-1707,-4732,23,-172,-76,68
645,8647,-1,-1732,-4731,23,-173,-76,69
646,8649,-5,-1752,-4735,23,-170,-76,67
647,8643,7,-1749,-4732,23,-171,-76,69
648,8623,22,-1705,-4736,23,-172,-78,66
649,8627,19,-1720,-4736,23,-173,-74,68
650,8627,24,-1723,-4733,23,-172,-73,70
651,8633,19,-1721,-4735,23,-175,-75,72
652,8631,17,-1702,-4740,23,-175,-74,68
653,8632,11,-1708,-4731,23,-171,-73,67
654,8630,6,-1712,-4734,23,-172,-74,69
655,8634,1,-1712,-4736,23,-173,-76,67
656,8636,2,-1731,-4733,23,-174,-77,69
657,8611,16,-1719,-4732,23,-173,-79,71
658,8638,7,-1716,-4738,23,-174,-78,73
659,8628,31,-1729,-4731,23,-171,-76,74
660,8634,29,-1729,-4731,23,-170,-78,71
661,8633,4,-1743,-4727,23,-172,-75,73
662,8635,5,-1737,-4732,23,-174,-76,71
663,8646,13,-1734,-4731,23,-172,-76,66
664,8638,10,-1710,-4733,23,-172,-78,68
665,8629,7,-1725,-4733,23,-172,-81,72
666,8635,-12,-1713,-4728,23,-171,-81,70
667,8626,-1,-1724,-4723,23,-172,-78,71
668,8631,5,-1683,-4725,23,-172,-78,74
669,8641,20,-1700,-4732,23,-173,-76,73
670,8638,17,-1729,-4724,23,-173,-75,70
671,8632,1,-1717,-4726,23,-174,-71,68
672,8618,10,-1727,-4730,23,-173,-72,68
673,8625,-6,-1703,-4727,23,-172,-74,68
674,8624,14,-1712,-4732,23,-174,-78,69
675,8609,14,-1723,-4732,23,-174,-78,66
676,8628,0,-1744,-4737,23,-173,-76,70
677,8642,19,-1742,-4736,23,-173,-74,69
678,8642,1,-1743,-4733,23,-171,-79,67
679,8632,7,-1736,-4729,23,-173,-74,68
680,8636,3,-1724,-4728,23,-173,-72,72
681,8638,9,-1739,-4728,23,-176,-72,69
682,8638,0,-1738,-4729,23,-173,-72,69
683,8636,7,-1715,-4726,23,-172,-73,70
684,8641,13,-1727,-4731,23,-175,-77,69
685,8642,4,-1719,-4728,23,-167,-72,69
686,8637,-2,-1733,-4726,23,-170,-78,70
687,8631,4,-1715,-4725,23,-171,-78,69
688,8610,11,-1723,-4726,23,-171,-73,68
689,8629,12,-1714,-4728,23,-173,-76,69
690,8632,12,-1705,-4727,23,-176,-74,71
691,8637,3,-1700,-4728,23,-173,-73,70
692,8622,5,-1717,-4727,23,-175,-74,71
693,8633,0,-1709,-4729,23,-173,-75,71
694,8628,8,-1699,-4723,23,-173,-75,70
695,8633,-8,-1715,-4722,23,-172,-73,68
696,8627,4,-1729,-4721,23,-175,-74,69
697,8627,14,-1713,-4727,23,-175,-75,72
698,8635,-3,-1717,-4729,23,-174,-77,68
699,8642,-3,-1730,-4725,23,-177,-74,69
700,8643,-1,-1719,-4728,23,-175,-72,70
701,8633,14,-1727,-4730,23,-174,-73,69
702,8648,17,-1718,-4732,23,-173,-73,66
703,8627,1,-1711,-4736,23,-173,-75,68
704,8637,11,-1728,-4736,23,-175,-75,67
705,8648,-6,-1734,-4732,23,-171,-73,69
706,8645,8,-1721,-4731,23,-173,-77,75
707,8621,8,-1739,-4731,23,-172,-76,72
708,8632,8,-1728,-4726,23,-172,-76,69
709,8627,3,-1717,-4728,23,-173,-74,70
710,8633,11,-1740,-4729,23,-170,-70,69
711,8622,13,-1741,-4734,23,-173,-72,69
712,8629,10,-1716,-4730,23,-174,-72,70
713,8623,13,-1719,-4731,23,-171,-70,70
714,8631,-2,-1727,-4728,23,-172,-78,65
715,8637,16,-1720,-4731,23,-173,-80,69
716,8635,-3,-1714,-4732,23,-174,-77,70
717,8625,4,-1706,-4732,23,-170,-76,71
718,8639,1,-1713,-4732,23,-173,-74,68
719,8653,2,-1718,-4727,23,-172,-73,69
720,8629,10,-1717,-4727,23,-170,-78,68
721,8638,2,-1694,-4729,23,-171,-77,70
722,8629,20,-1723,-4725,23,-172,-74,70
723,8625,22,-1708,-4731,23,-172,-75,69
724,8614,21,-1714,-4735,23,-173,-72,73
725,8626,21,-1732,-4727,23,-172,-78,70
726,8628,1,-1714,-4725,23,-172,-75,68
727,8622,11,-1727,-4724,23,-170,-74,69
728,8646,-1,-1721,-4724,23,-170,-75,68
729,8626,5,-1721,-4726,23,-172,-78,71
730,8634,-3,-1724,-4730,23,-173,-78,70
731,8624,-1,-1699,-4730,23,-175,-74,72
732,8631,14,-1713,-4723,23,-173,-75,69
733,8636,15,-1711,-4720,23,-174,-77,67
734,8635,15,-1721,-4722,23,-171,-76,70
735,8643,17,-1740,-4726,23,-175,-76,69
736,8640,5,-1727,-4729,23,-172,-75,68
737,8654,16,-1708,-4729,23,-172,-73,71
738,8642,2,-1728,-4731,23,-175,-76,71
739,8643,0,-1715,-4725,23,-173,-71,67
740,8652,12,-1734,-4732,23,-172,-72,70
741,8637,7,-1743,-4726,23,-172,-75,70
742,8627,3,-1729,-4726,23,-172,-77,66
743,8635,12,-1728,-4723,23,-173,-73,70
744,8636,11,-1706,-4722,23,-172,-75,68
745,8644,16,-1723,-4730,23,-175,-70,71
746,8629,14,-1720,-4722,23,-175,-71,70
747,8636,12,-1726,-4727,23,-173,-73,71
748,8623,-11,-1722,-4729,23,-176,-72,64
749,8628,6,-1727,-4729,23,-173,-75,70
750,8633,-1,-1705,-4729,23,-175,-74,68
751,8629,5,-1686,-4728,23,-173,-75,69
752,8638,5,-1711,-4727,23,-173,-77,67
753,8630,-14,-1723,-4726,23,-174,-77,70
754,8623,0,-1708,-4726,23,-173,-76,71
755,8631,7,-1740,-4725,23,-172,-80,69
756,8642,-2,-1717,-4725,23,-170,-74,68
757,8643,11,-1704,-4728,23,-175,-76,66
758,8618,11,-1721,-4730,23,-174,-73,70
759,8636,16,-1731,-4729,23,-174,-74,68
760,8622,16,-1740,-4724,23,-172,-73,69
761,8631,22,-1742,-4725,23,-168,-72,72
762,8633,12,-1740,-4720,23,-169,-72,70
763,8639,4,-1733,-4726,23,-171,-72,68
764,8617,2,-1715,-4727,23,-171,-74,72
765,8630,-15,-1711,-4729,23,-174,-76,71
766,8634,-31,-1708,-4730,23,-169,-76,70
767,8638,-4,-1728,-4730,23,-173,-74,68
768,8637,6,-1743,-4726,23,-170,-73,69
769,8643,-3,-1736,-4725,23,-175,-77,68
770,8640,4,-1736,-4731,23,-174,-76,71
771,8643,15,-1729,-4730,23,-174,-75,67
772,8640,3,-1711,-4720,23,-175,-74,71
773,8627,15,-1728,-4728,23,-170,-78,71
774,8630,15,-1720,-4726,23,-175,-76,70
775,8647,15,-1733,-4730,23,-176,-72,72
776,8634,-2,-1719,-4731,23,-178,-73,70
777,8633,8,-1732,-4729,23,-174,-75,70
778,8624,28,-1735,-4731,23,-174,-75,68
779,8627,-5,-1699,-4737,23,-172,-76,69
780,8641,8,-1712,-4738,23,-172,-75,70
781,8640,7,-1690,-4730,23,-177,-72,67
782,8632,11,-1731,-4726,23,-172,-74,68
783,8631,8,-1718,-4726,23,-172,-74,66
784,8634,3,-1728,-4726,23,-174,-74,67
785,8620,16,-1728,-4723,23,-177,-73,71
786,8626,25,-1716,-4732,23,-175,-75,71
787,8627,3,-1731,-4731,23,-174,-76,71
788,8636,1,-1719,-4733,23,-172,-74,73
789,8633,-5,-1712,-4734,23,-177,-78,69
790,8630,13,-1726,-4728,23,-173,-77,68
791,8613,13,-1725,-4724,23,-174,-74,65
792,8630,11,-1736,-4727,23,-173,-73,67
793,8625,15,-1711,-4727,23,-173,-74,72
794,8629,-1,-1717,-4729,23,-171,-73,72
795,8625,9,-1736,-4723,23,-174,-76,71
796,8618,-1,-1727,-4722,23,-173,-73,70
797,8624,2,-1739,-4725,23,-174,-75,70
798,8614,14,-1726,-4730,23,-175,-77,72
799,8629,0,-1722,-4724,23,-172,-74,70
800,8641,-7,-1700,-4723,23,-172,-73,68
801,8645,6,-1718,-4724,23,-173,-77,69
802,8614,3,-1709,-4729,23,-173,-75,70
803,8622,7,-1704,-4732,23,-177,-77,70
804,8638,0,-1719,-4724,23,-171,-77,70
805,8628,17,-1716,-4726,23,-173,-71,68
806,8634,-1,-1722,-4726,23,-170,-76,68
807,8640,0,-1697,-4727,23,-169,-80,67
808,8637,20,-1706,-4726,23,-171,-78,66
809,8635,22,-1719,-4724,23,-174,-75,70
810,8630,19,-1716,-4726,23,-176,-74,72
811,8635,13,-1704,-4727,23,-172,-74,72
812,8631,12,-1701,-4722,23,-174,-74,67
813,8621,10,-1705,-4725,23,-171,-76,67
814,8627,5,-1703,-4726,23,-173,-76,70
815,8636,21,-1688,-4727,23,-170,-74,71
816,8619,33,-1710,-4728,23,-172,-76,66
817,8622,27,-1709,-4731,23,-171,-76,68
818,8621,23,-1728,-4728,23,-169,-72,71
819,8631,8,-1728,-4734,23,-172,-73,70
820,8629,4,-1723,-4725,23,-168,-71,70
821,8632,13,-1735,-4729,23,-174,-71,69
822,8639,8,-1744,-4722,23,-174,-74,70
823,8624,10,-1719,-4725,23,-173,-73,66
824,8610,5,-1729,-4728,23,-169,-77,67
825,8625,15,-1717,-4731,23,-172,-77,68
826,8633,12,-1716,-4728,23,-174,-74,70
827,8643,15,-1695,-4731,23,-174,-70,73
828,8631,1,-1681,-4732,23,-172,-74,75
829,8639,9,-1704,-4731,23,-172,-77,67
830,8650,7,-1712,-4724,23,-175,-75,71
831,8646,12,-1686,-4727,23,-174,-77,71
832,8640,1,-1714,-4728,23,-172,-76,69
833,8644,-2,-1714,-4728,23,-173,-76,66
834,8646,9,-1715,-4730,23,-174,-78,68
835,8636,14,-1724,-4729,23,-173,-76,65
836,8627,6,-1717,-4728,23,-175,-78,69
837,8624,3,-1715,-4727,23,-173,-76,69
838,8644,-12,-1727,-4725,23,-172,-74,67
839,8620,10,-1710,-4724,23,-175,-80,66
840,8614,-9,-1704,-4727,23,-176,-80,68
841,8632,-3,-1712,-4727,23,-176,-78,66
842,8631,7,-1718,-4725,23,-175,-75,70
843,8627,4,-1716,-4727,23,-170,-74,68
844,8620,2,-1719,-4731,23,-171,-68,65
845,8634,3,-1717,-4726,23,-168,-74,68
846,8642,8,-1707,-4731,23,-172,-77,70
847,8638,7,-1731,-4726,23,-171,-78,72
848,8641,2,-1709,-4720,23,-168,-74,70
849,8624,-1,-1698,-4726,23,-169,-75,67
850,8629,13,-1738,-4727,23,-175,-79,69
851,8620,14,-1712,-4724,23,-172,-75,71
852,8631,9,-1706,-4726,23,-173,-73,71
853,8625,15,-1728,-4724,23,-174,-77,71
854,8631,9,-1708,-4726,23,-176,-74,66
855,8639,-7,-1724,-4726,23,-177,-76,67
856,8633,15,-1717,-4721,23,-175,-76,69
857,8638,6,-1726,-4722,23,-171,-76,66
858,8626,-3,-1735,-4719,23,-173,-76,70
859,8625,-1,-1731,-4720,23,-175,-74,70
860,8625,-8,-1728,-4723,23,-173,-74,69
861,8630,-2,-1705,-4719,23,-172,-76,69
862,8630,4,-1709,-4725,23,-171,-75,73
863,8640,16,-1718,-4726,23,-176,-76,70
864,8637,9,-1702,-4727,23,-172,-79,69
865,8652,12,-1708,-4721,23,-175,-81,73
866,8640,4,-1702,-4721,23,-170,-78,69
867,8641,18,-1710,-4720,23,-171,-78,69
868,8637,20,-1739,-4723,23,-172,-76,68
869,8638,24,-1728,-4725,23,-175,-73,68
870,8628,28,-1706,-4725,23,-176,-77,69
871,8642,11,-1713,-4726,23,-175,-79,68
872,8636,9,-1716,-4723,23,-171,-80,70
873,8639,1,-1712,-4719,23,-174,-82,69
874,8630,13,-1737,-4723,23,-172,-75,68
875,8636,19,-1732,-4722,23,-171,-74,70
876,8633,10,-1734,-4723,23,-175,-74,72
877,8639,8,-1738,-4723,23,-171,-72,70
878,8637,3,-1725,-4721,23,-170,-74,67
879,8635,6,-1730,-4720,23,-172,-73,68
880,8639,1,-1728,-4726,23,-177,-69,71
881,8632,5,-1718,-4725,23,-173,-73,70
882,8639,9,-1711,-4729,23,-174,-73,72
883,8633,-1,-1725,-4731,23,-172,-76,71
884,8637,9,-1714,-4730,23,-172,-78,69
885,8640,9,-1707,-4726,23,-173,-77,70
886,8634,15,-1708,-4729,23,-173,-75,69
887,8640,10,-1689,-4727,23,-173,-73,71
888,8638,9,-1716,-4729,23,-175,-73,71
889,8636,9,-1694,-4727,23,-174,-73,70
890,8637,3,-1689,-4723,23,-175,-76,69
891,8642,1,-1715,-4722,23,-173,-79,66
892,8648,6,-1737,-4725,23,-174,-80,66
893,8647,18,-1741,-4722,23,-169,-78,66
894,8642,-1,-1737,-4718,23,-171,-77,67
895,8631,2,-1737,-4719,23,-170,-78,67
896,8630,16,-1741,-4723,23,-171,-77,70
897,8635,12,-1740,-4727,23,-174,-74,72
898,8636,24,-1734,-4724,23,-175,-75,71
899,8646,20,-1727,-4720,23,-175,-78,71
900,8632,-3,-1705,-4718,23,-173,-76,72
901,8630,6,-1697,-4722,23,-173,-76,70
902,8627,8,-1721,-4726,23,-172,-77,72
903,8618,10,-1745,-4723,23,-174,-75,68
904,8638,4,-1734,-4724,23,-174,-77,70
905,8645,12,-1729,-4722,23,-172,-76,69
906,8627,25,-1696,-4724,23,-176,-77,70
907,8621,25,-1693,-4730,23,-174,-76,72
908,8619,12,-1699,-4726,23,-173,-73,72
909,8631,8,-1722,-4725,23,-174,-75,72
910,8625,15,-1709,-4724,23,-173,-79,73
911,8643,9,-1708,-4726,23,-173,-78,71
912,8644,13,-1728,-4722,23,-172,-77,73
913,8630,6,-1726,-4721,23,-172,-78,69
914,8634,9,-1726,-4730,23,-173,-74,67
915,8625,9,-1710,-4728,23,-175,-75,68
916,8631,9,-1714,-4727,23,-170,-73,72
917,8618,13,-1723,-4721,23,-173,-69,69
918,8626,26,-1723,-4724,23,-173,-75,69
919,8628,3,-1735,-4721,23,-174,-76,70
920,8642,11,-1750,-4721,23,-178,-73,68
921,8656,-3,-1754,-4723,23,-176,-76,71
922,8633,6,-1716,-4725,23,-171,-78,70
923,8647,9,-1704,-4722,23,-173,-73,71
924,8642,14,-1688,-4719,23,-173,-76,72
925,8644,22,-1692,-4720,23,-169,-78,72
926,8632,15,-1700,-4720,23,-174,-78,69
927,8646,18,-1705,-4721,23,-175,-75,67
928,8639,15,-1698,-4723,23,-173,-76,70
929,8634,19,-1729,-4725,23,-173,-74,71
930,8630,6,-1742,-4732,23,-175,-78,70
931,8617,6,-1743,-4730,23,-175,-77,68
932,8635,-2,-1738,-4727,23,-176,-73,68
933,8628,2,-1731,-4727,23,-175,-74,69
934,8623,7,-1715,-4723,23,-172,-79,70
935,8625,3,-1701,-4724,23,-177,-76,69
936,8645,3,-1696,-4724,23,-174,-76,72
937,8645,0,-1715,-4723,23,-175,-74,72
938,8634,5,-1709,-4725,23,-171,-76,68
939,8628,9,-1715,-4728,23,-173,-78,68
940,8641,-4,-1724,-4728,23,-174,-75,70
941,8649,-3,-1709,-4725,23,-172,-73,68
942,8639,9,-1712,-4728,23,-174,-75,71
943,8652,15,-1701,-4725,23,-173,-74,69
944,8636,16,-1727,-4731,23,-169,-76,70
945,8641,17,-1725,-4730,23,-169,-76,67
946,8642,9,-1712,-4725,23,-175,-76,69
947,8647,9,-1724,-4728,23,-175,-76,72
948,8635,10,-1725,-4724,23,-172,-79,72
949,8642,8,-1704,-4726,23,-176,-78,69
950,8633,21,-1715,-4726,23,-174,-76,68
951,8634,-5,-1707,-4724,23,-171,-76,68
952,8648,11,-1716,-4723,23,-172,-79,70
953,8639,1,-1712,-4720,23,-171,-77,70
954,8634,2,-1735,-4727,23,-175,-76,71
955,8633,7,-1715,-4729,23,-172,-77,67
956,8634,12,-1729,-4726,23,-172,-74,69
957,8640,13,-1710,-4729,23,-172,-76,71
958,8641,17,-1713,-4731,23,-173,-77,69
959,8656,4,-1713,-4732,23,-173,-74,70
960,8634,5,-1717,-4729,23,-173,-73,70
961,8635,8,-1717,-4728,23,-172,-69,70
962,8648,6,-1714,-4725,23,-175,-74,70
963,8642,15,-1721,-4725,23,-173,-76,70
964,8642,-11,-1723,-4726,23,-175,-74,69
965,8632,10,-1713,-4729,23,-173,-72,67
966,8639,-8,-1712,-4729,23,-173,-76,70
967,8646,11,-1708,-4725,23,-173,-75,72
968,8635,13,-1730,-4728,23,-173,-78,73
969,8623,0,-1741,-4730,23,-172,-78,71
970,8627,7,-1718,-4728,23,-174,-78,70
971,8644,7,-1710,-4731,23,-171,-74,70
972,8628,1,-1727,-4725,23,-169,-74,67
973,8631,8,-1729,-4727,23,-172,-76,67
974,8621,17,-1720,-4728,23,-172,-77,69
975,8641,0,-1721,-4726,23,-170,-77,75
976,8641,20,-1727,-4724,23,-171,-74,72
977,8644,11,-1726,-4721,23,-173,-73,69
978,8646,20,-1723,-4723,23,-170,-74,74
979,8647,20,-1720,-4722,23,-171,-74,69
980,8646,20,-1713,-4727,23,-175,-73,71
981,8650,20,-1710,-4726,23,-175,-77,68
982,8641,15,-1723,-4728,23,-170,-73,67
983,8639,26,-1749,-4723,23,-171,-72,66
984,8648,11,-1724,-4724,23,-174,-77,69
985,8659,20,-1715,-4727,23,-174,-74,69
986,8633,15,-1728,-4728,23,-175,-76,69
987,8635,0,-1720,-4727,23,-173,-71,69
988,8642,10,-1737,-4729,23,-173,-71,70
989,8634,14,-1713,-4723,23,-177,-75,72
990,8626,4,-1711,-4721,23,-175,-76,70
991,8639,0,-1725,-4719,23,-175,-79,69
992,8646,15,-1731,-4721,23,-174,-77,67
993,8651,11,-1745,-4720,23,-172,-73,68
994,8651,24,-1730,-4728,23,-173,-77,68
995,8635,7,-1708,-4721,23,-173,-73,72
996,8632,1,-1688,-4725,23,-174,-73,72
997,8643,4,-1731,-4725,23,-172,-73,69
998,8631,4,-1708,-4728,23,-173,-75,69
