,acc_X,acc_Y,acc_Z,temp,tempC,gyr_X,gyr_Y,gyr_Z
0,2163,1,-429,-4657,23,-348,-143,141
1,2162,1,-432,-4661,23,-354,-150,139
2,2159,4,-434,-4659,23,-354,-148,141
3,2159,2,-428,-4657,23,-348,-151,143
4,2161,-3,-426,-4653,23,-346,-149,140
5,2157,-2,-428,-4653,23,-341,-150,140
6,2156,0,-425,-4661,23,-341,-150,139
7,2160,-1,-423,-4661,23,-347,-156,139
8,2158,1,-421,-4660,23,-349,-147,135
9,2156,1,-426,-4656,23,-349,-149,142
10,2158,0,-429,-4655,23,-344,-150,136
11,2160,4,-430,-4658,23,-351,-148,139
12,2157,5,-426,-4656,23,-348,-147,139
13,2165,4,-424,-4656,23,-347,-143,144
14,2159,-3,-428,-4661,23,-353,-152,138
15,2159,3,-433,-4653,23,-352,-154,134
16,2159,2,-428,-4656,23,-355,-155,135
17,2160,0,-435,-4658,23,-348,-150,131
18,2160,1,-431,-4652,23,-351,-148,137
19,2156,5,-428,-4655,23,-351,-148,131
20,2161,0,-429,-4655,23,-349,-148,135
21,2158,-2,-431,-4660,23,-348,-141,133
22,2155,-3,-427,-4657,23,-343,-145,140
23,2156,-4,-427,-4657,23,-345,-146,138
24,2160,3,-433,-4654,23,-347,-145,142
25,2158,0,-432,-4656,23,-341,-151,137
26,2157,0,-430,-4656,23,-350,-150,136
27,2161,0,-424,-4657,23,-355,-154,142
28,2165,2,-431,-4660,23,-352,-148,142
29,2162,0,-435,-4659,23,-345,-144,139
30,2160,2,-432,-4657,23,-349,-151,140
31,2159,2,-431,-4662,23,-353,-151,141
32,2161,2,-428,-4662,23,-348,-154,139
33,2156,1,-422,-4659,23,-346,-156,142
34,2157,3,-428,-4659,23,-348,-147,141
35,2156,1,-421,-4658,23,-349,-148,137
36,2157,1,-425,-4654,23,-349,-161,139
37,2159,4,-426,-4655,23,-355,-159,141
38,2159,3,-434,-4657,23,-356,-148,141
39,2159,4,-427,-4652,23,-355,-145,139
40,2161,0,-426,-4656,23,-350,-151,142
41,2161,0,-433,-4658,23,-351,-150,138
42,2162,0,-431,-4657,23,-338,-147,143
43,2157,3,-429,-4660,23,-338,-149,141
44,2157,0,-420,-4665,23,-351,-144,133
45,2155,-1,-427,-4662,23,-345,-150,140
46,2154,-1,-431,-4657,23,-347,-146,140
47,2153,-2,-426,-4655,23,-350,-154,136
48,2154,-1,-432,-4655,23,-351,-153,134
49,2158,-4,-428,-4656,23,-347,-145,139
50,2160,-1,-426,-4659,23,-347,-152,145
51,2155,-2,-429,-4656,23,-346,-143,139
52,2157,-3,-430,-4651,23,-347,-146,134
53,2157,-1,-426,-4655,23,-344,-152,139
54,2157,4,-428,-4651,23,-350,-153,138
55,2158,-1,-423,-4653,23,-350,-149,137
56,2158,-2,-427,-4655,23,-345,-147,139
57,2158,0,-423,-4654,23,-347,-151,145
58,2159,1,-428,-4659,23,-343,-151,144
59,2156,1,-431,-4655,23,-341,-153,137
60,2156,1,-429,-4659,23,-338,-152,136
61,2159,0,-431,-4663,23,-341,-150,136
62,2159,1,-436,-4656,23,-345,-150,142
63,2159,-1,-424,-4657,23,-348,-148,137
64,2157,0,-425,-4660,23,-350,-143,138
65,2158,1,-429,-4657,23,-348,-155,144
66,2157,-2,-430,-4659,23,-347,-158,135
67,2154,0,-428,-4655,23,-347,-158,135
68,2157,0,-434,-4657,23,-344,-150,141
69,2157,-3,-431,-4658,23,-339,-148,145
70,2158,0,-430,-4658,23,-341,-145,144
71,2157,0,-427,-4655,23,-342,-140,139
72,2158,0,-426,-4656,23,-344,-145,144
73,2159,-2,-420,-4658,23,-344,-148,143
74,2159,1,-423,-4659,23,-341,-142,146
75,2161,1,-428,-4658,23,-343,-147,145
76,2160,2,-432,-4655,23,-347,-149,138
77,2156,4,-427,-4653,23,-339,-143,139
78,2161,2,-429,-4656,23,-338,-158,137
79,2159,-1,-429,-4651,23,-342,-154,138
80,2160,1,-428,-4650,23,-342,-159,135
81,2156,1,-429,-4651,23,-347,-146,131
82,2159,-1,-432,-4650,23,-338,-144,139
83,2160,0,-429,-4653,23,-346,-152,137
84,2160,0,-431,-4654,23,-344,-150,137
85,2157,2,-431,-4653,23,-350,-149,142
86,2162,3,-433,-4653,23,-346,-150,139
87,2159,-1,-430,-4653,23,-345,-144,139
88,2159,0,-426,-4655,23,-346,-150,143
89,2156,1,-427,-4657,23,-347,-145,148
90,2159,2,-424,-4657,23,-348,-148,140
91,2159,4,-423,-4656,23,-352,-148,137
92,2161,2,-423,-4656,23,-348,-150,143
93,2161,2,-421,-4655,23,-343,-154,139
94,2158,-1,-425,-4657,23,-341,-159,139
95,2157,-1,-427,-4654,23,-345,-156,144
96,2156,-2,-429,-4648,23,-342,-151,142
97,2157,-4,-431,-4652,23,-345,-149,144
98,2159,0,-429,-4652,23,-348,-156,137
99,2164,0,-429,-4655,23,-350,-151,139
100,2161,0,-431,-4655,23,-347,-147,136
101,2156,-1,-426,-4652,23,-348,-145,131
102,2159,1,-423,-4655,23,-350,-156,134
103,2160,0,-429,-4648,23,-343,-156,140
104,2156,3,-427,-4649,23,-345,-153,139
105,2157,-1,-427,-4653,23,-350,-147,144
106,2156,3,-423,-4654,23,-354,-146,140
107,2156,4,-423,-4655,23,-350,-152,143
108,2156,1,-417,-4652,23,-351,-152,142
109,2157,0,-426,-4655,23,-351,-155,141
110,2160,4,-423,-4658,23,-347,-149,137
111,2157,-2,-431,-4653,23,-342,-149,138
112,2157,3,-427,-4653,23,-346,-151,134
113,2155,2,-420,-4654,23,-347,-157,134
114,2157,2,-422,-4652,23,-348,-158,135
115,2161,3,-429,-4657,23,-347,-158,137
116,2160,-3,-427,-4656,23,-339,-151,140
117,2159,2,-432,-4654,23,-346,-151,141
118,2159,2,-428,-4652,23,-350,-146,141
119,2163,1,-426,-4651,23,-344,-158,142
120,2157,0,-427,-4651,23,-341,-149,142
121,2159,4,-428,-4651,23,-346,-142,141
122,2155,5,-428,-4653,23,-348,-152,142
123,2156,4,-425,-4650,23,-343,-158,142
124,2156,1,-428,-4651,23,-341,-156,135
125,2161,-1,-427,-4652,23,-346,-155,139
126,2160,3,-433,-4649,23,-344,-147,135
127,2164,5,-429,-4653,23,-340,-152,140
128,2163,5,-428,-4653,23,-337,-153,138
129,2163,-2,-430,-4651,23,-341,-147,139
130,2162,1,-424,-4650,23,-346,-146,142
131,2157,5,-425,-4649,23,-346,-151,143
132,2158,2,-428,-4652,23,-352,-154,138
133,2157,3,-428,-4649,23,-355,-143,131
134,2158,2,-424,-4652,23,-354,-148,143
135,2158,2,-423,-4651,23,-353,-143,140
136,2160,2,-425,-4653,23,-351,-146,136
137,2159,-1,-427,-4654,23,-354,-145,134
138,2157,-2,-428,-4652,23,-346,-147,137
139,2157,1,-426,-4653,23,-344,-143,140
140,2157,6,-424,-4650,23,-342,-149,140
141,2162,2,-428,-4657,23,-350,-147,143
142,2164,2,-429,-4658,23,-353,-145,144
143,2158,0,-428,-4653,23,-349,-149,143
144,2161,0,-429,-4653,23,-350,-143,146
145,2159,0,-426,-4653,23,-347,-151,144
146,2160,1,-423,-4658,23,-354,-147,142
147,2161,2,-429,-4659,23,-347,-150,140
148,2159,0,-430,-4655,23,-346,-155,134
149,2157,0,-428,-4651,23,-352,-158,139
150,2156,-2,-425,-4652,23,-345,-155,139
151,2156,0,-427,-4650,23,-352,-156,141
152,2157,0,-431,-4647,23,-349,-150,140
153,2159,0,-429,-4651,23,-351,-149,144
154,2159,0,-425,-4654,23,-344,-144,143
155,2159,0,-426,-4655,23,-348,-144,142
156,2161,0,-427,-4655,23,-348,-145,139
157,2158,0,-421,-4655,23,-348,-141,142
158,2159,2,-418,-4655,23,-348,-143,142
159,2163,4,-425,-4651,23,-351,-150,142
160,2159,1,-424,-4656,23,-347,-155,142
161,2156,1,-429,-4651,23,-353,-157,142
162,2156,-1,-430,-4654,23,-351,-148,134
163,2155,2,-425,-4653,23,-350,-152,137
164,2155,3,-432,-4654,23,-347,-143,143
165,2157,-1,-435,-4653,23,-346,-149,145
166,2157,1,-434,-4654,23,-347,-152,144
167,2157,1,-428,-4651,23,-349,-150,140
168,2159,-2,-431,-4654,23,-346,-151,141
169,2160,0,-429,-4654,23,-351,-155,138
170,2157,2,-424,-4656,23,-343,-159,134
171,2159,1,-422,-4657,23,-342,-149,139
172,2160,-3,-428,-4659,23,-344,-152,147
173,2160,2,-427,-4650,23,-346,-158,142
174,2161,-1,-423,-4649,23,-349,-148,141
175,2160,3,-424,-4652,23,-342,-156,141
176,2157,-1,-426,-4649,23,-347,-154,138
177,2156,-1,-432,-4650,23,-347,-156,143
178,2155,-1,-428,-4661,23,-352,-152,135
179,2157,-1,-428,-4657,23,-353,-152,138
180,2163,-1,-427,-4655,23,-357,-151,141
181,2165,2,-428,-4658,23,-349,-153,144
182,2161,3,-430,-4654,23,-340,-163,141
183,2161,1,-431,-4652,23,-339,-161,146
184,2161,4,-431,-4657,23,-351,-150,137
185,2161,4,-430,-4655,23,-355,-157,139
186,2159,1,-428,-4654,23,-348,-154,141
187,2161,0,-428,-4655,23,-348,-156,145
188,2160,-1,-424,-4658,23,-351,-146,144
189,2162,2,-426,-4659,23,-340,-151,140
190,2158,-1,-422,-4659,23,-344,-149,139
191,2158,2,-428,-4651,23,-343,-155,136
192,2154,1,-425,-4651,23,-343,-155,135
193,2158,-1,-429,-4654,23,-343,-154,135
194,2156,-1,-435,-4654,23,-348,-156,137
195,2161,-1,-432,-4654,23,-342,-151,135
196,2160,0,-424,-4651,23,-347,-148,144
197,2164,-1,-424,-4656,23,-350,-156,143
198,2162,2,-428,-4653,23,-355,-151,145
199,2161,0,-430,-4659,23,-348,-148,137
200,2161,1,-431,-4660,23,-344,-146,136
201,2158,3,-426,-4660,23,-343,-148,141
202,2158,1,-432,-4657,23,-346,-144,136
203,2160,1,-435,-4657,23,-350,-147,143
204,2158,1,-430,-4658,23,-349,-152,143
205,2159,1,-434,-4654,23,-350,-148,138
206,2160,2,-437,-4649,23,-344,-150,140
207,2161,4,-431,-4651,23,-348,-149,144
208,2159,-2,-431,-4655,23,-343,-147,139
209,2158,-2,-430,-4657,23,-345,-145,139
210,2158,-1,-428,-4658,23,-348,-149,134
211,2162,-3,-428,-4652,23,-351,-148,139
212,2162,0,-426,-4656,23,-346,-151,143
213,2162,2,-426,-4659,23,-352,-155,140
214,2160,-1,-430,-4661,23,-351,-152,143
215,2159,0,-431,-4655,23,-351,-151,140
216,2156,3,-428,-4655,23,-353,-153,142
217,2156,0,-428,-4655,23,-348,-162,139
218,2157,1,-436,-4658,23,-347,-153,138
219,2157,1,-428,-4658,23,-346,-153,140
220,2157,-1,-432,-4652,23,-346,-158,141
221,2159,1,-423,-4653,23,-353,-156,138
222,2159,0,-424,-4656,23,-343,-153,140
223,2163,-2,-430,-4656,23,-344,-148,138
224,2162,-1,-426,-4656,23,-348,-150,140
225,2160,-2,-428,-4655,23,-351,-145,145
226,2158,-4,-428,-4657,23,-341,-146,145
227,2159,-3,-428,-4659,23,-346,-149,147
228,2156,0,-426,-4656,23,-346,-147,144
229,2156,-1,-426,-4655,23,-341,-156,144
230,2158,2,-426,-4651,23,-341,-155,145
231,2162,2,-429,-4656,23,-340,-155,142
232,2160,-1,-429,-4655,23,-340,-156,135
233,2159,2,-423,-4650,23,-345,-156,131
234,2163,3,-428,-4645,23,-350,-163,138
235,2163,3,-425,-4652,23,-350,-155,144
236,2162,3,-426,-4654,23,-345,-149,139
237,2159,1,-430,-4654,23,-348,-150,134
238,2163,1,-428,-4656,23,-344,-157,133
239,2158,2,-425,-4658,23,-351,-150,136
240,2158,3,-427,-4653,23,-350,-148,139
241,2162,3,-428,-4650,23,-349,-148,141
242,2162,4,-433,-4651,23,-350,-145,142
243,2157,-2,-430,-4649,23,-357,-147,138
244,2157,0,-427,-4654,23,-357,-153,139
245,2161,-5,-425,-4660,23,-351,-154,141
246,2158,-2,-422,-4663,23,-353,-154,141
247,2157,2,-424,-4664,23,-354,-157,138
248,2156,1,-429,-4658,23,-340,-155,144
249,2160,1,-433,-4656,23,-341,-160,139
250,2159,4,-434,-4661,23,-347,-157,138
251,2159,0,-432,-4664,23,-349,-157,134
252,2162,2,-430,-4658,23,-350,-156,141
253,2160,-1,-431,-4655,23,-352,-159,145
254,2158,-4,-433,-4655,23,-349,-151,142
255,2155,1,-424,-4653,23,-343,-159,139
256,2159,-1,-430,-4652,23,-348,-155,149
257,2157,-1,-431,-4654,23,-342,-157,142
258,2158,-2,-426,-4656,23,-345,-155,138
259,2158,0,-426,-4655,23,-343,-151,138
260,2160,2,-423,-4659,23,-346,-147,132
261,2156,2,-419,-4656,23,-343,-153,139
262,2160,0,-424,-4659,23,-352,-157,135
263,2158,0,-430,-4657,23,-356,-151,142
264,2159,-1,-425,-4657,23,-347,-153,139
265,2159,-3,-422,-4658,23,-344,-155,142
266,2158,1,-429,-4654,23,-350,-151,136
267,2156,2,-428,-4653,23,-352,-150,142
268,2157,3,-433,-4654,23,-344,-143,145
269,2160,2,-424,-4655,23,-356,-145,139
270,2158,6,-430,-4659,23,-345,-143,137
271,2157,1,-433,-4658,23,-350,-149,131
272,2159,2,-428,-4654,23,-348,-152,131
273,2163,-4,-428,-4658,23,-353,-144,137
274,2161,2,-429,-4652,23,-351,-142,143
275,2161,0,-429,-4656,23,-347,-145,147
276,2162,1,-429,-4655,23,-346,-149,148
277,2159,0,-431,-4655,23,-350,-147,145
278,2159,2,-431,-4652,23,-350,-144,141
279,2159,-2,-431,-4652,23,-351,-152,137
280,2156,0,-432,-4656,23,-344,-143,140
281,2155,3,-437,-4657,23,-340,-151,140
282,2155,-2,-433,-4653,23,-346,-147,138
283,2158,-2,-431,-4652,23,-342,-143,144
284,2160,1,-429,-4658,23,-347,-146,140
285,2162,1,-435,-4656,23,-343,-149,135
286,2165,0,-426,-4652,23,-341,-150,130
287,2162,-6,-424,-4658,23,-347,-150,137
288,2158,2,-432,-4653,23,-348,-150,134
289,2157,2,-429,-4653,23,-349,-147,138
290,2157,3,-429,-4654,23,-346,-149,141
291,2157,-3,-434,-4655,23,-354,-151,144
292,2154,-2,-431,-4661,23,-351,-154,137
293,2157,4,-429,-4659,23,-348,-159,136
294,2157,0,-426,-4656,23,-357,-150,139
295,2162,-2,-425,-4651,23,-353,-149,141
296,2159,3,-432,-4659,23,-352,-153,138
297,2161,1,-428,-4657,23,-352,-153,139
298,2160,3,-427,-4660,23,-352,-151,138
299,2158,1,-429,-4658,23,-347,-146,141
300,2159,0,-425,-4654,23,-346,-148,134
301,2158,2,-418,-4653,23,-341,-146,142
302,2156,0,-425,-4653,23,-341,-150,144
303,2159,-1,-424,-4651,23,-339,-147,142
304,2159,0,-423,-4651,23,-347,-151,143
305,2156,-1,-428,-4650,23,-336,-145,139
306,2160,4,-434,-4651,23,-352,-146,140
307,2160,3,-431,-4654,23,-346,-153,146
308,2157,0,-430,-4654,23,-349,-152,142
309,2158,1,-429,-4649,23,-352,-149,142
310,2159,1,-431,-4651,23,-354,-146,141
311,2161,-1,-432,-4653,23,-349,-151,142
312,2161,2,-430,-4659,23,-344,-145,136
313,2160,0,-423,-4655,23,-342,-148,136
314,2163,-3,-423,-4655,23,-345,-149,140
315,2163,-3,-431,-4652,23,-348,-150,136
316,2161,0,-429,-4651,23,-343,-152,144
317,2160,0,-427,-4651,23,-342,-155,135
318,2160,1,-430,-4654,23,-336,-153,138
319,2161,1,-432,-4657,23,-340,-150,141
320,2160,1,-429,-4654,23,-347,-151,143
321,2155,2,-418,-4658,23,-349,-149,143
322,2156,2,-422,-4655,23,-346,-149,133
323,2155,5,-421,-4653,23,-349,-150,141
324,2160,0,-424,-4652,23,-344,-152,139
325,2159,0,-429,-4655,23,-343,-152,152
326,2160,4,-426,-4654,23,-347,-149,145
327,2159,3,-432,-4653,23,-349,-151,140
328,2157,2,-431,-4657,23,-349,-156,146
329,2162,1,-429,-4652,23,-346,-154,142
330,2156,-4,-430,-4650,23,-349,-148,137
331,2158,3,-432,-4653,23,-351,-147,132
332,2159,3,-430,-4650,23,-342,-149,136
333,2160,0,-430,-4649,23,-339,-152,145
334,2155,-3,-433,-4652,23,-345,-157,147
335,2157,2,-425,-4656,23,-341,-149,140
336,2159,1,-426,-4657,23,-351,-148,137
337,2160,-3,-425,-4655,23,-352,-151,144
338,2158,1,-424,-4651,23,-349,-149,135
339,2160,-2,-429,-4647,23,-354,-157,138
340,2158,4,-430,-4649,23,-362,-160,138
341,2160,1,-426,-4654,23,-347,-154,137
342,2160,0,-424,-4651,23,-344,-149,135
343,2157,-1,-421,-4654,23,-343,-153,133
344,2158,2,-422,-4659,23,-346,-155,141
345,2158,1,-426,-4655,23,-343,-149,141
346,2160,1,-423,-4653,23,-345,-152,132
347,2158,0,-423,-4652,23,-340,-150,139
348,2160,-4,-425,-4655,23,-346,-153,138
349,2157,2,-428,-4653,23,-348,-147,140
350,2161,2,-427,-4654,23,-341,-140,141
351,2157,2,-426,-4653,23,-351,-148,147
352,2157,2,-428,-4654,23,-339,-148,140
353,2158,0,-431,-4652,23,-344,-150,144
354,2159,0,-429,-4657,23,-348,-152,140
355,2160,3,-428,-4661,23,-343,-147,141
356,2159,6,-428,-4659,23,-342,-149,144
357,2159,5,-436,-4661,23,-342,-150,144
358,2158,7,-436,-4652,23,-346,-151,142
359,2157,8,-431,-4655,23,-347,-153,143
360,2160,6,-430,-4655,23,-346,-152,139
361,2159,1,-430,-4653,23,-355,-143,134
362,2155,2,-431,-4654,23,-350,-150,139
363,2159,3,-431,-4660,23,-343,-155,139
364,2159,2,-427,-4654,23,-347,-156,138
365,2162,-1,-422,-4657,23,-341,-150,135
366,2162,-1,-428,-4659,23,-341,-152,138
367,2158,-1,-433,-4657,23,-342,-149,137
368,2159,0,-431,-4660,23,-347,-153,141
369,2157,3,-427,-4657,23,-348,-161,141
370,2156,4,-429,-4658,23,-352,-154,138
371,2157,3,-425,-4658,23,-348,-153,140
372,2157,0,-428,-4656,23,-342,-148,140
373,2161,-2,-431,-4654,23,-347,-149,142
374,2157,-2,-430,-4653,23,-346,-146,143
375,2159,1,-431,-4654,23,-352,-152,147
376,2158,0,-429,-4654,23,-350,-148,145
377,2158,-3,-429,-4656,23,-348,-150,146
378,2159,-1,-420,-4653,23,-348,-143,135
379,2159,0,-420,-4649,23,-345,-158,142
380,2159,0,-424,-4651,23,-344,-153,138
381,2161,0,-430,-4655,23,-347,-150,138
382,2158,2,-430,-4659,23,-347,-146,143
383,2156,1,-429,-4655,23,-338,-155,137
384,2159,-1,-426,-4651,23,-337,-158,141
385,2164,-5,-423,-4657,23,-343,-153,143
386,2157,1,-428,-4656,23,-346,-154,140
387,2161,0,-428,-4652,23,-344,-154,146
388,2159,3,-423,-4653,23,-344,-149,142
389,2159,2,-426,-4656,23,-349,-150,143
390,2161,4,-428,-4658,23,-349,-145,143
391,2156,4,-428,-4660,23,-346,-140,146
392,2157,0,-425,-4654,23,-348,-140,139
393,2160,-1,-428,-4654,23,-349,-146,142
394,2160,1,-426,-4654,23,-349,-159,142
395,2161,1,-428,-4655,23,-351,-151,140
396,2158,-2,-432,-4655,23,-350,-149,140
397,2160,0,-429,-4652,23,-347,-152,145
398,2163,-1,-427,-4651,23,-347,-154,138
399,2157,-2,-430,-4653,23,-346,-150,139
400,2158,-6,-429,-4657,23,-346,-152,138
401,2159,-1,-424,-4654,23,-347,-154,143
402,2162,-2,-424,-4655,23,-347,-154,143
403,2159,1,-424,-4651,23,-349,-157,138
404,2160,3,-430,-4653,23,-353,-154,144
405,2159,3,-426,-4653,23,-351,-150,136
406,2157,1,-424,-4658,23,-342,-150,140
407,2159,3,-421,-4658,23,-344,-145,143
408,2156,4,-426,-4660,23,-349,-148,137
409,2160,4,-428,-4662,23,-348,-162,135
410,2155,1,-429,-4655,23,-344,-153,138
411,2154,2,-432,-4656,23,-345,-148,139
412,2158,1,-432,-4657,23,-346,-145,143
413,2158,0,-434,-4654,23,-344,-160,148
414,2155,-1,-435,-4655,23,-346,-155,136
415,2158,2,-431,-4656,23,-352,-153,138
416,2160,1,-429,-4652,23,-352,-149,138
417,2159,2,-432,-4655,23,-356,-147,132
418,2158,-1,-438,-4652,23,-349,-143,132
419,2160,-1,-426,-4654,23,-345,-152,130
420,2159,0,-426,-4658,23,-340,-150,133
421,2160,-1,-426,-4657,23,-344,-148,142
422,2161,0,-431,-4655,23,-346,-160,137
423,2160,6,-430,-4654,23,-347,-154,142
424,2159,1,-428,-4655,23,-346,-150,140
425,2158,1,-434,-4654,23,-348,-150,139
426,2157,-2,-427,-4658,23,-341,-149,142
427,2158,-3,-428,-4655,23,-339,-148,143
428,2161,0,-428,-4655,23,-348,-143,148
429,2158,1,-429,-4657,23,-337,-142,144
430,2160,0,-431,-4655,23,-346,-151,138
431,2158,1,-429,-4654,23,-344,-146,137
432,2160,1,-433,-4655,23,-345,-151,135
433,2159,1,-430,-4656,23,-349,-149,144
434,2159,4,-428,-4658,23,-350,-149,143
435,2161,3,-430,-4655,23,-348,-161,137
436,2160,1,-430,-4651,23,-349,-152,135
437,2162,3,-425,-4655,23,-348,-148,142
438,2162,3,-429,-4657,23,-346,-148,149
439,2159,0,-425,-4655,23,-344,-155,142
440,2158,2,-428,-4654,23,-339,-147,135
441,2158,-1,-429,-4651,23,-339,-147,141
442,2159,0,-429,-4653,23,-347,-152,144
443,2156,0,-430,-4661,23,-341,-152,139
444,2161,1,-425,-4656,23,-342,-144,138
445,2160,1,-431,-4655,23,-343,-148,138
446,2159,5,-431,-4653,23,-345,-151,140
447,2159,0,-426,-4652,23,-349,-162,140
448,2158,-2,-429,-4653,23,-350,-151,140
449,2159,-2,-425,-4653,23,-347,-155,141
450,2158,0,-420,-4658,23,-349,-153,142
451,2157,5,-425,-4655,23,-350,-150,143
452,2161,5,-433,-4658,23,-350,-148,143
453,2163,2,-431,-4656,23,-345,-149,140
454,2162,1,-432,-4655,23,-348,-151,140
455,2158,2,-427,-4654,23,-339,-146,138
456,2157,-3,-424,-4658,23,-336,-147,137
457,2157,-2,-428,-4657,23,-342,-150,145
458,2157,0,-430,-4659,23,-344,-151,140
459,2154,-1,-425,-4663,23,-343,-154,136
460,2158,3,-428,-4662,23,-350,-152,136
461,2159,2,-430,-4660,23,-342,-151,134
462,2155,-1,-425,-4659,23,-345,-146,136
463,2154,-1,-429,-4657,23,-353,-144,139
464,2159,-3,-431,-4655,23,-352,-153,140
465,2159,-2,-427,-4650,23,-347,-153,144
466,2159,1,-428,-4650,23,-346,-151,143
467,2153,3,-428,-4654,23,-347,-150,141
468,2157,3,-425,-4655,23,-341,-148,142
469,2161,2,-421,-4656,23,-352,-146,143
470,2162,0,-428,-4653,23,-344,-148,144
471,2162,0,-430,-4655,23,-342,-152,133
472,2162,2,-424,-4657,23,-336,-143,136
473,2161,3,-426,-4657,23,-341,-144,134
474,2162,0,-430,-4655,23,-344,-148,136
475,2155,0,-432,-4651,23,-350,-147,141
476,2158,0,-430,-4655,23,-354,-152,136
477,2160,3,-426,-4658,23,-356,-154,141
478,2160,4,-428,-4656,23,-353,-153,146
479,2163,3,-425,-4659,23,-351,-152,144
480,2160,5,-434,-4652,23,-346,-149,145
481,2162,0,-431,-4657,23,-348,-150,136
482,2161,-1,-430,-4656,23,-356,-147,138
483,2159,0,-428,-4654,23,-349,-147,142
484,2160,-1,-428,-4650,23,-346,-148,144
485,2160,-1,-428,-4659,23,-346,-150,148
486,2160,0,-433,-4658,23,-346,-148,142
487,2159,2,-434,-4654,23,-348,-145,143
488,2153,2,-426,-4650,23,-347,-153,141
489,2159,-2,-425,-4650,23,-344,-152,146
490,2160,0,-422,-4658,23,-344,-150,139
491,2162,0,-419,-4655,23,-349,-157,137
492,2159,0,-427,-4656,23,-347,-156,142
493,2157,-2,-431,-4655,23,-351,-154,145
494,2160,-2,-425,-4660,23,-344,-150,144
495,2165,0,-430,-4657,23,-342,-149,138
496,2161,1,-431,-4660,23,-344,-151,134
497,2158,4,-429,-4654,23,-341,-150,138
498,2163,4,-418,-4653,23,-347,-145,136
499,2162,-1,-429,-4658,23,-351,-149,132
500,2164,-1,-425,-4659,23,-342,-152,139
501,2165,-1,-432,-4655,23,-338,-154,147
502,2161,0,-429,-4651,23,-350,-155,140
503,2159,-1,-426,-4655,23,-342,-151,135
504,2161,-1,-427,-4657,23,-344,-153,140
505,2161,-1,-429,-4655,23,-346,-153,146
506,2158,1,-430,-4653,23,-348,-160,142
507,2157,-1,-424,-4653,23,-334,-155,136
508,2159,-1,-424,-4659,23,-341,-151,139
509,2161,-2,-427,-4652,23,-344,-154,140
510,2163,-1,-426,-4659,23,-342,-159,139
511,2160,-2,-428,-4657,23,-347,-154,140
512,2161,0,-430,-4656,23,-344,-155,140
513,2159,0,-424,-4655,23,-345,-153,143
514,2157,-1,-425,-4655,23,-347,-148,139
515,2159,0,-423,-4655,23,-351,-147,135
516,2160,-4,-425,-4656,23,-344,-151,139
517,2158,1,-430,-4658,23,-345,-149,135
518,2158,0,-433,-4655,23,-345,-151,141
519,2158,-1,-433,-4658,23,-341,-150,143
520,2156,1,-427,-4659,23,-348,-150,141
521,2160,2,-424,-4650,23,-343,-151,138
522,2161,2,-421,-4650,23,-341,-146,138
523,2162,1,-428,-4651,23,-342,-146,140
524,2162,2,-431,-4652,23,-343,-153,136
525,2162,-2,-428,-4654,23,-347,-145,140
526,2164,0,-427,-4652,23,-353,-147,145
527,2160,3,-428,-4652,23,-352,-145,142
528,2160,0,-426,-4659,23,-349,-149,143
529,2160,-3,-429,-4655,23,-352,-147,143
530,2156,0,-420,-4656,23,-350,-148,141
531,2158,1,-426,-4653,23,-347,-147,139
532,2158,0,-422,-4657,23,-351,-147,141
533,2157,0,-430,-4658,23,-351,-147,140
534,2157,4,-431,-4652,23,-350,-146,140
535,2160,0,-430,-4652,23,-354,-149,146
536,2158,-1,-426,-4654,23,-348,-147,143
537,2159,-1,-430,-4653,23,-350,-149,134
538,2156,2,-434,-4654,23,-352,-152,133
539,2157,3,-435,-4655,23,-352,-148,135
540,2158,-2,-425,-4657,23,-348,-147,140
541,2156,-1,-427,-4657,23,-349,-153,143
542,2156,4,-427,-4653,23,-343,-147,139
543,2157,5,-428,-4656,23,-346,-154,140
544,2160,2,-425,-4650,23,-340,-150,141
545,2159,1,-428,-4654,23,-342,-146,139
546,2162,-3,-425,-4654,23,-341,-145,140
547,2159,-4,-423,-4653,23,-350,-147,142
548,2159,-1,-431,-4653,23,-354,-152,136
549,2163,0,-429,-4653,23,-348,-153,139
550,2160,-3,-429,-4654,23,-349,-151,142
551,2158,0,-434,-4656,23,-348,-150,137
552,2161,4,-429,-4651,23,-350,-151,139
553,2160,4,-420,-4655,23,-354,-146,136
554,2159,2,-428,-4659,23,-343,-145,138
555,2158,1,-432,-4656,23,-340,-150,141
556,2159,0,-424,-4653,23,-348,-144,136
557,2162,-1,-420,-4654,23,-343,-152,136
558,2158,1,-432,-4657,23,-347,-145,139
559,2160,-2,-426,-4658,23,-344,-150,137
560,2157,-3,-425,-4656,23,-341,-152,143
561,2157,0,-427,-4655,23,-344,-146,149
562,2159,2,-424,-4650,23,-347,-156,144
563,2157,-1,-423,-4656,23,-352,-149,147
564,2158,-4,-421,-4657,23,-353,-151,144
565,2158,-1,-423,-4661,23,-350,-150,144
566,2163,0,-425,-4660,23,-348,-151,143
567,2159,-2,-427,-4655,23,-345,-148,139
568,2158,-6,-426,-4652,23,-348,-155,136
569,2157,1,-430,-4652,23,-349,-155,144
570,2160,-3,-428,-4655,23,-348,-150,140
571,2161,-3,-428,-4646,23,-347,-151,148
572,2158,-1,-427,-4650,23,-345,-149,147
573,2159,0,-428,-4656,23,-354,-150,149
574,2156,-2,-429,-4655,23,-350,-150,144
575,2159,-1,-426,-4654,23,-343,-152,137
576,2158,-1,-427,-4652,23,-345,-153,140
577,2160,-3,-427,-4654,23,-340,-158,139
578,2157,-1,-426,-4653,23,-346,-159,136
579,2160,-2,-426,-4655,23,-344,-161,141
580,2158,-4,-429,-4650,23,-344,-157,140
581,2158,2,-427,-4652,23,-342,-151,143
582,2163,3,-428,-4649,23,-348,-150,139
583,2159,2,-426,-4652,23,-345,-148,146
584,2158,3,-426,-4655,23,-343,-147,143
585,2159,4,-428,-4653,23,-352,-146,141
586,2164,1,-423,-4656,23,-356,-145,143
587,2162,2,-426,-4660,23,-353,-143,141
588,2157,-2,-437,-4660,23,-347,-145,140
589,2158,0,-430,-4650,23,-347,-148,136
590,2155,3,-425,-4647,23,-341,-148,138
591,2160,1,-425,-4647,23,-342,-151,141
592,2157,0,-420,-4644,23,-343,-150,138
593,2158,1,-426,-4650,23,-352,-150,141
594,2160,0,-422,-4651,23,-348,-155,143
595,2159,0,-424,-4654,23,-349,-153,142
596,2160,0,-429,-4652,23,-352,-154,142
597,2155,-2,-427,-4649,23,-352,-154,140
598,2157,-1,-429,-4650,23,-351,-155,148
599,2157,2,-428,-4651,23,-347,-145,144
600,2161,6,-429,-4649,23,-345,-150,145
601,2162,6,-425,-4645,23,-341,-145,140
602,2160,2,-426,-4651,23,-348,-148,145
603,2161,2,-426,-4655,23,-345,-141,140
604,2156,4,-433,-4655,23,-346,-150,135
605,2161,2,-426,-4646,23,-344,-150,139
606,2161,0,-423,-4652,23,-349,-157,137
607,2162,-2,-421,-4654,23,-346,-160,140
608,2161,2,-428,-4653,23,-351,-151,140
609,2160,-2,-430,-4649,23,-351,-151,134
610,2159,-1,-432,-4654,23,-351,-150,136
611,2160,2,-428,-4653,23,-346,-149,139
612,2160,2,-429,-4650,23,-348,-161,138
613,2159,3,-427,-4653,23,-346,-152,142
614,2162,1,-428,-4650,23,-346,-151,143
615,2159,-2,-429,-4651,23,-352,-150,136
616,2159,0,-429,-4655,23,-347,-142,136
617,2161,1,-426,-4651,23,-343,-153,138
618,2159,3,-428,-4649,23,-347,-148,142
619,2157,-1,-426,-4647,23,-352,-157,145
620,2160,0,-431,-4652,23,-347,-157,146
621,2160,0,-429,-4649,23,-345,-156,141
622,2159,0,-424,-4648,23,-340,-157,134
623,2157,0,-426,-4648,23,-347,-156,138
624,2157,1,-427,-4649,23,-337,-153,139
625,2161,4,-423,-4650,23,-344,-151,138
626,2159,0,-429,-4657,23,-344,-147,139
627,2161,2,-429,-4656,23,-346,-147,140
628,2159,2,-430,-4655,23,-342,-150,141
629,2157,1,-427,-4656,23,-342,-151,143
630,2164,4,-421,-4659,23,-345,-149,142
631,2163,2,-426,-4655,23,-352,-153,140
632,2163,1,-429,-4657,23,-353,-154,133
633,2157,2,-430,-4653,23,-349,-152,138
634,2156,3,-430,-4651,23,-346,-146,141
635,2161,3,-434,-4656,23,-344,-148,138
636,2161,-4,-434,-4652,23,-344,-151,139
637,2161,3,-429,-4653,23,-343,-150,144
638,2163,1,-430,-4650,23,-347,-147,147
639,2164,-1,-429,-4655,23,-347,-147,140
640,2162,2,-429,-4652,23,-341,-153,138
641,2159,-1,-428,-4654,23,-342,-157,136
642,2157,-2,-435,-4652,23,-342,-153,139
643,2156,-1,-434,-4652,23,-344,-144,144
644,2157,0,-430,-4652,23,-339,-145,143
645,2157,2,-429,-4653,23,-343,-141,142
646,2159,5,-424,-4656,23,-347,-148,141
647,2158,3,-427,-4650,23,-344,-151,138
648,2161,0,-427,-4651,23,-347,-146,141
649,2162,2,-429,-4653,23,-344,-147,141
650,2160,0,-435,-4654,23,-351,-150,137
651,2160,5,-432,-4653,23,-345,-155,139
652,2159,7,-423,-4652,23,-341,-158,137
653,2161,4,-430,-4652,23,-346,-152,139
654,2162,-1,-427,-4653,23,-346,-155,138
655,2161,0,-422,-4652,23,-350,-152,145
656,2160,-2,-424,-4655,23,-350,-155,140
657,2159,1,-428,-4656,23,-346,-148,141
658,2160,-4,-430,-4653,23,-348,-158,140
659,2162,0,-425,-4656,23,-348,-154,140
660,2161,-2,-426,-4652,23,-347,-153,137
661,2161,1,-424,-4648,23,-345,-155,139
662,2157,-1,-429,-4648,23,-349,-145,138
663,2161,0,-426,-4649,23,-341,-144,143
664,2159,-3,-427,-4648,23,-341,-143,136
665,2158,1,-424,-4651,23,-348,-151,141
666,2158,3,-432,-4655,23,-339,-153,140
667,2156,3,-427,-4657,23,-348,-148,149
668,2162,3,-424,-4655,23,-348,-148,144
669,2161,0,-424,-4652,23,-349,-143,133
670,2160,1,-422,-4647,23,-351,-151,140
671,2161,2,-429,-4649,23,-348,-145,134
672,2158,2,-424,-4653,23,-349,-144,143
673,2157,0,-430,-4652,23,-346,-151,134
674,2160,3,-432,-4655,23,-354,-154,132
675,2158,2,-433,-4658,23,-346,-153,134
676,2157,0,-430,-4661,23,-350,-143,141
677,2157,0,-425,-4658,23,-351,-153,144
678,2158,0,-427,-4652,23,-346,-155,136
679,2158,1,-430,-4656,23,-346,-161,136
680,2163,1,-425,-4656,23,-344,-152,141
681,2159,1,-424,-4654,23,-349,-151,141
682,2160,-1,-427,-4649,23,-344,-152,144
683,2157,2,-428,-4652,23,-347,-146,145
684,2157,1,-424,-4651,23,-342,-146,143
685,2162,-2,-428,-4651,23,-343,-154,145
686,2160,-1,-428,-4655,23,-342,-150,147
687,2157,0,-425,-4651,23,-348,-149,138
688,2157,2,-424,-4650,23,-345,-155,134
689,2159,0,-428,-4652,23,-345,-145,143
690,2161,2,-429,-4656,23,-348,-156,134
691,2158,3,-428,-4657,23,-350,-160,138
692,2158,0,-431,-4652,23,-350,-155,137
693,2158,0,-425,-4650,23,-348,-152,140
694,2158,0,-418,-4652,23,-347,-154,132
695,2156,-2,-427,-4653,23,-356,-152,138
696,2157,2,-433,-4650,23,-348,-145,140
697,2158,2,-430,-4656,23,-347,-154,136
698,2160,1,-426,-4656,23,-351,-148,143
699,2160,-1,-427,-4650,23,-348,-146,143
700,2160,0,-425,-4653,23,-348,-154,144
701,2161,-1,-426,-4650,23,-339,-146,142
702,2161,-1,-427,-4649,23,-345,-154,138
703,2159,-1,-430,-4650,23,-345,-151,137
704,2161,-2,-426,-4654,23,-344,-143,142
705,2159,-1,-425,-4648,23,-350,-159,141
706,2156,2,-425,-4650,23,-349,-152,142
707,2156,3,-424,-4654,23,-353,-154,141
708,2161,-1,-420,-4655,23,-349,-154,140
709,2156,2,-420,-4653,23,-351,-156,149
710,2157,4,-424,-4656,23,-340,-158,142
711,2157,3,-429,-4650,23,-350,-151,144
712,2155,3,-425,-4648,23,-350,-153,142
713,2158,1,-428,-4654,23,-341,-154,141
714,2156,3,-425,-4651,23,-355,-157,137
715,2158,3,-428,-4653,23,-358,-150,141
716,2162,-2,-427,-4650,23,-354,-154,137
717,2161,-3,-432,-4654,23,-345,-155,145
718,2157,-1,-431,-4658,23,-351,-152,140
719,2159,-1,-434,-4662,23,-347,-146,138
720,2156,0,-432,-4661,23,-345,-150,148
721,2159,1,-427,-4653,23,-349,-147,148
722,2161,4,-428,-4656,23,-351,-146,138
723,2160,5,-429,-4655,23,-342,-151,145
724,2161,5,-432,-4651,23,-342,-150,145
725,2163,-1,-425,-4657,23,-340,-154,143
726,2162,3,-427,-4656,23,-341,-151,141
727,2158,4,-422,-4656,23,-346,-150,140
728,2158,0,-426,-4652,23,-347,-152,139
729,2158,2,-431,-4656,23,-343,-153,134
730,2158,-1,-430,-4655,23,-347,-148,132
731,2161,-1,-424,-4654,23,-353,-154,126
732,2161,1,-428,-4652,23,-344,-153,134
733,2161,3,-428,-4652,23,-345,-147,137
734,2157,2,-423,-4647,23,-348,-147,137
735,2155,2,-427,-4654,23,-356,-150,139
736,2158,1,-425,-4653,23,-349,-146,142
737,2157,2,-426,-4648,23,-349,-148,138
738,2161,1,-426,-4657,23,-347,-149,142
739,2159,1,-429,-4653,23,-347,-141,138
740,2160,2,-430,-4652,23,-347,-144,136
741,2157,2,-432,-4655,23,-349,-148,137
742,2159,3,-422,-4651,23,-344,-153,135
743,2157,1,-429,-4651,23,-346,-151,147
744,2159,-5,-426,-4652,23,-339,-141,148
745,2160,2,-428,-4647,23,-339,-145,143
746,2160,1,-430,-4647,23,-347,-147,148
747,2161,1,-428,-4652,23,-342,-153,141
748,2159,1,-423,-4650,23,-348,-153,135
749,2160,0,-426,-4648,23,-344,-148,133
750,2158,2,-423,-4653,23,-348,-147,141
751,2158,4,-424,-4648,23,-351,-157,143
752,2157,2,-425,-4648,23,-345,-154,144
753,2160,2,-428,-4647,23,-351,-150,140
754,2162,-1,-428,-4650,23,-350,-153,139
755,2160,0,-432,-4650,23,-355,-150,137
756,2157,0,-432,-4649,23,-353,-150,138
757,2158,4,-432,-4650,23,-346,-147,145
758,2159,3,-432,-4651,23,-349,-155,150
759,2162,3,-430,-4651,23,-352,-156,145
760,2161,5,-431,-4647,23,-341,-152,145
761,2158,5,-429,-4648,23,-339,-143,144
762,2158,-1,-423,-4650,23,-349,-144,144
763,2157,-1,-431,-4649,23,-342,-150,133
764,2156,-3,-430,-4656,23,-338,-146,151
765,2159,1,-430,-4656,23,-340,-151,150
766,2158,2,-428,-4657,23,-352,-150,136
767,2156,-4,-430,-4652,23,-351,-154,140
768,2157,3,-430,-4653,23,-348,-151,136
769,2157,4,-428,-4653,23,-348,-152,135
770,2155,7,-434,-4652,23,-347,-157,137
771,2160,2,-431,-4651,23,-351,-149,142
772,2154,0,-427,-4652,23,-346,-158,139
773,2157,1,-425,-4656,23,-349,-150,143
774,2162,2,-424,-4659,23,-351,-143,142
775,2161,2,-428,-4657,23,-350,-149,134
776,2161,1,-426,-4655,23,-342,-154,132
777,2160,2,-424,-4655,23,-349,-151,144
778,2158,-1,-421,-4652,23,-345,-153,140
779,2156,-1,-418,-4658,23,-349,-149,146
780,2155,-1,-431,-4653,23,-348,-147,140
781,2157,2,-432,-4653,23,-347,-151,137
782,2161,2,-429,-4652,23,-342,-146,138
783,2157,3,-427,-4659,23,-352,-147,147
784,2159,4,-433,-4654,23,-350,-146,150
785,2161,2,-428,-4653,23,-351,-145,140
786,2158,4,-429,-4653,23,-343,-152,134
787,2151,4,-426,-4650,23,-343,-151,138
788,2156,0,-432,-4654,23,-350,-159,140
789,2162,1,-433,-4655,23,-346,-157,138
790,2160,2,-430,-4648,23,-345,-153,139
791,2158,2,-430,-4651,23,-347,-145,146
792,2157,-1,-425,-4650,23,-352,-150,144
793,2154,-1,-426,-4646,23,-347,-158,141
794,2157,-1,-428,-4647,23,-341,-156,138
795,2159,0,-426,-4648,23,-346,-150,138
796,2158,2,-420,-4651,23,-351,-152,145
797,2162,1,-424,-4645,23,-346,-150,135
798,2159,1,-428,-4652,23,-343,-145,143
799,2160,0,-423,-4653,23,-352,-148,149
800,2157,3,-430,-4649,23,-351,-152,141
801,2156,0,-426,-4653,23,-349,-156,143
802,2156,-1,-422,-4647,23,-353,-145,137
803,2156,3,-426,-4649,23,-355,-148,141
804,2160,4,-431,-4650,23,-344,-155,135
805,2157,5,-433,-4649,23,-347,-154,140
806,2159,2,-428,-4653,23,-343,-147,139
807,2159,5,-431,-4653,23,-344,-148,141
808,2159,-1,-432,-4653,23,-341,-145,144
809,2156,4,-425,-4654,23,-348,-151,141
810,2158,-1,-427,-4648,23,-345,-157,148
811,2159,-2,-429,-4654,23,-350,-156,144
812,2159,-3,-430,-4653,23,-349,-152,144
813,2158,1,-429,-4655,23,-345,-152,145
814,2156,-1,-427,-4656,23,-347,-152,143
815,2161,1,-429,-4652,23,-346,-149,142
816,2164,0,-427,-4656,23,-348,-152,135
817,2161,1,-428,-4657,23,-351,-151,136
818,2160,-2,-424,-4654,23,-353,-157,138
819,2160,5,-423,-4651,23,-350,-154,141
820,2158,-4,-424,-4653,23,-354,-147,141
821,2161,2,-426,-4648,23,-352,-151,144
822,2159,0,-426,-4657,23,-350,-151,143
823,2160,1,-424,-4660,23,-344,-145,144
824,2161,1,-421,-4657,23,-350,-142,143
825,2159,4,-427,-4652,23,-349,-153,146
826,2160,0,-430,-4652,23,-348,-151,139
827,2157,0,-427,-4649,23,-352,-155,138
828,2159,-1,-428,-4656,23,-346,-164,132
829,2160,1,-430,-4656,23,-347,-159,132
830,2157,-2,-430,-4654,23,-338,-156,135
831,2159,4,-433,-4652,23,-347,-154,136
832,2160,0,-431,-4653,23,-345,-151,135
833,2153,1,-427,-4654,23,-346,-150,140
834,2158,4,-424,-4651,23,-342,-147,144
835,2154,0,-428,-4650,23,-342,-159,142
836,2154,3,-426,-4655,23,-346,-153,145
837,2156,0,-427,-4654,23,-348,-152,141
838,2159,0,-423,-4654,23,-346,-155,142
839,2158,2,-423,-4659,23,-347,-151,142
840,2159,4,-427,-4655,23,-345,-156,137
841,2159,0,-424,-4650,23,-349,-154,142
842,2161,1,-426,-4660,23,-349,-153,134
843,2158,1,-426,-4654,23,-348,-154,138
844,2163,0,-426,-4655,23,-350,-145,142
845,2159,-2,-427,-4655,23,-352,-150,143
846,2162,3,-431,-4653,23,-346,-150,145
847,2158,-1,-426,-4650,23,-346,-153,143
848,2158,1,-431,-4653,23,-345,-159,139
849,2155,0,-431,-4651,23,-342,-155,142
850,2155,-2,-428,-4647,23,-346,-155,137
851,2158,1,-428,-4650,23,-336,-155,149
852,2158,-1,-427,-4648,23,-351,-150,144
853,2158,1,-427,-4654,23,-348,-146,141
854,2157,-4,-435,-4655,23,-350,-144,140
855,2160,-3,-428,-4653,23,-355,-148,141
856,2161,3,-428,-4654,23,-354,-161,141
857,2162,0,-425,-4651,23,-342,-156,137
858,2159,1,-433,-4653,23,-344,-153,140
859,2158,1,-428,-4654,23,-342,-156,138
860,2158,1,-426,-4656,23,-349,-154,136
861,2157,1,-425,-4654,23,-353,-151,139
862,2158,1,-435,-4648,23,-353,-153,145
863,2157,0,-425,-4650,23,-344,-154,140
864,2160,1,-424,-4651,23,-344,-150,142
865,2162,0,-432,-4653,23,-348,-147,138
866,2161,0,-427,-4652,23,-345,-139,145
867,2158,0,-430,-4655,23,-352,-156,139
868,2158,-2,-426,-4653,23,-345,-161,147
869,2155,-3,-428,-4655,23,-341,-160,153
870,2153,5,-427,-4654,23,-349,-153,143
871,2159,-2,-430,-4654,23,-343,-155,139
872,2163,1,-431,-4646,23,-345,-157,138
873,2165,1,-432,-4648,23,-350,-154,143
874,2159,-3,-425,-4652,23,-352,-154,136
875,2159,-5,-426,-4653,23,-351,-152,143
876,2158,-2,-428,-4653,23,-352,-157,141
877,2157,1,-423,-4652,23,-351,-155,141
878,2157,1,-422,-4653,23,-348,-151,141
879,2158,0,-427,-4655,23,-348,-146,140
880,2159,1,-429,-4648,23,-346,-149,146
881,2157,1,-425,-4660,23,-349,-149,144
882,2159,1,-419,-4655,23,-347,-148,140
883,2157,-2,-429,-4655,23,-350,-143,140
884,2157,1,-429,-4656,23,-352,-145,140
885,2159,2,-427,-4655,23,-354,-149,144
886,2161,2,-429,-4653,23,-352,-156,144
887,2157,6,-423,-4649,23,-349,-151,140
888,2154,-1,-426,-4654,23,-349,-148,147
889,2156,1,-427,-4659,23,-341,-151,143
890,2160,0,-430,-4658,23,-345,-158,136
891,2163,-1,-428,-4652,23,-346,-144,140
892,2160,-4,-428,-4650,23,-353,-148,137
893,2160,-3,-431,-4646,23,-342,-153,137
894,2158,2,-435,-4657,23,-342,-151,147
895,2158,2,-435,-4656,23,-341,-145,145
896,2158,2,-430,-4655,23,-344,-153,140
897,2158,1,-426,-4650,23,-350,-149,133
898,2160,2,-423,-4652,23,-353,-145,139
899,2160,2,-422,-4648,23,-343,-149,140
900,2161,1,-426,-4648,23,-346,-147,138
901,2161,4,-430,-4654,23,-345,-148,139
902,2158,3,-435,-4660,23,-348,-149,142
903,2155,3,-436,-4661,23,-346,-145,142
904,2157,1,-431,-4654,23,-353,-151,138
905,2155,0,-425,-4654,23,-342,-150,138
906,2159,-2,-428,-4652,23,-346,-147,138
907,2156,2,-427,-4650,23,-348,-155,143
908,2156,0,-426,-4649,23,-346,-150,142
909,2158,3,-428,-4648,23,-346,-149,133
910,2158,6,-424,-4651,23,-352,-146,136
911,2161,5,-426,-4653,23,-352,-151,138
912,2158,-1,-426,-4655,23,-346,-144,134
913,2159,2,-430,-4655,23,-339,-150,133
914,2159,3,-427,-4650,23,-341,-145,131
915,2156,0,-430,-4648,23,-340,-146,133
916,2159,-2,-431,-4650,23,-348,-146,132
917,2157,3,-429,-4649,23,-351,-156,135
918,2158,2,-423,-4653,23,-349,-157,136
919,2159,-2,-424,-4651,23,-349,-156,139
920,2158,-1,-422,-4655,23,-343,-144,141
921,2158,0,-426,-4654,23,-347,-148,145
922,2156,-1,-429,-4655,23,-353,-155,146
923,2159,0,-435,-4651,23,-355,-150,147
924,2159,2,-429,-4652,23,-344,-148,149
925,2159,1,-426,-4651,23,-349,-150,137
926,2160,-1,-432,-4652,23,-342,-143,140
927,2160,-2,-432,-4655,23,-339,-145,143
928,2155,0,-431,-4651,23,-353,-152,136
929,2159,-3,-426,-4656,23,-354,-152,144
930,2160,-1,-428,-4654,23,-345,-151,144
931,2157,-2,-427,-4654,23,-347,-146,138
932,2156,1,-422,-4655,23,-347,-150,142
933,2158,3,-420,-4653,23,-346,-157,138
934,2158,4,-426,-4651,23,-349,-151,134
935,2159,2,-430,-4652,23,-343,-146,140
936,2157,2,-427,-4656,23,-345,-154,142
937,2159,5,-426,-4653,23,-346,-150,140
938,2158,6,-423,-4652,23,-343,-150,138
939,2159,4,-428,-4656,23,-352,-149,143
940,2160,3,-435,-4654,23,-357,-152,141
941,2156,3,-429,-4652,23,-355,-155,136
942,2157,3,-424,-4657,23,-348,-150,133
943,2157,1,-420,-4658,23,-349,-150,133
944,2157,3,-430,-4651,23,-339,-148,134
945,2157,1,-430,-4647,23,-346,-149,142
946,2160,0,-427,-4654,23,-348,-154,139
947,2161,-3,-427,-4657,23,-346,-151,135
948,2162,-1,-430,-4648,23,-348,-152,137
949,2160,-6,-427,-4652,23,-344,-155,137
950,2160,-5,-432,-4650,23,-338,-147,137
951,2158,0,-430,-4652,23,-347,-148,138
952,2157,4,-430,-4653,23,-343,-151,141
953,2157,1,-430,-4652,23,-340,-156,139
954,2158,2,-432,-4657,23,-346,-149,140
955,2162,0,-428,-4656,23,-341,-144,131
956,2158,1,-429,-4658,23,-341,-151,138
957,2160,1,-427,-4663,23,-343,-148,139
958,2158,-1,-428,-4658,23,-350,-154,141
959,2158,3,-427,-4654,23,-347,-151,146
960,2153,3,-426,-4655,23,-347,-151,142
961,2159,2,-432,-4653,23,-350,-147,141
962,2161,4,-432,-4651,23,-346,-152,139
963,2160,4,-430,-4650,23,-341,-156,141
964,2161,3,-429,-4656,23,-344,-158,137
965,2161,2,-428,-4654,23,-355,-153,139
966,2160,1,-426,-4659,23,-348,-154,134
967,2159,0,-427,-4658,23,-343,-155,140
968,2156,1,-427,-4657,23,-345,-151,139
969,2156,0,-430,-4648,23,-348,-153,140
970,2159,-1,-428,-4657,23,-345,-146,145
971,2155,2,-432,-4652,23,-343,-147,144
972,2157,5,-431,-4651,23,-342,-147,138
973,2158,2,-436,-4648,23,-343,-147,143
974,2156,4,-434,-4650,23,-346,-152,144
975,2159,3,-428,-4647,23,-344,-153,145
976,2155,2,-421,-4649,23,-346,-158,146
977,2159,0,-428,-4649,23,-349,-155,142
978,2161,-3,-427,-4652,23,-347,-166,141
979,2157,0,-427,-4652,23,-347,-156,140
980,2156,-1,-430,-4654,23,-352,-155,135
981,2159,0,-425,-4649,23,-348,-149,136
982,2157,1,-425,-4653,23,-351,-149,135
983,2157,1,-428,-4653,23,-344,-148,136
984,2157,2,-430,-4652,23,-348,-154,140
985,2155,1,-430,-4651,23,-345,-155,148
986,2159,-1,-426,-4651,23,-344,-152,146
987,2158,-1,-423,-4651,23,-352,-153,138
988,2156,2,-426,-4656,23,-344,-149,140
989,2157,2,-424,-4652,23,-346,-152,144
990,2159,0,-428,-4651,23,-348,-150,141
991,2157,0,-431,-4648,23,-355,-144,141
992,2157,0,-430,-4651,23,-352,-141,139
993,2155,-3,-425,-4648,23,-345,-152,143
994,2159,-4,-428,-4647,23,-343,-152,143
995,2157,-5,-427,-4652,23,-344,-141,139
996,2160,1,-426,-4654,23,-347,-149,143
997,2160,-1,-423,-4649,23,-341,-149,139
998,2158,2,-426,-4647,23,-348,-150,139
