,acc_X,acc_Y,acc_Z,temp,tempC,gyr_X,gyr_Y,gyr_Z
0,4326,4,-845,-4754,23,-346,-144,140
1,4313,9,-862,-4729,23,-346,-150,143
2,4310,-9,-838,-4743,23,-349,-132,142
3,4312,-8,-854,-4735,23,-357,-150,133
4,4313,-12,-839,-4749,23,-347,-148,149
5,4319,-2,-857,-4726,23,-348,-152,134
6,4326,12,-856,-4741,23,-343,-133,135
7,4311,3,-837,-4729,23,-338,-161,134
8,4351,28,-861,-4745,23,-336,-150,130
9,4347,1,-835,-4740,23,-341,-141,127
10,4335,21,-841,-4736,23,-350,-157,138
11,4304,-2,-835,-4746,23,-328,-164,136
12,4322,0,-863,-4736,23,-323,-140,154
13,4333,-4,-836,-4732,23,-329,-151,134
14,4302,-1,-817,-4730,23,-342,-148,145
15,4316,-6,-835,-4734,23,-347,-148,124
16,4328,-7,-851,-4734,23,-353,-139,148
17,4322,6,-833,-4737,23,-335,-150,146
18,4315,10,-878,-4754,23,-331,-144,137
19,4325,15,-840,-4737,23,-354,-137,140
20,4330,1,-875,-4736,23,-348,-163,141
21,4328,-6,-886,-4742,23,-351,-162,145
22,4332,-2,-858,-4723,23,-350,-141,133
23,4313,-5,-866,-4750,23,-345,-145,138
24,4317,22,-828,-4730,23,-328,-154,143
25,4322,-22,-874,-4717,23,-348,-156,158
26,4292,24,-858,-4733,23,-350,-145,143
27,4305,-6,-863,-4727,23,-329,-139,137
28,4324,20,-860,-4733,23,-348,-160,135
29,4320,8,-873,-4732,23,-345,-144,137
30,4323,3,-855,-4720,23,-316,-153,139
31,4311,-2,-865,-4735,23,-349,-145,147
32,4323,1,-857,-4745,23,-342,-145,139
33,4311,-9,-858,-4749,23,-348,-158,126
34,4333,-7,-817,-4738,23,-335,-156,136
35,4331,-2,-860,-4751,23,-348,-151,141
36,4311,4,-850,-4739,23,-345,-147,146
37,4326,18,-875,-4740,23,-344,-138,150
38,4305,11,-887,-4732,23,-322,-148,128
39,4323,15,-824,-4735,23,-335,-163,142
40,4313,6,-877,-4748,23,-360,-153,143
41,4296,-5,-854,-4742,23,-344,-157,125
42,4322,-4,-850,-4740,23,-329,-148,148
43,4319,-1,-850,-4751,23,-365,-150,161
44,4321,17,-841,-4736,23,-344,-147,136
45,4326,-3,-885,-4750,23,-340,-152,146
46,4306,10,-820,-4731,23,-338,-141,154
47,4305,6,-862,-4734,23,-351,-153,132
48,4319,-9,-840,-4735,23,-346,-158,139
49,4309,0,-854,-4728,23,-344,-140,155
50,4318,-6,-858,-4728,23,-352,-152,135
51,4305,-6,-883,-4741,23,-343,-150,154
52,4307,10,-899,-4735,23,-338,-154,141
53,4325,5,-857,-4741,23,-353,-145,145
54,4327,8,-826,-4721,23,-352,-134,146
55,4303,-9,-854,-4736,23,-351,-152,137
56,4331,-14,-843,-4736,23,-341,-136,136
57,4316,15,-819,-4735,23,-331,-142,128
58,4328,19,-850,-4740,23,-336,-148,152
59,4321,-6,-858,-4730,23,-348,-147,140
60,4324,5,-861,-4737,23,-341,-144,133
61,4335,-12,-835,-4736,23,-345,-174,137
62,4320,5,-821,-4753,23,-363,-157,137
63,4317,-7,-856,-4746,23,-354,-158,140
64,4327,1,-829,-4728,23,-346,-156,131
65,4326,-7,-819,-4743,23,-340,-147,141
66,4334,-9,-869,-4746,23,-339,-153,160
67,4324,-8,-879,-4747,23,-346,-157,138
68,4326,20,-847,-4735,23,-357,-146,139
69,4320,-1,-817,-4742,23,-345,-140,129
70,4301,-11,-839,-4738,23,-337,-158,148
71,4332,5,-868,-4740,23,-327,-138,135
72,4307,-2,-850,-4744,23,-358,-146,126
73,4318,3,-839,-4744,23,-352,-151,138
74,4330,11,-832,-4739,23,-356,-142,163
75,4344,6,-858,-4727,23,-354,-154,144
76,4321,-13,-840,-4736,23,-348,-159,130
77,4304,-14,-839,-4730,23,-363,-149,135
78,4319,-12,-845,-4730,23,-357,-152,144
79,4315,15,-862,-4741,23,-356,-155,110
80,4310,-6,-862,-4759,23,-356,-139,150
81,4301,-10,-872,-4725,23,-347,-151,141
82,4330,6,-851,-4738,23,-339,-140,124
83,4313,4,-826,-4740,23,-341,-156,139
84,4328,-3,-848,-4744,23,-336,-139,143
85,4323,3,-840,-4724,23,-329,-163,138
86,4301,-4,-865,-4736,23,-328,-165,145
87,4317,-6,-838,-4738,23,-341,-153,164
88,4315,15,-867,-4731,23,-333,-155,147
89,4307,5,-850,-4740,23,-345,-157,138
90,4328,9,-880,-4751,23,-344,-149,149
91,4316,-12,-865,-4733,23,-352,-156,129
92,4315,2,-857,-4732,23,-353,-161,144
93,4311,-4,-858,-4742,23,-346,-134,129
94,4318,-21,-830,-4758,23,-332,-147,133
95,4308,0,-884,-4727,23,-355,-152,139
96,4303,-8,-872,-4744,23,-333,-144,144
97,4318,6,-837,-4737,23,-345,-140,139
98,4321,4,-837,-4739,23,-347,-141,137
99,4338,-11,-859,-4736,23,-339,-153,144
100,4316,-25,-832,-4737,23,-339,-139,128
101,4319,-1,-870,-4732,23,-326,-168,149
102,4309,-3,-845,-4737,23,-359,-151,142
103,4317,-13,-823,-4736,23,-333,-133,143
104,4328,-18,-877,-4741,23,-350,-161,149
105,4314,-15,-874,-4730,23,-342,-168,132
106,4319,4,-850,-4740,23,-339,-161,131
107,4316,2,-864,-4741,23,-345,-151,138
108,4315,9,-836,-4736,23,-356,-151,126
109,4326,8,-864,-4736,23,-329,-146,130
110,4314,-6,-847,-4735,23,-346,-158,148
111,4324,-2,-855,-4740,23,-355,-163,167
112,4305,3,-844,-4733,23,-341,-155,139
113,4317,29,-851,-4720,23,-339,-136,139
114,4318,-13,-825,-4736,23,-338,-151,152
115,4323,-12,-834,-4749,23,-356,-142,131
116,4323,0,-879,-4725,23,-355,-182,145
117,4316,-13,-874,-4743,23,-345,-137,157
118,4332,0,-862,-4734,23,-333,-159,132
119,4316,5,-861,-4736,23,-350,-161,142
120,4314,2,-861,-4736,23,-353,-140,133
121,4314,-6,-841,-4748,23,-334,-158,134
122,4334,9,-864,-4723,23,-342,-157,138
123,4320,12,-857,-4733,23,-333,-140,146
124,4311,1,-852,-4740,23,-344,-138,152
125,4325,-10,-847,-4735,23,-324,-149,145
126,4324,1,-854,-4732,23,-350,-167,125
127,4313,-2,-846,-4736,23,-330,-161,148
128,4332,-11,-853,-4736,23,-350,-136,137
129,4324,7,-835,-4750,23,-357,-151,129
130,4316,10,-848,-4742,23,-343,-144,138
131,4315,-7,-840,-4737,23,-357,-138,144
132,4308,14,-846,-4744,23,-337,-154,139
133,4329,-2,-851,-4737,23,-336,-153,147
134,4316,30,-876,-4740,23,-345,-176,138
135,4325,15,-826,-4739,23,-345,-146,149
136,4317,-5,-874,-4735,23,-343,-140,132
137,4305,11,-822,-4725,23,-345,-163,138
138,4314,-11,-824,-4730,23,-328,-141,138
139,4299,1,-871,-4747,23,-355,-151,141
140,4322,-1,-837,-4731,23,-341,-140,138
141,4310,-1,-844,-4726,23,-357,-157,126
142,4325,12,-840,-4730,23,-347,-169,151
143,4337,14,-880,-4736,23,-334,-159,143
144,4335,6,-860,-4732,23,-326,-141,138
145,4305,2,-845,-4729,23,-358,-145,140
146,4317,5,-861,-4727,23,-356,-143,155
147,4299,13,-857,-4732,23,-348,-152,148
148,4306,13,-854,-4733,23,-359,-158,130
149,4313,-14,-863,-4742,23,-362,-160,134
150,4305,13,-854,-4740,23,-357,-156,142
151,4335,11,-818,-4733,23,-339,-139,159
152,4340,-5,-834,-4738,23,-342,-151,145
153,4325,1,-848,-4729,23,-344,-160,142
154,4326,10,-847,-4730,23,-351,-139,136
155,4313,-19,-889,-4736,23,-349,-156,134
156,4325,9,-859,-4723,23,-344,-150,149
157,4318,-4,-883,-4725,23,-347,-145,149
158,4331,-21,-840,-4731,23,-345,-155,137
159,4321,-4,-817,-4737,23,-348,-157,149
160,4326,23,-858,-4730,23,-331,-159,155
161,4313,20,-824,-4726,23,-328,-136,151
162,4337,-9,-851,-4726,23,-348,-144,148
163,4311,14,-855,-4744,23,-360,-161,131
164,4310,6,-841,-4746,23,-350,-143,131
165,4324,4,-856,-4739,23,-357,-159,124
166,4321,3,-852,-4744,23,-338,-141,145
167,4310,-14,-846,-4733,23,-354,-147,145
168,4319,4,-839,-4741,23,-351,-170,134
169,4331,17,-873,-4730,23,-328,-166,126
170,4329,1,-832,-4730,23,-352,-155,140
171,4324,8,-847,-4742,23,-355,-138,139
172,4311,-29,-869,-4741,23,-371,-160,141
173,4305,0,-842,-4737,23,-349,-139,141
174,4327,9,-843,-4744,23,-346,-146,149
175,4312,8,-845,-4738,23,-349,-142,133
176,4321,-9,-844,-4734,23,-322,-160,130
177,4306,17,-857,-4739,23,-342,-148,125
178,4309,-13,-863,-4742,23,-342,-153,129
179,4334,5,-854,-4728,23,-356,-163,136
180,4331,12,-844,-4733,23,-342,-141,139
181,4312,5,-862,-4739,23,-339,-138,149
182,4327,-1,-857,-4722,23,-344,-163,144
183,4327,6,-840,-4734,23,-335,-156,135
184,4311,12,-863,-4746,23,-348,-134,141
185,4320,1,-877,-4744,23,-334,-161,141
186,4324,-16,-845,-4726,23,-334,-152,148
187,4310,1,-847,-4741,23,-337,-166,138
188,4326,-8,-851,-4727,23,-343,-157,129
189,4307,-7,-858,-4734,23,-352,-162,122
190,4325,-11,-848,-4735,23,-341,-149,143
191,4325,7,-868,-4753,23,-345,-154,135
192,4305,2,-833,-4739,23,-353,-159,147
193,4326,-7,-827,-4723,23,-356,-150,141
194,4319,15,-850,-4743,23,-341,-157,150
195,4306,6,-832,-4730,23,-334,-156,122
196,4316,8,-856,-4743,23,-343,-147,140
197,4330,-4,-884,-4745,23,-349,-164,141
198,4315,5,-866,-4739,23,-352,-148,128
199,4324,16,-846,-4732,23,-349,-164,124
200,4310,-18,-887,-4732,23,-317,-164,124
201,4344,0,-835,-4726,23,-353,-142,138
202,4319,12,-827,-4740,23,-329,-157,136
203,4338,1,-838,-4725,23,-328,-155,135
204,4308,5,-843,-4737,23,-334,-147,145
205,4321,-9,-859,-4739,23,-343,-148,139
206,4326,3,-837,-4739,23,-335,-164,142
207,4309,-7,-835,-4733,23,-372,-135,143
208,4330,-4,-859,-4738,23,-346,-151,142
209,4318,-10,-852,-4734,23,-328,-157,145
210,4322,6,-834,-4736,23,-372,-166,138
211,4312,-2,-875,-4734,23,-345,-157,131
212,4298,2,-841,-4740,23,-339,-166,147
213,4318,-15,-818,-4743,23,-347,-142,130
214,4339,-12,-836,-4733,23,-352,-149,147
215,4338,12,-875,-4743,23,-356,-164,143
216,4321,15,-853,-4743,23,-352,-162,143
217,4325,20,-857,-4735,23,-338,-144,158
218,4309,-10,-829,-4732,23,-336,-161,138
219,4308,7,-844,-4732,23,-358,-147,134
220,4321,8,-839,-4731,23,-344,-152,121
221,4312,9,-853,-4733,23,-345,-151,130
222,4311,16,-840,-4737,23,-325,-160,131
223,4322,8,-859,-4739,23,-325,-144,144
224,4322,-2,-859,-4723,23,-357,-158,129
225,4322,28,-852,-4738,23,-330,-171,141
226,4320,-14,-874,-4727,23,-350,-151,124
227,4329,17,-860,-4741,23,-346,-130,141
228,4327,16,-858,-4743,23,-353,-145,137
229,4322,11,-846,-4725,23,-334,-156,149
230,4316,18,-842,-4737,23,-345,-167,138
231,4301,9,-825,-4740,23,-335,-165,141
232,4305,-5,-851,-4736,23,-335,-152,124
233,4317,12,-870,-4737,23,-330,-144,152
234,4314,-1,-849,-4739,23,-333,-135,149
235,4311,6,-856,-4731,23,-332,-151,145
236,4319,-7,-866,-4736,23,-352,-146,126
237,4314,16,-883,-4731,23,-336,-163,129
238,4328,8,-855,-4731,23,-355,-121,144
239,4325,-1,-833,-4726,23,-340,-156,127
240,4307,-2,-852,-4735,23,-336,-150,130
241,4334,35,-878,-4732,23,-345,-145,155
242,4328,28,-873,-4741,23,-331,-144,134
243,4320,13,-860,-4750,23,-343,-161,150
244,4324,11,-862,-4734,23,-375,-150,149
245,4313,20,-905,-4744,23,-339,-142,133
246,4299,-14,-855,-4740,23,-339,-175,146
247,4312,5,-868,-4750,23,-343,-172,132
248,4328,-1,-832,-4724,23,-343,-148,143
249,4303,-11,-854,-4737,23,-335,-171,132
250,4313,-4,-863,-4742,23,-354,-143,131
251,4325,6,-848,-4726,23,-348,-162,134
252,4324,8,-832,-4730,23,-332,-143,143
253,4324,15,-862,-4750,23,-346,-155,147
254,4306,6,-860,-4748,23,-347,-134,135
255,4326,-4,-848,-4730,23,-339,-141,155
256,4310,7,-821,-4736,23,-358,-174,151
257,4311,3,-847,-4729,23,-329,-153,121
258,4303,5,-866,-4732,23,-348,-149,143
259,4314,-5,-862,-4728,23,-356,-142,153
260,4324,-14,-874,-4725,23,-342,-175,128
261,4312,1,-834,-4733,23,-360,-144,130
262,4322,-4,-842,-4741,23,-366,-137,125
263,4307,5,-856,-4728,23,-348,-159,136
264,4325,8,-847,-4729,23,-336,-133,140
265,4322,11,-843,-4729,23,-344,-139,144
266,4313,4,-828,-4734,23,-323,-158,142
267,4334,8,-864,-4718,23,-324,-160,142
268,4333,12,-848,-4737,23,-342,-147,152
269,4326,9,-855,-4732,23,-357,-164,138
270,4317,0,-848,-4726,23,-339,-153,148
271,4330,29,-849,-4726,23,-346,-153,124
272,4320,9,-847,-4721,23,-337,-151,134
273,4315,12,-876,-4732,23,-341,-166,134
274,4326,6,-850,-4737,23,-355,-134,146
275,4320,4,-858,-4730,23,-344,-154,140
276,4323,0,-882,-4727,23,-348,-154,127
277,4329,0,-868,-4745,23,-335,-160,132
278,4333,4,-843,-4727,23,-348,-153,153
279,4313,3,-847,-4734,23,-341,-141,122
280,4306,14,-838,-4745,23,-363,-153,140
281,4304,-2,-829,-4744,23,-332,-146,140
282,4342,18,-828,-4730,23,-350,-154,132
283,4337,11,-856,-4715,23,-337,-146,142
284,4312,1,-817,-4713,23,-341,-164,138
285,4347,12,-826,-4738,23,-357,-166,143
286,4310,-4,-881,-4722,23,-349,-144,147
287,4314,0,-851,-4732,23,-325,-159,133
288,4343,6,-830,-4746,23,-352,-139,139
289,4296,17,-808,-4736,23,-337,-159,148
290,4295,-1,-848,-4738,23,-343,-151,156
291,4311,-12,-844,-4738,23,-346,-158,133
292,4308,-2,-852,-4732,23,-338,-180,135
293,4329,11,-870,-4731,23,-346,-153,143
294,4298,6,-855,-4742,23,-328,-151,140
295,4304,6,-844,-4737,23,-335,-146,143
296,4328,5,-852,-4726,23,-343,-150,138
297,4324,2,-860,-4740,23,-327,-161,137
298,4308,-8,-844,-4733,23,-341,-160,119
299,4333,1,-842,-4731,23,-334,-152,139
300,4309,-25,-829,-4727,23,-355,-144,143
301,4316,-33,-850,-4748,23,-346,-161,140
302,4313,-12,-850,-4744,23,-335,-167,143
303,4324,-8,-853,-4724,23,-347,-138,154
304,4321,-15,-863,-4734,23,-340,-168,144
305,4346,-10,-854,-4746,23,-334,-153,138
306,4334,-6,-855,-4735,23,-343,-152,139
307,4327,-2,-856,-4726,23,-342,-159,138
308,4302,-13,-836,-4747,23,-339,-156,129
309,4327,-1,-893,-4742,23,-335,-148,129
310,4319,11,-855,-4722,23,-334,-129,132
311,4316,15,-866,-4736,23,-336,-139,142
312,4318,-4,-836,-4752,23,-353,-145,145
313,4336,-8,-858,-4729,23,-352,-162,142
314,4301,11,-882,-4742,23,-345,-149,137
315,4334,-9,-868,-4742,23,-360,-162,127
316,4315,-20,-819,-4743,23,-337,-154,142
317,4329,12,-837,-4721,23,-343,-161,136
318,4339,-5,-848,-4717,23,-337,-154,135
319,4304,12,-866,-4728,23,-344,-166,144
320,4294,4,-863,-4727,23,-330,-150,145
321,4329,2,-853,-4728,23,-343,-156,157
322,4306,-13,-852,-4738,23,-351,-127,143
323,4310,3,-854,-4730,23,-337,-167,137
324,4315,12,-829,-4732,23,-359,-138,138
325,4309,9,-844,-4729,23,-362,-161,143
326,4316,10,-868,-4741,23,-353,-153,144
327,4335,-3,-826,-4736,23,-338,-140,140
328,4316,15,-844,-4718,23,-335,-157,144
329,4313,11,-867,-4728,23,-330,-142,147
330,4315,15,-848,-4725,23,-339,-159,144
331,4336,8,-860,-4734,23,-352,-174,149
332,4310,27,-825,-4727,23,-329,-162,134
333,4316,15,-808,-4731,23,-331,-148,137
334,4318,18,-837,-4723,23,-346,-130,142
335,4324,-17,-846,-4738,23,-361,-152,131
336,4319,-27,-835,-4738,23,-341,-162,147
337,4305,10,-862,-4724,23,-359,-145,153
338,4344,7,-841,-4726,23,-348,-154,150
339,4319,23,-841,-4742,23,-355,-166,133
340,4309,8,-837,-4735,23,-338,-149,149
341,4299,-7,-868,-4735,23,-340,-152,131
342,4305,8,-830,-4731,23,-339,-154,146
343,4314,-8,-862,-4738,23,-338,-144,140
344,4335,19,-851,-4742,23,-346,-150,136
345,4322,-15,-841,-4733,23,-336,-135,143
346,4311,7,-856,-4730,23,-339,-154,139
347,4332,-4,-823,-4734,23,-336,-134,142
348,4321,7,-859,-4738,23,-339,-156,146
349,4310,7,-823,-4728,23,-371,-153,144
350,4319,16,-857,-4723,23,-353,-151,146
351,4315,11,-847,-4732,23,-330,-149,122
352,4301,23,-866,-4732,23,-342,-164,138
353,4321,-8,-865,-4737,23,-336,-155,141
354,4329,-8,-861,-4735,23,-335,-153,134
355,4327,8,-873,-4738,23,-350,-154,121
356,4309,-1,-835,-4741,23,-347,-166,140
357,4324,-10,-845,-4718,23,-359,-159,136
358,4316,-12,-898,-4755,23,-351,-160,140
359,4336,20,-852,-4728,23,-337,-156,149
360,4318,-14,-859,-4739,23,-351,-168,141
361,4330,5,-838,-4735,23,-356,-143,121
362,4324,-2,-859,-4728,23,-343,-151,162
363,4316,-14,-835,-4738,23,-334,-149,151
364,4305,11,-832,-4724,23,-344,-135,138
365,4317,-16,-823,-4727,23,-350,-145,134
366,4322,7,-836,-4741,23,-328,-167,142
367,4315,0,-845,-4734,23,-352,-147,125
368,4321,-2,-873,-4736,23,-357,-152,130
369,4311,1,-833,-4732,23,-344,-161,129
370,4308,10,-855,-4742,23,-347,-144,162
371,4333,-3,-847,-4722,23,-332,-156,128
372,4323,-4,-857,-4746,23,-350,-174,125
373,4330,-4,-850,-4741,23,-339,-136,140
374,4311,20,-846,-4732,23,-341,-163,137
375,4325,6,-850,-4725,23,-346,-164,150
376,4315,-15,-853,-4738,23,-345,-163,142
377,4319,19,-842,-4733,23,-358,-160,143
378,4333,0,-845,-4728,23,-351,-162,145
379,4323,18,-858,-4740,23,-339,-147,125
380,4329,5,-845,-4724,23,-346,-133,130
381,4322,0,-849,-4727,23,-348,-167,149
382,4330,15,-820,-4731,23,-351,-143,138
383,4313,4,-822,-4743,23,-342,-167,134
384,4336,11,-840,-4731,23,-344,-162,144
385,4317,14,-849,-4725,23,-344,-140,125
386,4307,1,-866,-4732,23,-334,-167,154
387,4319,3,-850,-4733,23,-349,-144,145
388,4314,-16,-853,-4726,23,-348,-154,144
389,4313,4,-809,-4723,23,-350,-146,117
390,4317,-18,-842,-4719,23,-344,-154,140
391,4311,7,-826,-4724,23,-336,-159,137
392,4318,-5,-869,-4734,23,-361,-152,151
393,4313,7,-810,-4722,23,-349,-145,135
394,4338,14,-856,-4731,23,-340,-155,140
395,4304,12,-840,-4737,23,-355,-139,134
396,4320,-8,-854,-4730,23,-343,-135,137
397,4312,-1,-834,-4741,23,-334,-154,152
398,4319,-4,-834,-4737,23,-341,-153,148
399,4309,6,-854,-4725,23,-344,-143,143
400,4318,-5,-852,-4730,23,-349,-146,135
401,4326,-5,-850,-4721,23,-354,-138,132
402,4344,-1,-864,-4721,23,-324,-142,141
403,4306,-2,-860,-4729,23,-326,-157,138
404,4325,-1,-831,-4714,23,-341,-164,141
405,4319,-10,-865,-4728,23,-335,-160,136
406,4296,-9,-852,-4726,23,-349,-161,154
407,4323,12,-866,-4721,23,-357,-165,136
408,4310,-6,-867,-4725,23,-355,-168,148
409,4312,-2,-858,-4720,23,-327,-154,150
410,4303,12,-854,-4726,23,-330,-160,130
411,4307,-8,-844,-4726,23,-340,-164,147
412,4333,13,-841,-4729,23,-328,-156,121
413,4335,2,-853,-4733,23,-336,-145,143
414,4309,-11,-853,-4729,23,-326,-151,137
415,4335,15,-852,-4743,23,-338,-163,151
416,4322,-8,-882,-4734,23,-353,-165,135
417,4313,-9,-854,-4728,23,-344,-157,133
418,4297,4,-848,-4731,23,-338,-136,132
419,4319,-10,-852,-4728,23,-344,-160,124
420,4329,1,-842,-4736,23,-337,-144,144
421,4310,6,-829,-4728,23,-346,-161,143
422,4315,9,-847,-4718,23,-357,-155,137
423,4322,-2,-836,-4731,23,-334,-138,134
424,4309,-1,-863,-4728,23,-333,-160,139
425,4322,16,-850,-4739,23,-340,-165,127
426,4309,-15,-836,-4720,23,-341,-159,142
427,4319,14,-837,-4739,23,-346,-152,148
428,4338,-3,-834,-4745,23,-338,-157,160
429,4326,-15,-862,-4727,23,-360,-159,127
430,4305,1,-858,-4736,23,-346,-137,131
431,4330,-6,-832,-4725,23,-326,-145,129
432,4326,5,-856,-4740,23,-346,-141,136
433,4307,-8,-860,-4729,23,-339,-154,140
434,4316,-1,-871,-4747,23,-350,-147,147
435,4328,-7,-854,-4730,23,-337,-153,145
436,4318,-15,-873,-4735,23,-336,-147,134
437,4317,9,-855,-4715,23,-356,-135,141
438,4317,5,-858,-4723,23,-337,-131,142
439,4317,5,-820,-4734,23,-343,-152,145
440,4304,-12,-844,-4738,23,-346,-168,125
441,4297,22,-843,-4732,23,-341,-145,136
442,4341,-11,-847,-4732,23,-359,-145,141
443,4320,1,-861,-4736,23,-351,-162,146
444,4323,12,-853,-4730,23,-346,-141,141
445,4317,21,-840,-4746,23,-359,-154,127
446,4337,9,-846,-4734,23,-344,-136,143
447,4315,-12,-862,-4733,23,-364,-140,141
448,4304,10,-843,-4737,23,-343,-161,147
449,4320,-12,-839,-4731,23,-338,-154,121
450,4319,15,-824,-4737,23,-344,-150,133
451,4317,12,-858,-4716,23,-354,-159,125
452,4325,0,-876,-4725,23,-363,-153,134
453,4321,21,-854,-4740,23,-349,-147,142
454,4331,8,-858,-4729,23,-347,-163,123
455,4334,-24,-839,-4730,23,-347,-161,137
456,4330,14,-854,-4739,23,-328,-139,137
457,4323,-9,-851,-4738,23,-344,-148,143
458,4316,6,-834,-4726,23,-343,-142,143
459,4313,-5,-865,-4723,23,-350,-142,135
460,4323,9,-861,-4729,23,-339,-151,149
461,4299,1,-856,-4730,23,-350,-156,134
462,4338,5,-850,-4735,23,-334,-161,132
463,4331,12,-867,-4739,23,-348,-159,161
464,4302,-9,-832,-4717,23,-347,-139,131
465,4332,-7,-856,-4735,23,-351,-166,154
466,4314,13,-869,-4736,23,-354,-161,127
467,4320,-9,-875,-4739,23,-354,-150,148
468,4310,2,-859,-4741,23,-340,-151,137
469,4307,2,-857,-4724,23,-334,-163,151
470,4319,6,-861,-4713,23,-337,-162,130
471,4325,-13,-847,-4738,23,-341,-152,144
472,4320,7,-829,-4723,23,-359,-145,143
473,4332,-1,-841,-4736,23,-353,-141,149
474,4325,10,-861,-4728,23,-353,-173,140
475,4306,-5,-820,-4725,23,-335,-142,139
476,4327,-4,-827,-4741,23,-345,-158,153
477,4312,-3,-864,-4758,23,-336,-134,154
478,4325,17,-869,-4723,23,-343,-150,138
479,4304,2,-835,-4728,23,-350,-153,143
480,4309,3,-842,-4729,23,-372,-150,136
481,4305,0,-843,-4728,23,-330,-155,160
482,4318,6,-874,-4725,23,-343,-155,139
483,4301,10,-812,-4721,23,-352,-137,136
484,4309,-6,-830,-4726,23,-345,-172,139
485,4321,-12,-864,-4734,23,-345,-156,147
486,4331,6,-849,-4722,23,-338,-162,131
487,4307,8,-845,-4734,23,-342,-133,148
488,4316,1,-858,-4738,23,-350,-158,121
489,4294,12,-856,-4733,23,-342,-152,140
490,4329,21,-866,-4723,23,-335,-137,158
491,4313,-21,-819,-4721,23,-342,-149,132
492,4298,10,-865,-4731,23,-339,-131,152
493,4324,9,-851,-4739,23,-332,-141,128
494,4330,-1,-828,-4726,23,-342,-149,127
495,4306,-6,-848,-4719,23,-337,-133,134
496,4324,0,-826,-4726,23,-335,-142,139
497,4328,-7,-825,-4739,23,-345,-146,125
498,4318,-8,-837,-4731,23,-330,-144,137
499,4336,21,-849,-4724,23,-365,-144,126
500,4319,-4,-831,-4727,23,-358,-141,140
501,4318,2,-862,-4724,23,-349,-136,133
502,4321,11,-834,-4735,23,-349,-150,141
503,4324,14,-864,-4756,23,-346,-150,142
504,4314,16,-851,-4738,23,-355,-176,130
505,4322,7,-866,-4725,23,-338,-152,144
506,4305,0,-844,-4740,23,-346,-149,136
507,4316,-8,-850,-4736,23,-354,-142,135
508,4318,-3,-840,-4741,23,-344,-146,142
509,4317,25,-867,-4736,23,-350,-175,141
510,4310,8,-875,-4742,23,-337,-161,154
511,4309,12,-859,-4727,23,-344,-143,143
512,4310,1,-836,-4731,23,-341,-147,144
513,4324,0,-854,-4740,23,-338,-146,145
514,4334,4,-869,-4735,23,-340,-146,135
515,4337,19,-840,-4724,23,-346,-146,131
516,4307,10,-833,-4721,23,-350,-161,135
517,4323,-21,-868,-4730,23,-349,-172,135
518,4324,2,-868,-4733,23,-351,-139,149
519,4326,-1,-852,-4741,23,-345,-148,171
520,4331,11,-829,-4731,23,-333,-162,139
521,4319,12,-861,-4728,23,-351,-158,139
522,4312,3,-841,-4725,23,-356,-148,123
523,4325,28,-872,-4728,23,-332,-158,134
524,4311,7,-841,-4721,23,-343,-152,132
525,4341,11,-836,-4741,23,-348,-149,139
526,4327,14,-852,-4730,23,-346,-171,151
527,4314,-8,-848,-4722,23,-340,-160,141
528,4324,13,-836,-4733,23,-348,-169,134
529,4327,-10,-840,-4719,23,-333,-161,137
530,4316,-9,-854,-4728,23,-349,-156,130
531,4318,28,-891,-4742,23,-339,-139,150
532,4320,-5,-862,-4743,23,-343,-167,132
533,4328,-6,-859,-4719,23,-345,-169,153
534,4325,0,-853,-4738,23,-356,-146,150
535,4322,-3,-844,-4733,23,-346,-159,130
536,4311,15,-828,-4719,23,-356,-164,132
537,4318,9,-827,-4724,23,-352,-166,126
538,4328,-16,-841,-4725,23,-364,-151,144
539,4323,-5,-834,-4724,23,-354,-146,147
540,4298,-6,-845,-4716,23,-339,-147,117
541,4327,3,-832,-4729,23,-346,-151,140
542,4313,11,-848,-4729,23,-348,-163,149
543,4325,-4,-861,-4739,23,-335,-178,140
544,4342,5,-888,-4715,23,-344,-135,135
545,4302,-10,-853,-4722,23,-336,-149,139
546,4310,13,-827,-4726,23,-349,-141,130
547,4325,4,-834,-4726,23,-328,-155,137
548,4307,-9,-864,-4726,23,-351,-145,135
549,4318,14,-874,-4731,23,-342,-170,143
550,4323,14,-835,-4727,23,-339,-136,133
551,4321,-4,-834,-4728,23,-348,-155,146
552,4327,7,-893,-4734,23,-364,-139,136
553,4301,-15,-866,-4729,23,-345,-153,141
554,4317,4,-886,-4725,23,-344,-160,141
555,4312,4,-840,-4721,23,-354,-146,139
556,4313,21,-843,-4725,23,-349,-162,138
557,4300,18,-847,-4729,23,-356,-162,142
558,4297,-6,-855,-4729,23,-341,-145,146
559,4317,-3,-862,-4736,23,-354,-142,134
560,4323,10,-862,-4727,23,-341,-154,145
561,4296,7,-839,-4730,23,-353,-129,149
562,4329,-15,-856,-4729,23,-342,-147,145
563,4309,-2,-831,-4731,23,-333,-144,131
564,4330,0,-844,-4722,23,-340,-146,119
565,4330,10,-877,-4720,23,-344,-149,146
566,4326,-19,-861,-4730,23,-328,-165,136
567,4311,-8,-847,-4723,23,-336,-136,145
568,4307,-10,-837,-4720,23,-334,-148,133
569,4307,-4,-837,-4731,23,-342,-146,155
570,4342,9,-844,-4731,23,-347,-152,133
571,4313,9,-830,-4726,23,-339,-152,125
572,4325,0,-856,-4719,23,-333,-162,142
573,4304,-17,-831,-4716,23,-340,-164,129
574,4325,5,-842,-4723,23,-349,-156,139
575,4325,-7,-834,-4737,23,-344,-148,139
576,4332,13,-823,-4731,23,-353,-159,149
577,4321,3,-834,-4716,23,-337,-171,149
578,4314,19,-841,-4717,23,-351,-159,136
579,4324,2,-831,-4714,23,-352,-150,130
580,4323,3,-812,-4741,23,-329,-152,135
581,4323,-8,-845,-4725,23,-339,-133,132
582,4326,-21,-872,-4727,23,-348,-152,121
583,4324,4,-832,-4726,23,-345,-163,144
584,4314,4,-830,-4739,23,-330,-150,145
585,4300,-11,-833,-4714,23,-338,-171,153
586,4321,-10,-831,-4733,23,-334,-144,125
587,4298,-5,-838,-4729,23,-343,-159,113
588,4324,0,-841,-4729,23,-345,-154,146
589,4307,22,-867,-4743,23,-347,-140,125
590,4336,31,-865,-4728,23,-349,-150,128
591,4329,2,-837,-4732,23,-342,-134,150
592,4292,-1,-845,-4718,23,-353,-137,140
593,4323,6,-838,-4720,23,-336,-161,139
594,4306,7,-845,-4730,23,-343,-155,154
595,4335,-6,-844,-4734,23,-348,-162,137
596,4310,-9,-862,-4733,23,-358,-149,147
597,4339,18,-832,-4739,23,-339,-164,142
598,4335,10,-879,-4733,23,-359,-148,146
599,4314,-3,-874,-4731,23,-338,-166,149
600,4328,-14,-858,-4730,23,-338,-142,149
601,4326,-6,-866,-4744,23,-330,-153,158
602,4309,-2,-870,-4731,23,-337,-160,138
603,4314,-10,-853,-4737,23,-368,-127,153
604,4325,-10,-853,-4730,23,-336,-143,135
605,4320,-13,-847,-4725,23,-351,-161,134
606,4320,10,-821,-4728,23,-352,-148,134
607,4324,19,-857,-4729,23,-339,-150,137
608,4320,-8,-861,-4729,23,-331,-147,150
609,4330,4,-847,-4718,23,-354,-152,126
610,4323,-8,-846,-4732,23,-344,-137,157
611,4317,3,-824,-4738,23,-363,-146,150
612,4314,7,-850,-4734,23,-348,-140,140
613,4315,-6,-832,-4730,23,-363,-157,128
614,4305,20,-856,-4726,23,-347,-163,150
615,4314,-10,-879,-4710,23,-350,-164,127
616,4313,17,-833,-4734,23,-346,-150,149
617,4324,-2,-826,-4721,23,-328,-162,143
618,4310,-17,-878,-4725,23,-333,-149,143
619,4343,31,-859,-4742,23,-352,-162,139
620,4327,13,-829,-4715,23,-350,-144,150
621,4315,15,-854,-4720,23,-334,-145,136
622,4310,9,-850,-4732,23,-350,-166,155
623,4309,-2,-850,-4732,23,-330,-147,142
624,4313,-3,-871,-4722,23,-361,-171,151
625,4324,12,-839,-4737,23,-337,-138,149
626,4313,-4,-871,-4736,23,-356,-178,130
627,4313,15,-835,-4740,23,-332,-151,134
628,4321,14,-846,-4731,23,-329,-153,135
629,4318,4,-874,-4728,23,-354,-155,139
630,4317,22,-867,-4734,23,-332,-138,155
631,4334,24,-851,-4733,23,-334,-151,145
632,4321,-7,-866,-4729,23,-354,-152,141
633,4333,5,-882,-4733,23,-356,-146,145
634,4339,6,-839,-4729,23,-357,-163,137
635,4309,11,-846,-4721,23,-340,-166,145
636,4314,0,-856,-4726,23,-355,-157,138
637,4324,7,-858,-4741,23,-348,-144,138
638,4321,7,-860,-4739,23,-351,-144,119
639,4311,12,-823,-4738,23,-343,-149,145
640,4319,16,-849,-4736,23,-339,-156,160
641,4311,9,-823,-4737,23,-342,-153,132
642,4306,-3,-857,-4724,23,-334,-148,118
643,4314,10,-840,-4727,23,-336,-156,134
644,4322,0,-844,-4731,23,-349,-145,129
645,4321,5,-843,-4721,23,-341,-162,147
646,4320,15,-826,-4734,23,-373,-152,153
647,4321,-1,-858,-4734,23,-343,-156,133
648,4330,-7,-853,-4736,23,-343,-156,133
649,4322,18,-860,-4746,23,-348,-150,135
650,4333,15,-845,-4732,23,-357,-150,146
651,4321,-3,-869,-4728,23,-360,-149,132
652,4310,16,-837,-4735,23,-348,-147,150
653,4320,-5,-836,-4726,23,-333,-156,149
654,4333,-16,-840,-4735,23,-344,-152,137
655,4321,-3,-847,-4735,23,-344,-148,137
656,4329,-1,-844,-4734,23,-357,-155,137
657,4333,21,-852,-4721,23,-360,-163,139
658,4329,5,-846,-4715,23,-360,-138,148
659,4311,14,-856,-4738,23,-352,-148,124
660,4326,10,-854,-4729,23,-325,-164,127
661,4316,2,-858,-4729,23,-341,-157,139
662,4322,8,-847,-4730,23,-347,-149,132
663,4314,7,-852,-4732,23,-334,-141,144
664,4329,3,-848,-4726,23,-351,-171,136
665,4327,-18,-832,-4715,23,-346,-165,133
666,4309,10,-838,-4728,23,-336,-157,141
667,4322,4,-830,-4709,23,-357,-148,146
668,4309,14,-854,-4734,23,-357,-140,144
669,4343,6,-837,-4728,23,-334,-161,133
670,4331,-11,-879,-4739,23,-342,-139,134
671,4317,-14,-822,-4734,23,-352,-150,136
672,4334,7,-820,-4723,23,-353,-135,123
673,4319,-4,-855,-4728,23,-344,-153,145
674,4320,1,-843,-4728,23,-354,-145,142
675,4319,6,-829,-4736,23,-349,-153,146
676,4320,15,-840,-4722,23,-356,-146,137
677,4332,18,-871,-4721,23,-325,-138,152
678,4333,15,-863,-4733,23,-344,-133,128
679,4325,-4,-853,-4728,23,-337,-144,145
680,4335,-3,-843,-4730,23,-345,-148,139
681,4314,1,-860,-4747,23,-340,-135,143
682,4328,2,-885,-4723,23,-357,-164,131
683,4328,8,-867,-4725,23,-345,-150,142
684,4309,-4,-868,-4715,23,-333,-152,147
685,4314,-6,-847,-4731,23,-356,-148,147
686,4319,-3,-850,-4730,23,-359,-162,133
687,4318,-3,-851,-4733,23,-339,-150,140
688,4312,-16,-869,-4731,23,-351,-158,133
689,4323,12,-850,-4734,23,-323,-150,125
690,4304,-6,-876,-4737,23,-346,-163,136
691,4324,7,-873,-4717,23,-340,-168,147
692,4322,-21,-857,-4718,23,-348,-157,128
693,4330,-8,-852,-4732,23,-344,-142,131
694,4328,-1,-840,-4735,23,-338,-159,139
695,4319,14,-835,-4741,23,-348,-150,139
696,4313,-3,-871,-4731,23,-361,-156,138
697,4313,-12,-849,-4729,23,-350,-140,136
698,4308,4,-857,-4723,23,-343,-152,131
699,4309,5,-864,-4734,23,-352,-142,137
700,4303,8,-862,-4727,23,-356,-155,130
701,4308,-5,-847,-4740,23,-325,-157,130
702,4319,-10,-829,-4750,23,-324,-160,151
703,4311,0,-844,-4725,23,-336,-164,147
704,4318,-6,-849,-4729,23,-342,-141,118
705,4309,9,-839,-4723,23,-346,-138,142
706,4314,4,-854,-4731,23,-346,-141,135
707,4313,-5,-891,-4728,23,-338,-151,128
708,4312,5,-848,-4723,23,-336,-156,132
709,4342,2,-813,-4722,23,-340,-128,148
710,4331,8,-838,-4714,23,-369,-153,145
711,4308,8,-854,-4723,23,-332,-163,116
712,4309,-9,-849,-4741,23,-345,-149,132
713,4311,1,-867,-4725,23,-344,-148,144
714,4309,21,-847,-4723,23,-328,-165,156
715,4309,-22,-832,-4710,23,-342,-152,149
716,4314,-14,-843,-4739,23,-337,-152,150
717,4336,10,-851,-4727,23,-332,-150,144
718,4306,0,-830,-4727,23,-345,-144,139
719,4312,-8,-842,-4732,23,-357,-139,144
720,4328,3,-856,-4728,23,-348,-154,147
721,4322,4,-870,-4729,23,-330,-162,131
722,4327,-8,-862,-4728,23,-344,-144,144
723,4341,-10,-798,-4736,23,-327,-132,140
724,4322,-1,-834,-4717,23,-346,-166,146
725,4300,-15,-873,-4728,23,-349,-150,145
726,4313,-6,-846,-4727,23,-359,-159,144
727,4323,-14,-839,-4725,23,-332,-140,141
728,4300,-23,-841,-4730,23,-346,-146,142
729,4328,15,-867,-4723,23,-337,-138,134
730,4315,-6,-843,-4720,23,-329,-150,128
731,4345,15,-871,-4733,23,-339,-155,145
732,4320,4,-861,-4713,23,-345,-155,148
733,4326,10,-829,-4727,23,-357,-144,121
734,4302,-5,-806,-4720,23,-337,-149,127
735,4319,-18,-883,-4719,23,-343,-145,141
736,4326,11,-879,-4739,23,-360,-152,154
737,4300,9,-851,-4726,23,-337,-150,155
738,4329,20,-855,-4719,23,-346,-145,130
739,4339,4,-849,-4728,23,-347,-166,154
740,4317,-3,-838,-4729,23,-338,-133,129
741,4336,4,-860,-4727,23,-349,-166,133
742,4301,-2,-864,-4734,23,-345,-144,148
743,4324,9,-841,-4725,23,-360,-154,132
744,4336,10,-853,-4721,23,-352,-173,150
745,4304,-11,-860,-4724,23,-359,-162,141
746,4327,-5,-854,-4724,23,-337,-169,142
747,4322,9,-845,-4733,23,-333,-171,144
748,4315,-5,-822,-4728,23,-345,-137,136
749,4315,6,-847,-4730,23,-343,-139,141
750,4323,-1,-848,-4725,23,-344,-166,133
751,4303,0,-847,-4734,23,-348,-155,137
752,4343,4,-841,-4727,23,-343,-156,150
753,4331,4,-859,-4728,23,-354,-153,148
754,4326,-4,-859,-4713,23,-344,-150,129
755,4324,17,-846,-4730,23,-342,-164,117
756,4323,-7,-859,-4717,23,-365,-154,145
757,4322,0,-845,-4716,23,-348,-140,145
758,4317,11,-829,-4722,23,-340,-132,140
759,4327,-1,-843,-4714,23,-334,-158,136
760,4301,13,-870,-4717,23,-347,-149,157
761,4308,-8,-845,-4725,23,-350,-144,139
762,4329,8,-856,-4730,23,-346,-132,141
763,4329,-21,-843,-4737,23,-349,-146,150
764,4323,6,-863,-4732,23,-322,-156,133
765,4324,6,-822,-4717,23,-336,-153,136
766,4312,18,-851,-4728,23,-341,-143,132
767,4318,15,-829,-4734,23,-338,-157,146
768,4320,21,-850,-4727,23,-354,-154,130
769,4319,10,-893,-4728,23,-348,-147,147
770,4327,-3,-862,-4729,23,-362,-136,154
771,4322,15,-850,-4721,23,-350,-148,152
772,4315,10,-868,-4726,23,-348,-151,135
773,4327,2,-816,-4739,23,-335,-144,140
774,4317,5,-837,-4725,23,-336,-150,160
775,4328,2,-849,-4724,23,-331,-168,133
776,4339,0,-845,-4717,23,-341,-145,141
777,4300,21,-842,-4718,23,-348,-142,145
778,4316,-11,-823,-4714,23,-344,-156,146
779,4307,21,-849,-4719,23,-336,-151,130
780,4322,4,-871,-4724,23,-347,-175,153
781,4315,-16,-854,-4721,23,-347,-144,140
782,4304,11,-878,-4727,23,-336,-156,146
783,4318,-10,-851,-4731,23,-340,-181,151
784,4322,7,-838,-4736,23,-330,-154,128
785,4320,1,-825,-4724,23,-357,-138,130
786,4330,-16,-886,-4722,23,-356,-157,135
787,4320,-6,-850,-4713,23,-348,-142,150
788,4331,3,-854,-4723,23,-327,-155,136
789,4322,-2,-833,-4722,23,-355,-169,140
790,4305,2,-838,-4724,23,-351,-149,139
791,4320,6,-868,-4724,23,-342,-159,130
792,4342,-11,-862,-4728,23,-348,-163,131
793,4341,10,-857,-4727,23,-340,-147,137
794,4299,-13,-827,-4719,23,-351,-145,138
795,4304,20,-879,-4727,23,-339,-147,148
796,4313,5,-847,-4729,23,-334,-157,120
797,4330,-1,-855,-4722,23,-351,-142,144
798,4303,-5,-838,-4715,23,-337,-153,138
799,4320,5,-843,-4731,23,-337,-152,157
800,4334,13,-851,-4722,23,-349,-147,140
801,4315,-6,-868,-4730,23,-335,-175,130
802,4328,1,-838,-4722,23,-338,-148,155
803,4321,7,-818,-4715,23,-352,-158,150
804,4323,26,-869,-4723,23,-350,-144,137
805,4312,0,-845,-4730,23,-345,-146,140
806,4321,-8,-857,-4736,23,-335,-148,149
807,4308,11,-877,-4729,23,-351,-155,118
808,4334,12,-851,-4711,23,-353,-150,156
809,4315,1,-830,-4722,23,-340,-140,147
810,4313,16,-873,-4720,23,-366,-152,137
811,4321,-9,-863,-4726,23,-349,-142,148
812,4343,0,-821,-4726,23,-351,-152,133
813,4300,-11,-838,-4719,23,-339,-146,133
814,4331,-1,-845,-4715,23,-334,-152,128
815,4304,-6,-835,-4707,23,-345,-148,140
816,4329,3,-841,-4740,23,-337,-160,128
817,4325,3,-848,-4724,23,-352,-143,145
818,4330,16,-856,-4728,23,-347,-150,150
819,4336,15,-850,-4721,23,-363,-147,126
820,4338,14,-835,-4715,23,-355,-146,137
821,4305,13,-846,-4726,23,-353,-150,141
822,4313,8,-859,-4721,23,-359,-147,127
823,4316,-11,-870,-4729,23,-345,-146,139
824,4333,-3,-863,-4731,23,-348,-147,139
825,4310,-7,-885,-4718,23,-342,-156,131
826,4344,1,-853,-4719,23,-346,-161,144
827,4316,-2,-850,-4720,23,-339,-152,135
828,4316,8,-866,-4732,23,-357,-149,140
829,4321,-13,-849,-4724,23,-347,-144,148
830,4330,-2,-845,-4716,23,-335,-139,149
831,4306,-15,-853,-4727,23,-360,-138,142
832,4310,-12,-848,-4719,23,-349,-138,137
833,4315,11,-859,-4717,23,-352,-166,139
834,4317,10,-842,-4713,23,-326,-150,146
835,4318,15,-847,-4737,23,-361,-148,137
836,4310,3,-855,-4735,23,-348,-148,149
837,4316,-3,-877,-4729,23,-336,-146,132
838,4302,6,-857,-4732,23,-346,-158,138
839,4307,4,-851,-4735,23,-338,-143,152
840,4302,8,-855,-4723,23,-335,-155,143
841,4310,5,-855,-4723,23,-330,-157,135
842,4308,9,-826,-4722,23,-344,-148,137
843,4324,2,-858,-4722,23,-343,-161,142
844,4317,13,-894,-4723,23,-338,-148,145
845,4319,9,-840,-4707,23,-350,-138,131
846,4314,-2,-871,-4733,23,-356,-156,151
847,4334,-13,-856,-4726,23,-346,-148,146
848,4322,8,-861,-4716,23,-343,-159,141
849,4306,-21,-867,-4727,23,-350,-136,160
850,4307,4,-862,-4725,23,-347,-154,146
851,4313,14,-835,-4732,23,-362,-154,137
852,4317,1,-842,-4734,23,-353,-161,140
853,4298,6,-848,-4726,23,-330,-170,144
854,4316,15,-846,-4734,23,-354,-162,150
855,4320,-17,-841,-4706,23,-341,-163,120
856,4337,-4,-876,-4723,23,-345,-165,138
857,4303,-14,-850,-4732,23,-335,-157,132
858,4314,-10,-872,-4725,23,-348,-152,143
859,4306,-10,-869,-4726,23,-331,-166,145
860,4322,22,-860,-4731,23,-319,-162,131
861,4320,0,-869,-4724,23,-335,-135,142
862,4322,18,-833,-4725,23,-357,-157,140
863,4305,6,-842,-4730,23,-350,-166,134
864,4315,1,-844,-4723,23,-329,-157,136
865,4310,5,-830,-4724,23,-342,-156,127
866,4322,1,-819,-4729,23,-335,-146,134
867,4321,7,-859,-4726,23,-354,-149,127
868,4332,5,-862,-4712,23,-353,-158,139
869,4313,0,-832,-4725,23,-348,-159,145
870,4301,13,-839,-4744,23,-354,-152,136
871,4307,-5,-835,-4730,23,-337,-163,153
872,4330,33,-822,-4715,23,-355,-154,141
873,4314,5,-872,-4725,23,-356,-147,153
874,4310,10,-836,-4722,23,-338,-132,140
875,4332,3,-835,-4742,23,-349,-152,146
876,4317,-24,-876,-4724,23,-322,-158,144
877,4300,13,-845,-4725,23,-338,-152,142
878,4338,-6,-836,-4734,23,-356,-156,140
879,4326,9,-848,-4741,23,-330,-159,132
880,4318,12,-856,-4739,23,-334,-170,131
881,4308,13,-843,-4732,23,-335,-121,140
882,4309,-13,-872,-4718,23,-344,-146,129
883,4342,-8,-853,-4730,23,-338,-142,147
884,4319,2,-843,-4720,23,-324,-151,139
885,4328,1,-865,-4717,23,-331,-147,124
886,4317,-18,-811,-4706,23,-371,-163,154
887,4333,24,-854,-4736,23,-337,-142,137
888,4318,5,-849,-4727,23,-326,-161,142
889,4330,2,-867,-4708,23,-353,-153,153
890,4312,1,-880,-4715,23,-357,-146,149
891,4314,-4,-855,-4705,23,-343,-174,129
892,4310,-2,-834,-4719,23,-349,-152,125
893,4322,-11,-833,-4714,23,-365,-134,155
894,4313,-7,-868,-4730,23,-330,-174,123
895,4309,-9,-816,-4718,23,-337,-138,133
896,4326,4,-871,-4725,23,-342,-134,144
897,4332,12,-844,-4727,23,-357,-156,150
898,4299,-15,-812,-4721,23,-335,-157,133
899,4314,0,-837,-4716,23,-348,-146,139
900,4325,20,-860,-4720,23,-362,-149,144
901,4328,9,-839,-4732,23,-350,-142,135
902,4303,-5,-834,-4729,23,-333,-159,148
903,4311,-11,-837,-4709,23,-343,-152,145
904,4312,-1,-820,-4723,23,-341,-154,137
905,4306,3,-842,-4734,23,-329,-147,136
906,4320,3,-867,-4723,23,-338,-155,153
907,4317,-19,-832,-4732,23,-333,-173,126
908,4311,-7,-851,-4727,23,-334,-137,142
909,4306,13,-849,-4715,23,-344,-146,132
910,4317,5,-869,-4718,23,-340,-149,143
911,4312,4,-867,-4733,23,-344,-144,142
912,4323,10,-880,-4709,23,-353,-164,150
913,4328,-6,-853,-4725,23,-349,-157,151
914,4297,-4,-842,-4719,23,-336,-154,136
915,4315,15,-883,-4711,23,-331,-147,151
916,4325,2,-847,-4716,23,-352,-143,133
917,4316,3,-837,-4732,23,-340,-159,126
918,4308,14,-854,-4724,23,-342,-149,138
919,4316,-2,-848,-4731,23,-359,-130,144
920,4323,-10,-836,-4707,23,-340,-164,142
921,4316,-11,-847,-4725,23,-356,-139,137
922,4307,23,-863,-4728,23,-351,-158,132
923,4322,10,-840,-4732,23,-341,-139,138
924,4340,7,-861,-4737,23,-345,-153,135
925,4301,-19,-849,-4710,23,-357,-148,143
926,4304,-8,-848,-4722,23,-337,-156,144
927,4326,5,-870,-4739,23,-349,-150,126
928,4327,-12,-836,-4729,23,-364,-157,143
929,4331,18,-817,-4736,23,-341,-145,148
930,4344,2,-833,-4730,23,-352,-134,135
931,4316,16,-834,-4722,23,-346,-137,137
932,4313,-5,-848,-4725,23,-341,-147,133
933,4318,3,-856,-4725,23,-354,-156,150
934,4304,3,-866,-4710,23,-354,-155,151
935,4321,-5,-848,-4716,23,-339,-140,134
936,4307,0,-832,-4725,23,-327,-166,129
937,4316,8,-829,-4721,23,-338,-147,138
938,4326,-3,-852,-4714,23,-344,-148,141
939,4324,11,-855,-4719,23,-328,-161,129
940,4329,10,-831,-4724,23,-331,-150,144
941,4340,10,-837,-4703,23,-330,-131,139
942,4328,13,-846,-4717,23,-333,-127,128
943,4300,3,-866,-4719,23,-341,-161,132
944,4332,0,-864,-4721,23,-327,-145,157
945,4303,7,-846,-4722,23,-329,-133,125
946,4297,-3,-845,-4731,23,-351,-144,135
947,4331,-2,-822,-4738,23,-336,-169,152
948,4309,7,-875,-4731,23,-346,-159,136
949,4324,1,-857,-4727,23,-323,-144,137
950,4316,14,-833,-4723,23,-349,-166,129
951,4323,9,-838,-4712,23,-338,-164,138
952,4323,2,-829,-4724,23,-348,-160,132
953,4321,3,-844,-4727,23,-350,-153,143
954,4319,-12,-862,-4730,23,-352,-141,135
955,4312,-5,-870,-4719,23,-340,-146,135
956,4342,-4,-850,-4719,23,-356,-145,148
957,4324,3,-861,-4719,23,-354,-154,148
958,4323,10,-856,-4721,23,-362,-153,129
959,4314,-12,-868,-4724,23,-352,-161,128
960,4327,4,-847,-4717,23,-357,-144,157
961,4356,-1,-831,-4734,23,-357,-159,140
962,4310,12,-852,-4715,23,-342,-166,142
963,4313,2,-867,-4721,23,-339,-145,127
964,4326,-14,-844,-4728,23,-345,-154,143
965,4327,0,-881,-4731,23,-351,-150,150
966,4300,11,-846,-4722,23,-334,-147,130
967,4311,17,-875,-4716,23,-341,-166,134
968,4324,17,-875,-4721,23,-337,-145,142
969,4318,4,-839,-4723,23,-353,-162,124
970,4337,11,-871,-4724,23,-348,-146,133
971,4323,6,-857,-4723,23,-344,-159,136
972,4300,13,-866,-4716,23,-340,-130,142
973,4296,-7,-844,-4722,23,-338,-158,137
974,4305,7,-850,-4737,23,-344,-156,139
975,4325,-4,-890,-4733,23,-351,-164,148
976,4306,8,-831,-4710,23,-357,-148,134
977,4311,-2,-848,-4725,23,-357,-156,144
978,4322,7,-862,-4720,23,-361,-160,145
979,4311,6,-836,-4720,23,-360,-166,134
980,4319,0,-834,-4709,23,-341,-150,132
981,4323,-14,-811,-4714,23,-346,-155,143
982,4335,-4,-854,-4723,23,-348,-155,144
983,4308,-27,-882,-4726,23,-341,-151,152
984,4315,1,-850,-4730,23,-343,-150,121
985,4325,19,-875,-4730,23,-360,-147,141
986,4307,7,-831,-4730,23,-350,-117,141
987,4320,13,-862,-4730,23,-343,-162,143
988,4337,-1,-834,-4727,23,-336,-148,124
989,4317,-13,-849,-4747,23,-350,-149,147
990,4312,-2,-825,-4715,23,-352,-145,127
991,4312,-2,-862,-4710,23,-341,-157,143
992,4345,7,-850,-4714,23,-350,-172,149
993,4327,14,-863,-4722,23,-340,-156,125
994,4318,6,-848,-4712,23,-350,-137,135
995,4327,-11,-888,-4707,23,-342,-130,133
996,4321,-17,-831,-4714,23,-355,-160,129
997,4295,-4,-839,-4727,23,-358,-159,131
998,4326,28,-830,-4723,23,-326,-137,146
