,acc_X,acc_Y,acc_Z,temp,tempC,gyr_X,gyr_Y,gyr_Z
0,17262,2,-3410,-4870,22,-171,-79,69
1,17246,26,-3444,-4870,22,-171,-77,69
2,17258,42,-3454,-4869,22,-172,-72,73
3,17276,20,-3476,-4866,22,-172,-74,68
4,17266,14,-3448,-4870,22,-172,-77,71
5,17286,34,-3450,-4867,22,-169,-77,65
6,17262,34,-3456,-4862,22,-171,-75,72
7,17256,4,-3430,-4861,22,-171,-76,69
8,17284,-2,-3416,-4859,22,-171,-74,71
9,17276,12,-3436,-4862,22,-170,-75,66
10,17272,36,-3452,-4859,22,-170,-76,71
11,17264,2,-3366,-4862,22,-167,-75,73
12,17250,16,-3434,-4859,22,-167,-75,73
13,17256,22,-3460,-4859,22,-172,-72,72
14,17262,18,-3380,-4866,22,-173,-75,70
15,17274,-6,-3418,-4864,22,-175,-77,72
16,17278,24,-3452,-4863,22,-170,-76,71
17,17296,34,-3476,-4862,22,-172,-79,72
18,17256,74,-3434,-4854,22,-172,-74,69
19,17274,32,-3440,-4854,22,-173,-75,69
20,17258,22,-3408,-4864,22,-171,-76,71
21,17262,-20,-3426,-4865,22,-172,-76,69
22,17250,10,-3464,-4863,22,-173,-74,72
23,17238,24,-3406,-4860,22,-171,-73,68
24,17284,-6,-3452,-4859,22,-169,-74,65
25,17278,12,-3452,-4862,22,-170,-78,66
26,17296,0,-3436,-4859,22,-170,-75,68
27,17272,18,-3464,-4856,22,-171,-72,66
28,17266,58,-3460,-4861,22,-170,-75,67
29,17260,22,-3432,-4857,22,-168,-76,69
30,17244,8,-3448,-4857,22,-172,-79,67
31,17280,10,-3458,-4856,22,-170,-77,67
32,17264,-2,-3456,-4855,22,-172,-77,67
33,17278,-22,-3452,-4858,22,-175,-78,69
34,17266,2,-3480,-4853,22,-174,-77,71
35,17294,26,-3472,-4853,22,-171,-75,71
36,17260,8,-3494,-4849,22,-174,-76,69
37,17254,38,-3446,-4847,22,-171,-76,68
38,17256,70,-3396,-4849,22,-171,-77,69
39,17268,24,-3392,-4850,22,-170,-74,68
40,17270,30,-3438,-4846,22,-169,-72,71
41,17276,-10,-3448,-4851,22,-170,-75,70
42,17296,30,-3448,-4854,22,-168,-76,67
43,17262,28,-3474,-4849,22,-170,-76,68
44,17268,36,-3420,-4844,22,-172,-74,69
45,17266,20,-3424,-4850,22,-174,-76,68
46,17250,24,-3438,-4850,22,-173,-74,64
47,17280,-20,-3466,-4849,22,-168,-75,66
48,17284,6,-3422,-4844,22,-172,-75,67
49,17234,14,-3400,-4845,22,-170,-78,69
50,17250,22,-3464,-4846,22,-166,-77,69
51,17246,28,-3480,-4849,22,-163,-77,71
52,17256,22,-3446,-4852,22,-168,-77,72
53,17284,22,-3414,-4853,22,-170,-78,70
54,17288,12,-3440,-4848,22,-166,-76,69
55,17272,-2,-3444,-4847,22,-169,-78,67
56,17252,10,-3404,-4848,22,-173,-78,69
57,17262,10,-3402,-4848,22,-174,-78,68
58,17274,14,-3456,-4845,22,-173,-77,70
59,17264,6,-3416,-4847,22,-171,-75,70
60,17246,-4,-3388,-4849,22,-167,-73,68
61,17246,10,-3416,-4853,22,-167,-76,69
62,17262,6,-3438,-4850,22,-172,-79,69
63,17286,12,-3424,-4845,22,-169,-76,67
64,17296,4,-3474,-4848,22,-169,-75,66
65,17308,24,-3432,-4849,22,-170,-77,64
66,17314,2,-3446,-4849,22,-173,-76,65
67,17288,4,-3406,-4847,22,-173,-74,64
68,17280,14,-3482,-4846,22,-170,-75,70
69,17260,4,-3442,-4848,22,-169,-76,69
70,17254,10,-3440,-4839,22,-171,-75,68
71,17272,14,-3438,-4843,22,-172,-77,66
72,17288,10,-3454,-4837,22,-172,-74,66
73,17300,-2,-3432,-4841,22,-171,-75,69
74,17278,-26,-3420,-4844,22,-169,-76,69
75,17300,12,-3478,-4847,22,-172,-77,70
76,17274,-2,-3464,-4847,22,-171,-74,72
77,17270,42,-3460,-4838,22,-173,-77,68
78,17280,16,-3466,-4841,22,-172,-73,69
79,17270,28,-3458,-4837,22,-174,-75,65
80,17290,48,-3432,-4836,22,-171,-77,67
81,17294,20,-3436,-4835,22,-171,-77,67
82,17282,4,-3400,-4837,22,-169,-75,71
83,17308,20,-3378,-4830,22,-170,-75,69
84,17264,38,-3404,-4841,22,-169,-75,69
85,17264,18,-3454,-4842,22,-169,-75,67
86,17278,-14,-3460,-4836,22,-171,-75,66
87,17280,34,-3472,-4841,22,-171,-77,68
88,17260,30,-3454,-4839,22,-169,-78,68
89,17230,8,-3406,-4842,22,-168,-78,69
90,17232,12,-3378,-4843,22,-172,-73,68
91,17236,18,-3424,-4843,22,-176,-75,68
92,17234,6,-3466,-4844,22,-174,-76,69
93,17240,20,-3434,-4839,22,-175,-77,66
94,17232,8,-3442,-4841,22,-171,-79,67
95,17242,4,-3462,-4834,22,-173,-79,70
96,17266,8,-3482,-4841,22,-171,-74,66
97,17290,14,-3474,-4839,22,-172,-80,66
98,17318,6,-3434,-4836,22,-168,-74,70
99,17290,8,-3456,-4834,22,-167,-76,70
100,17288,10,-3446,-4833,22,-169,-75,68
101,17280,46,-3480,-4833,22,-171,-76,66
102,17262,16,-3470,-4837,22,-171,-76,68
103,17286,12,-3484,-4833,22,-173,-79,68
104,17258,18,-3428,-4837,22,-170,-78,69
105,17266,36,-3440,-4839,22,-171,-78,69
106,17278,26,-3458,-4836,22,-173,-77,69
107,17284,28,-3396,-4834,22,-171,-75,68
108,17278,26,-3392,-4837,22,-170,-75,71
109,17274,26,-3432,-4838,22,-173,-76,68
110,17310,2,-3454,-4839,22,-175,-78,70
111,17292,-16,-3446,-4838,22,-173,-78,68
112,17242,-6,-3476,-4839,22,-173,-77,68
113,17244,24,-3448,-4838,22,-171,-73,70
114,17258,46,-3388,-4837,22,-171,-75,69
115,17286,8,-3376,-4830,22,-172,-76,68
116,17268,-18,-3412,-4831,22,-169,-78,71
117,17252,0,-3438,-4831,22,-169,-73,66
118,17240,6,-3410,-4829,22,-169,-75,67
119,17242,16,-3414,-4829,22,-173,-76,68
120,17244,2,-3422,-4831,22,-171,-79,69
121,17266,8,-3442,-4835,22,-175,-74,69
122,17310,14,-3480,-4832,22,-170,-77,69
123,17288,-14,-3472,-4828,22,-171,-75,69
124,17290,12,-3472,-4831,22,-174,-80,66
125,17272,16,-3446,-4827,22,-175,-77,70
126,17266,46,-3460,-4830,22,-176,-76,69
127,17262,38,-3432,-4829,22,-172,-75,70
128,17254,20,-3420,-4825,22,-169,-75,72
129,17262,28,-3452,-4830,22,-174,-76,72
130,17234,-2,-3432,-4828,22,-172,-75,69
131,17256,10,-3422,-4826,22,-172,-76,68
132,17246,10,-3460,-4830,22,-169,-83,72
133,17264,18,-3430,-4831,22,-171,-79,69
134,17264,40,-3456,-4830,22,-173,-77,67
135,17276,28,-3470,-4829,22,-171,-73,69
136,17294,22,-3426,-4829,22,-170,-76,66
137,17276,28,-3422,-4826,22,-168,-76,70
138,17276,-14,-3422,-4828,22,-170,-75,68
139,17314,8,-3410,-4830,22,-172,-74,70
140,17288,26,-3406,-4830,22,-171,-77,67
141,17262,-2,-3392,-4825,22,-171,-75,69
142,17278,6,-3424,-4826,22,-170,-74,70
143,17280,-18,-3404,-4825,22,-170,-73,70
144,17296,-6,-3402,-4825,22,-172,-72,68
145,17284,8,-3428,-4829,22,-174,-74,66
146,17290,44,-3396,-4826,22,-170,-77,67
147,17296,14,-3416,-4824,22,-172,-75,70
148,17300,28,-3434,-4823,22,-170,-71,68
149,17274,50,-3486,-4831,22,-170,-72,68
150,17286,30,-3422,-4828,22,-170,-73,69
151,17292,24,-3412,-4830,22,-171,-74,72
152,17302,12,-3398,-4827,22,-172,-75,69
153,17296,-2,-3422,-4824,22,-172,-78,68
154,17290,54,-3454,-4828,22,-171,-79,67
155,17318,24,-3428,-4823,22,-169,-78,68
156,17258,28,-3448,-4823,22,-168,-77,71
157,17274,4,-3426,-4825,22,-170,-79,71
158,17242,36,-3416,-4825,22,-170,-75,69
159,17264,16,-3468,-4826,22,-171,-76,70
160,17270,10,-3464,-4823,22,-170,-77,69
161,17290,10,-3486,-4820,22,-172,-75,70
162,17282,2,-3446,-4827,22,-170,-75,72
163,17256,22,-3430,-4829,22,-170,-77,70
164,17272,-10,-3418,-4828,22,-173,-74,68
165,17264,4,-3388,-4821,22,-171,-74,68
166,17248,18,-3436,-4825,22,-174,-77,67
167,17268,18,-3392,-4832,22,-172,-78,68
168,17264,12,-3416,-4829,22,-169,-75,69
169,17298,-2,-3420,-4827,22,-172,-78,70
170,17292,26,-3370,-4831,22,-172,-78,70
171,17272,12,-3420,-4831,22,-170,-76,68
172,17254,-16,-3392,-4821,22,-168,-75,69
173,17268,-22,-3402,-4826,22,-170,-75,72
174,17286,6,-3420,-4829,22,-168,-74,71
175,17252,18,-3384,-4823,22,-167,-76,70
176,17268,20,-3438,-4822,22,-171,-75,68
177,17250,34,-3412,-4818,22,-170,-75,69
178,17268,2,-3450,-4815,22,-169,-76,68
179,17264,6,-3418,-4820,22,-168,-78,71
180,17288,14,-3406,-4821,22,-169,-79,70
181,17294,10,-3404,-4821,22,-170,-76,70
182,17298,8,-3430,-4821,22,-168,-73,70
183,17308,12,-3388,-4820,22,-170,-74,67
184,17274,4,-3444,-4823,22,-169,-80,68
185,17282,0,-3446,-4823,22,-169,-78,67
186,17316,20,-3412,-4817,22,-174,-77,71
187,17286,10,-3420,-4819,22,-173,-75,69
188,17270,10,-3466,-4823,22,-174,-76,68
189,17260,6,-3454,-4822,22,-177,-79,70
190,17276,50,-3428,-4825,22,-172,-79,70
191,17256,22,-3448,-4822,22,-171,-80,69
192,17288,-16,-3492,-4825,22,-170,-75,69
193,17256,0,-3464,-4820,22,-170,-78,69
194,17296,4,-3422,-4821,22,-176,-77,70
195,17302,-8,-3452,-4822,22,-174,-79,69
196,17300,42,-3446,-4821,22,-174,-74,70
197,17292,36,-3454,-4822,22,-170,-76,68
198,17306,10,-3388,-4824,22,-170,-78,67
199,17282,8,-3444,-4819,22,-171,-77,67
200,17278,36,-3408,-4820,22,-173,-78,68
201,17282,42,-3450,-4825,22,-173,-75,67
202,17276,30,-3432,-4824,22,-173,-73,68
203,17268,8,-3458,-4818,22,-172,-76,70
204,17272,4,-3468,-4820,22,-174,-75,71
205,17280,6,-3430,-4821,22,-173,-75,69
206,17284,20,-3450,-4820,22,-173,-71,70
207,17284,18,-3434,-4814,22,-169,-74,68
208,17292,-14,-3456,-4821,22,-169,-76,69
209,17272,-18,-3410,-4819,22,-171,-78,67
210,17268,-4,-3444,-4822,22,-173,-72,67
211,17292,16,-3408,-4820,22,-172,-72,67
212,17286,4,-3394,-4816,22,-173,-75,68
213,17270,18,-3392,-4816,22,-170,-78,67
214,17266,20,-3426,-4812,22,-170,-75,67
215,17248,14,-3442,-4816,22,-173,-77,69
216,17260,12,-3416,-4816,22,-175,-81,68
217,17268,4,-3430,-4819,22,-176,-78,71
218,17268,-8,-3408,-4814,22,-173,-76,71
219,17278,10,-3384,-4819,22,-172,-76,69
220,17266,10,-3434,-4819,22,-174,-72,68
221,17260,-20,-3428,-4824,22,-173,-76,70
222,17266,8,-3408,-4823,22,-171,-77,72
223,17280,10,-3398,-4821,22,-171,-78,69
224,17234,16,-3376,-4819,22,-169,-75,70
225,17256,10,-3412,-4816,22,-172,-75,70
226,17264,20,-3396,-4815,22,-170,-77,68
227,17244,4,-3456,-4821,22,-172,-77,71
228,17264,14,-3438,-4825,22,-170,-76,68
229,17288,10,-3452,-4821,22,-169,-77,70
230,17302,30,-3444,-4817,22,-169,-73,69
231,17282,36,-3412,-4815,22,-169,-75,66
232,17292,16,-3436,-4817,22,-171,-75,66
233,17292,-14,-3436,-4814,22,-170,-77,69
234,17272,-10,-3440,-4815,22,-172,-76,68
235,17260,12,-3444,-4815,22,-170,-77,72
236,17292,18,-3442,-4815,22,-169,-75,67
237,17272,-2,-3424,-4820,22,-170,-73,74
238,17270,4,-3442,-4812,22,-170,-75,69
239,17248,2,-3428,-4814,22,-171,-76,69
240,17252,38,-3412,-4812,22,-173,-76,70
241,17268,22,-3422,-4813,22,-175,-74,69
242,17282,12,-3420,-4815,22,-173,-75,67
243,17274,6,-3400,-4815,22,-170,-72,69
244,17286,18,-3398,-4816,22,-171,-77,70
245,17252,20,-3438,-4815,22,-172,-77,72
246,17280,14,-3402,-4818,22,-169,-78,67
247,17266,-14,-3384,-4814,22,-171,-79,69
248,17250,-14,-3390,-4815,22,-169,-76,70
249,17272,0,-3420,-4820,22,-173,-75,65
250,17264,-14,-3446,-4812,22,-170,-72,67
251,17262,6,-3442,-4812,22,-171,-70,69
252,17238,4,-3412,-4807,22,-170,-70,70
253,17252,-6,-3446,-4813,22,-172,-77,69
254,17276,8,-3386,-4810,22,-172,-79,70
255,17314,20,-3400,-4812,22,-171,-74,64
256,17252,-16,-3394,-4815,22,-171,-73,66
257,17230,6,-3418,-4814,22,-174,-74,69
258,17246,4,-3410,-4808,22,-173,-76,70
259,17236,20,-3416,-4810,22,-173,-73,71
260,17254,14,-3442,-4811,22,-172,-73,69
261,17290,24,-3444,-4811,22,-171,-74,67
262,17298,14,-3458,-4807,22,-170,-76,65
263,17276,0,-3444,-4804,22,-174,-76,69
264,17288,12,-3466,-4811,22,-175,-77,66
265,17282,-14,-3456,-4814,22,-171,-76,66
266,17290,8,-3422,-4814,22,-171,-74,67
267,17294,12,-3488,-4816,22,-170,-73,68
268,17284,0,-3452,-4814,22,-169,-78,66
269,17288,-16,-3468,-4816,22,-172,-78,70
270,17286,20,-3404,-4817,22,-172,-77,69
271,17288,12,-3418,-4809,22,-173,-71,71
272,17288,0,-3436,-4808,22,-170,-74,71
273,17278,12,-3466,-4808,22,-168,-75,74
274,17292,-2,-3466,-4815,22,-170,-74,68
275,17264,18,-3450,-4809,22,-176,-72,69
276,17266,-8,-3452,-4814,22,-175,-74,69
277,17224,-4,-3434,-4810,22,-172,-76,68
278,17284,32,-3450,-4812,22,-175,-78,67
279,17284,6,-3412,-4809,22,-174,-78,70
280,17246,-10,-3386,-4806,22,-174,-75,66
281,17272,-4,-3408,-4813,22,-170,-81,69
282,17268,8,-3434,-4813,22,-171,-79,67
283,17264,-8,-3458,-4810,22,-172,-71,69
284,17280,26,-3418,-4812,22,-170,-75,68
285,17276,-18,-3376,-4813,22,-168,-75,66
286,17252,16,-3404,-4803,22,-169,-76,68
287,17268,2,-3394,-4803,22,-170,-77,68
288,17268,14,-3408,-4802,22,-172,-77,68
289,17292,12,-3432,-4802,22,-171,-75,66
290,17276,8,-3464,-4806,22,-168,-76,69
291,17266,66,-3430,-4808,22,-172,-75,67
292,17304,36,-3464,-4800,22,-173,-74,64
293,17250,36,-3504,-4804,22,-172,-77,70
294,17288,24,-3488,-4803,22,-175,-74,71
295,17312,20,-3444,-4807,22,-175,-72,69
296,17332,8,-3442,-4807,22,-174,-76,71
297,17298,-8,-3450,-4809,22,-170,-71,71
298,17268,2,-3452,-4814,22,-173,-73,66
299,17278,22,-3398,-4809,22,-174,-75,71
300,17288,54,-3436,-4805,22,-171,-76,73
301,17264,26,-3486,-4805,22,-173,-77,70
302,17288,40,-3446,-4809,22,-172,-78,71
303,17272,32,-3456,-4811,22,-172,-75,71
304,17270,8,-3400,-4809,22,-172,-76,72
305,17268,44,-3418,-4813,22,-172,-75,68
306,17274,30,-3426,-4805,22,-166,-74,68
307,17272,28,-3418,-4807,22,-171,-74,70
308,17286,2,-3452,-4809,22,-167,-74,72
309,17258,10,-3438,-4811,22,-171,-76,68
310,17276,16,-3484,-4805,22,-174,-77,68
311,17280,14,-3442,-4808,22,-170,-75,70
312,17300,16,-3436,-4800,22,-170,-76,70
313,17302,28,-3456,-4805,22,-172,-73,68
314,17266,28,-3452,-4805,22,-173,-73,65
315,17260,54,-3420,-4802,22,-170,-76,67
316,17278,16,-3420,-4800,22,-170,-73,69
317,17282,12,-3416,-4802,22,-172,-75,68
318,17274,8,-3444,-4798,22,-173,-72,72
319,17290,46,-3410,-4803,22,-175,-70,72
320,17256,22,-3454,-4802,22,-174,-74,71
321,17282,6,-3438,-4803,22,-174,-75,69
322,17274,10,-3468,-4804,22,-171,-78,71
323,17270,30,-3484,-4801,22,-171,-78,70
324,17270,24,-3436,-4802,22,-172,-74,69
325,17284,-4,-3436,-4809,22,-172,-76,69
326,17272,24,-3412,-4807,22,-173,-72,68
327,17302,20,-3426,-4809,22,-172,-73,69
328,17262,26,-3406,-4809,22,-174,-72,69
329,17236,-32,-3412,-4805,22,-171,-74,68
330,17278,-4,-3394,-4811,22,-170,-75,70
331,17276,-10,-3406,-4806,22,-172,-75,70
332,17304,-20,-3420,-4803,22,-173,-71,73
333,17314,8,-3416,-4802,22,-175,-73,71
334,17300,24,-3440,-4801,22,-174,-75,67
335,17280,20,-3422,-4805,22,-176,-73,68
336,17264,16,-3408,-4805,22,-174,-77,69
337,17244,24,-3436,-4798,22,-173,-74,70
338,17242,-12,-3442,-4797,22,-171,-74,71
339,17250,-40,-3398,-4799,22,-171,-71,69
340,17282,-30,-3412,-4805,22,-169,-72,67
341,17224,14,-3378,-4800,22,-172,-70,68
342,17252,22,-3426,-4799,22,-172,-76,66
343,17250,12,-3466,-4802,22,-168,-75,65
344,17256,0,-3410,-4796,22,-170,-75,72
345,17280,-18,-3418,-4800,22,-172,-75,73
346,17246,-12,-3466,-4805,22,-173,-80,72
347,17274,-4,-3448,-4806,22,-171,-75,69
348,17302,0,-3462,-4807,22,-172,-75,69
349,17270,-2,-3438,-4808,22,-171,-74,65
350,17276,6,-3382,-4803,22,-173,-75,67
351,17276,8,-3446,-4807,22,-172,-75,67
352,17264,14,-3416,-4807,22,-174,-78,70
353,17292,0,-3406,-4807,22,-174,-76,68
354,17292,10,-3390,-4805,22,-178,-78,69
355,17286,22,-3414,-4801,22,-172,-76,69
356,17276,18,-3436,-4804,22,-173,-75,72
357,17254,-14,-3442,-4804,22,-171,-75,71
358,17264,8,-3382,-4805,22,-171,-78,70
359,17246,24,-3424,-4798,22,-172,-76,69
360,17256,4,-3458,-4799,22,-172,-74,65
361,17250,18,-3416,-4800,22,-172,-78,69
362,17254,2,-3414,-4799,22,-171,-77,71
363,17246,-16,-3402,-4804,22,-171,-75,71
364,17264,0,-3408,-4795,22,-170,-74,68
365,17252,-2,-3418,-4797,22,-171,-76,72
366,17264,22,-3414,-4798,22,-172,-76,72
367,17276,20,-3406,-4798,22,-173,-75,69
368,17280,34,-3454,-4800,22,-172,-74,67
369,17268,34,-3438,-4802,22,-172,-76,71
370,17274,8,-3406,-4800,22,-173,-76,72
371,17280,12,-3434,-4798,22,-173,-76,67
372,17258,26,-3474,-4797,22,-174,-74,69
373,17258,22,-3456,-4798,22,-175,-76,71
374,17274,4,-3406,-4798,22,-169,-76,70
375,17288,26,-3400,-4800,22,-173,-74,69
376,17256,10,-3416,-4799,22,-172,-74,67
377,17230,0,-3420,-4797,22,-171,-73,70
378,17262,8,-3388,-4795,22,-171,-75,67
379,17262,34,-3372,-4799,22,-171,-77,71
380,17242,36,-3386,-4794,22,-172,-77,71
381,17262,34,-3414,-4793,22,-172,-75,67
382,17254,22,-3416,-4795,22,-169,-74,68
383,17284,-2,-3418,-4800,22,-169,-76,66
384,17296,-10,-3408,-4799,22,-175,-74,66
385,17316,-18,-3384,-4800,22,-174,-76,69
386,17280,-16,-3390,-4796,22,-175,-81,69
387,17282,18,-3424,-4797,22,-175,-76,68
388,17248,-22,-3394,-4794,22,-171,-73,72
389,17256,-22,-3390,-4797,22,-171,-75,70
390,17252,2,-3416,-4796,22,-171,-73,70
391,17250,-4,-3412,-4798,22,-174,-73,66
392,17292,26,-3446,-4802,22,-172,-75,67
393,17270,14,-3454,-4798,22,-173,-77,69
394,17304,4,-3496,-4795,22,-176,-76,66
395,17244,18,-3458,-4793,22,-173,-76,67
396,17262,12,-3414,-4795,22,-173,-72,66
397,17280,0,-3422,-4790,22,-173,-78,65
398,17276,-30,-3456,-4801,22,-173,-79,67
399,17260,22,-3432,-4795,22,-174,-79,66
400,17272,12,-3420,-4793,22,-174,-75,64
401,17250,0,-3450,-4799,22,-172,-75,67
402,17268,20,-3382,-4797,22,-170,-80,68
403,17272,-2,-3376,-4795,22,-171,-77,70
404,17266,8,-3370,-4795,22,-168,-79,69
405,17266,2,-3378,-4792,22,-173,-77,66
406,17266,0,-3390,-4797,22,-171,-74,66
407,17266,14,-3380,-4795,22,-169,-75,67
408,17278,16,-3434,-4792,22,-172,-76,70
409,17272,12,-3452,-4800,22,-173,-78,71
410,17284,26,-3422,-4794,22,-172,-78,69
411,17266,10,-3396,-4797,22,-173,-77,71
412,17278,-4,-3410,-4797,22,-172,-76,69
413,17276,2,-3438,-4800,22,-171,-74,70
414,17274,18,-3418,-4794,22,-172,-73,69
415,17268,36,-3428,-4793,22,-175,-73,70
416,17270,-4,-3446,-4790,22,-173,-77,70
417,17274,32,-3412,-4798,22,-169,-77,67
418,17274,36,-3458,-4794,22,-171,-74,71
419,17272,56,-3440,-4794,22,-168,-77,71
420,17294,38,-3472,-4792,22,-170,-80,71
421,17292,-12,-3440,-4795,22,-170,-75,69
422,17282,-26,-3432,-4794,22,-175,-76,71
423,17260,14,-3472,-4793,22,-173,-79,72
424,17254,24,-3428,-4796,22,-173,-77,76
425,17244,16,-3376,-4795,22,-172,-78,74
426,17270,18,-3426,-4789,22,-170,-80,70
427,17270,14,-3404,-4788,22,-172,-82,69
428,17280,26,-3376,-4793,22,-172,-78,70
429,17270,12,-3424,-4790,22,-169,-76,63
430,17268,28,-3422,-4789,22,-169,-75,66
431,17280,26,-3406,-4790,22,-169,-77,68
432,17312,-2,-3390,-4792,22,-172,-75,70
433,17284,-12,-3396,-4791,22,-171,-78,72
434,17278,-4,-3420,-4790,22,-173,-77,67
435,17270,16,-3426,-4795,22,-172,-75,70
436,17256,20,-3426,-4794,22,-170,-80,68
437,17244,6,-3408,-4795,22,-172,-77,69
438,17264,-4,-3448,-4792,22,-170,-74,68
439,17296,0,-3392,-4793,22,-171,-74,71
440,17286,12,-3444,-4793,22,-169,-78,71
441,17288,24,-3448,-4791,22,-168,-72,67
442,17318,18,-3420,-4790,22,-169,-77,69
443,17272,-2,-3402,-4798,22,-174,-78,67
444,17272,18,-3448,-4794,22,-174,-75,66
445,17234,-12,-3414,-4794,22,-173,-74,67
446,17262,14,-3440,-4791,22,-171,-75,66
447,17282,10,-3480,-4788,22,-172,-75,71
448,17270,22,-3428,-4791,22,-171,-73,69
449,17234,44,-3408,-4794,22,-175,-71,70
450,17254,46,-3450,-4799,22,-175,-75,68
451,17270,30,-3408,-4800,22,-172,-80,71
452,17258,6,-3392,-4793,22,-175,-77,68
453,17284,12,-3446,-4793,22,-171,-72,70
454,17276,38,-3404,-4792,22,-172,-75,70
455,17268,24,-3420,-4794,22,-170,-77,69
456,17266,52,-3448,-4792,22,-173,-77,70
457,17276,12,-3468,-4789,22,-175,-78,69
458,17262,-2,-3422,-4788,22,-173,-77,72
459,17266,-34,-3434,-4788,22,-173,-76,69
460,17278,-26,-3474,-4795,22,-176,-76,73
461,17268,6,-3444,-4793,22,-173,-72,66
462,17298,8,-3426,-4793,22,-177,-77,71
463,17304,-18,-3472,-4787,22,-174,-77,69
464,17294,24,-3448,-4792,22,-173,-78,73
465,17282,18,-3426,-4789,22,-174,-76,71
466,17270,28,-3436,-4792,22,-169,-78,69
467,17288,10,-3426,-4790,22,-170,-76,68
468,17266,12,-3416,-4792,22,-173,-78,70
469,17248,2,-3426,-4793,22,-172,-80,68
470,17262,52,-3436,-4791,22,-171,-76,67
471,17306,40,-3418,-4787,22,-170,-76,68
472,17304,14,-3444,-4783,22,-174,-80,72
473,17284,32,-3448,-4784,22,-173,-76,71
474,17260,12,-3422,-4785,22,-175,-76,69
475,17248,18,-3466,-4786,22,-172,-78,68
476,17264,-12,-3470,-4790,22,-172,-77,68
477,17288,-8,-3412,-4791,22,-172,-73,68
478,17276,20,-3408,-4793,22,-174,-76,69
479,17266,10,-3418,-4792,22,-174,-79,70
480,17288,-2,-3430,-4793,22,-172,-80,68
481,17260,2,-3448,-4794,22,-174,-79,70
482,17280,-16,-3426,-4795,22,-173,-77,66
483,17248,-24,-3446,-4787,22,-171,-76,66
484,17272,8,-3386,-4786,22,-168,-73,69
485,17248,-2,-3406,-4784,22,-173,-76,71
486,17274,20,-3432,-4798,22,-175,-80,70
487,17274,34,-3440,-4791,22,-175,-76,71
488,17272,22,-3456,-4786,22,-173,-79,71
489,17280,34,-3408,-4788,22,-171,-77,69
490,17284,20,-3416,-4787,22,-170,-76,65
491,17262,30,-3382,-4784,22,-175,-72,70
492,17286,20,-3426,-4789,22,-170,-75,68
493,17266,0,-3440,-4789,22,-170,-77,67
494,17264,10,-3444,-4788,22,-171,-75,66
495,17262,4,-3412,-4789,22,-172,-72,72
496,17280,12,-3418,-4786,22,-170,-71,73
497,17268,28,-3420,-4783,22,-170,-75,71
498,17274,48,-3412,-4784,22,-171,-74,69
499,17254,30,-3404,-4796,22,-172,-76,71
500,17266,12,-3406,-4791,22,-173,-78,69
501,17274,-4,-3438,-4794,22,-172,-74,70
502,17282,-26,-3414,-4796,22,-173,-77,70
503,17258,2,-3414,-4799,22,-172,-73,69
504,17276,14,-3448,-4796,22,-172,-74,67
505,17218,12,-3454,-4794,22,-171,-73,66
506,17258,14,-3418,-4787,22,-174,-76,68
507,17254,26,-3426,-4792,22,-170,-75,72
508,17258,26,-3388,-4794,22,-173,-73,71
509,17286,0,-3410,-4791,22,-173,-75,71
510,17280,-8,-3430,-4797,22,-175,-77,68
511,17260,-12,-3418,-4793,22,-173,-75,71
512,17280,6,-3438,-4793,22,-172,-73,69
513,17264,10,-3448,-4796,22,-171,-74,70
514,17268,14,-3452,-4791,22,-169,-75,70
515,17250,16,-3420,-4790,22,-171,-76,68
516,17270,-2,-3422,-4795,22,-172,-76,72
517,17270,34,-3444,-4794,22,-169,-77,70
518,17254,18,-3442,-4793,22,-170,-74,67
519,17270,0,-3454,-4788,22,-171,-78,69
520,17292,34,-3390,-4784,22,-175,-78,67
521,17272,14,-3400,-4785,22,-174,-79,68
522,17274,24,-3390,-4784,22,-170,-79,68
523,17288,12,-3416,-4790,22,-170,-77,69
524,17308,-18,-3428,-4791,22,-173,-80,71
525,17280,12,-3412,-4791,22,-172,-78,72
526,17266,20,-3410,-4791,22,-170,-82,69
527,17254,4,-3426,-4786,22,-172,-82,72
528,17280,4,-3436,-4784,22,-174,-78,70
529,17276,14,-3450,-4782,22,-170,-78,70
530,17250,-4,-3416,-4782,22,-170,-79,69
531,17260,-18,-3416,-4782,22,-173,-76,70
532,17230,2,-3448,-4782,22,-174,-80,69
533,17224,42,-3420,-4787,22,-172,-79,70
534,17254,52,-3432,-4785,22,-172,-75,68
535,17268,30,-3450,-4785,22,-172,-76,68
536,17272,20,-3446,-4788,22,-171,-77,72
537,17272,28,-3482,-4789,22,-172,-78,70
538,17280,12,-3412,-4784,22,-172,-77,67
539,17288,20,-3414,-4785,22,-171,-78,69
540,17278,26,-3470,-4779,22,-172,-77,68
541,17270,30,-3442,-4782,22,-171,-80,70
542,17280,26,-3468,-4782,22,-172,-76,69
543,17296,42,-3436,-4787,22,-172,-77,65
544,17286,-6,-3426,-4785,22,-173,-75,72
545,17270,22,-3412,-4782,22,-174,-76,68
546,17286,-28,-3432,-4786,22,-172,-77,66
547,17280,-18,-3358,-4785,22,-171,-77,67
548,17260,2,-3392,-4794,22,-172,-75,69
549,17250,50,-3422,-4789,22,-172,-77,70
550,17252,42,-3454,-4788,22,-174,-77,71
551,17242,4,-3450,-4784,22,-171,-76,70
552,17252,28,-3422,-4788,22,-170,-81,72
553,17268,20,-3454,-4788,22,-172,-78,69
554,17298,-8,-3444,-4787,22,-176,-76,68
555,17308,4,-3452,-4786,22,-174,-77,69
556,17330,8,-3440,-4786,22,-172,-75,68
557,17304,-12,-3452,-4788,22,-173,-76,68
558,17286,10,-3436,-4782,22,-174,-76,69
559,17300,6,-3452,-4782,22,-175,-76,68
560,17320,24,-3440,-4788,22,-172,-78,68
561,17312,28,-3460,-4786,22,-174,-77,66
562,17306,8,-3466,-4788,22,-176,-78,68
563,17280,8,-3420,-4784,22,-175,-79,68
564,17256,24,-3406,-4781,22,-175,-75,67
565,17278,30,-3390,-4787,22,-172,-72,67
566,17260,28,-3398,-4786,22,-174,-74,68
567,17246,16,-3470,-4786,22,-171,-72,65
568,17240,30,-3434,-4787,22,-170,-76,67
569,17262,32,-3460,-4791,22,-172,-74,68
570,17280,4,-3388,-4785,22,-170,-72,72
571,17286,16,-3408,-4786,22,-172,-75,66
572,17240,-2,-3412,-4784,22,-172,-75,65
573,17242,-8,-3410,-4784,22,-170,-75,67
574,17260,-6,-3442,-4790,22,-173,-74,66
575,17278,4,-3474,-4784,22,-170,-79,69
576,17266,26,-3426,-4787,22,-172,-78,72
577,17274,-6,-3414,-4786,22,-172,-74,69
578,17272,30,-3438,-4782,22,-175,-74,68
579,17288,22,-3434,-4783,22,-174,-75,68
580,17296,40,-3454,-4781,22,-175,-71,68
581,17318,14,-3458,-4783,22,-175,-77,66
582,17288,20,-3468,-4786,22,-177,-78,69
583,17272,16,-3402,-4788,22,-173,-80,68
584,17272,0,-3422,-4786,22,-171,-78,68
585,17246,2,-3442,-4782,22,-170,-77,67
586,17240,30,-3444,-4784,22,-172,-75,69
587,17264,-10,-3390,-4786,22,-176,-78,69
588,17274,0,-3406,-4789,22,-173,-78,69
589,17258,-6,-3402,-4785,22,-171,-80,70
590,17246,12,-3438,-4786,22,-172,-78,69
591,17272,-2,-3442,-4785,22,-174,-77,72
592,17284,-14,-3456,-4785,22,-171,-74,68
593,17250,24,-3442,-4786,22,-170,-72,68
594,17298,30,-3418,-4782,22,-170,-75,64
595,17286,6,-3400,-4781,22,-173,-76,71
596,17288,12,-3386,-4784,22,-173,-73,72
597,17264,30,-3402,-4787,22,-172,-77,69
598,17292,22,-3404,-4795,22,-173,-76,71
599,17248,-6,-3434,-4783,22,-171,-78,70
600,17270,8,-3458,-4786,22,-176,-75,68
601,17284,6,-3454,-4781,22,-173,-76,70
602,17276,18,-3426,-4781,22,-171,-75,70
603,17280,30,-3440,-4780,22,-175,-73,68
604,17266,36,-3444,-4782,22,-172,-77,70
605,17290,6,-3386,-4778,22,-170,-78,71
606,17266,20,-3432,-4778,22,-174,-79,66
607,17290,28,-3464,-4780,22,-171,-77,66
608,17316,20,-3434,-4787,22,-171,-74,67
609,17314,-12,-3426,-4788,22,-174,-74,69
610,17282,0,-3432,-4783,22,-174,-74,67
611,17292,20,-3404,-4781,22,-177,-72,67
612,17300,18,-3440,-4782,22,-173,-75,66
613,17278,32,-3410,-4781,22,-173,-79,69
614,17292,34,-3466,-4777,22,-171,-78,70
615,17280,20,-3426,-4782,22,-172,-78,72
616,17260,6,-3416,-4779,22,-170,-81,72
617,17266,10,-3406,-4782,22,-173,-80,70
618,17260,-30,-3470,-4781,22,-171,-75,70
619,17256,38,-3442,-4786,22,-174,-79,68
620,17262,-4,-3462,-4779,22,-173,-75,70
621,17270,12,-3424,-4777,22,-173,-78,70
622,17248,12,-3418,-4778,22,-171,-79,69
623,17252,12,-3370,-4780,22,-173,-80,70
624,17260,14,-3398,-4781,22,-175,-80,70
625,17272,38,-3422,-4786,22,-170,-79,67
626,17262,22,-3392,-4783,22,-172,-78,69
627,17266,24,-3430,-4777,22,-172,-77,70
628,17294,30,-3424,-4780,22,-171,-78,67
629,17262,2,-3408,-4773,22,-172,-73,68
630,17288,14,-3454,-4775,22,-171,-76,69
631,17260,28,-3424,-4783,22,-174,-73,70
632,17260,28,-3454,-4778,22,-174,-79,70
633,17256,18,-3424,-4783,22,-172,-77,72
634,17252,10,-3430,-4784,22,-171,-78,70
635,17258,32,-3456,-4782,22,-173,-78,70
636,17266,36,-3484,-4780,22,-170,-76,72
637,17272,10,-3466,-4783,22,-172,-78,70
638,17246,-10,-3438,-4785,22,-170,-76,68
639,17258,-14,-3416,-4779,22,-173,-75,65
640,17268,18,-3400,-4781,22,-170,-75,69
641,17298,14,-3430,-4784,22,-173,-72,71
642,17274,-20,-3402,-4787,22,-175,-74,70
643,17272,-20,-3448,-4785,22,-176,-75,68
644,17286,-6,-3448,-4784,22,-176,-70,66
645,17300,8,-3450,-4781,22,-172,-75,70
646,17288,16,-3428,-4782,22,-172,-75,69
647,17312,-6,-3426,-4780,22,-172,-78,67
648,17288,6,-3410,-4780,22,-174,-77,68
649,17276,8,-3370,-4784,22,-172,-75,69
650,17266,6,-3406,-4780,22,-173,-74,71
651,17304,24,-3436,-4779,22,-170,-75,71
652,17262,22,-3434,-4781,22,-172,-75,68
653,17282,34,-3396,-4783,22,-173,-77,70
654,17262,22,-3440,-4784,22,-172,-75,72
655,17288,26,-3424,-4780,22,-171,-73,71
656,17288,14,-3412,-4776,22,-171,-81,67
657,17274,0,-3422,-4780,22,-170,-78,69
658,17274,26,-3416,-4778,22,-174,-79,71
659,17266,-20,-3464,-4775,22,-172,-80,71
660,17236,22,-3428,-4782,22,-171,-79,70
661,17268,24,-3412,-4784,22,-177,-77,68
662,17260,-8,-3392,-4790,22,-176,-76,70
663,17274,22,-3436,-4781,22,-174,-75,68
664,17272,10,-3436,-4784,22,-172,-72,68
665,17298,-4,-3426,-4783,22,-170,-75,68
666,17324,28,-3458,-4787,22,-172,-75,69
667,17296,10,-3402,-4785,22,-174,-78,68
668,17302,-4,-3486,-4781,22,-172,-75,67
669,17290,-2,-3468,-4783,22,-168,-75,68
670,17268,14,-3396,-4776,22,-171,-76,70
671,17256,8,-3458,-4778,22,-172,-75,72
672,17272,22,-3404,-4781,22,-172,-78,71
673,17280,24,-3426,-4782,22,-173,-76,70
674,17272,-26,-3422,-4785,22,-176,-80,70
675,17258,-18,-3394,-4777,22,-173,-75,66
676,17270,18,-3396,-4779,22,-172,-72,68
677,17276,0,-3444,-4782,22,-170,-74,69
678,17248,20,-3450,-4777,22,-171,-75,70
679,17264,50,-3474,-4779,22,-170,-80,68
680,17250,38,-3428,-4777,22,-171,-75,71
681,17248,28,-3410,-4780,22,-171,-78,73
682,17292,-24,-3394,-4783,22,-173,-74,73
683,17262,-10,-3454,-4778,22,-173,-74,69
684,17292,-12,-3436,-4780,22,-173,-72,70
685,17272,-10,-3456,-4783,22,-172,-75,70
686,17252,12,-3402,-4780,22,-171,-78,71
687,17256,2,-3424,-4777,22,-174,-75,71
688,17284,0,-3422,-4778,22,-172,-73,70
689,17274,36,-3434,-4780,22,-171,-76,68
690,17302,2,-3418,-4776,22,-171,-75,68
691,17262,34,-3432,-4778,22,-173,-79,69
692,17254,26,-3496,-4784,22,-173,-76,69
693,17284,26,-3510,-4780,22,-170,-78,70
694,17256,24,-3468,-4775,22,-169,-75,69
695,17264,18,-3448,-4780,22,-168,-73,69
696,17290,-4,-3478,-4787,22,-174,-77,69
697,17262,34,-3466,-4784,22,-172,-76,70
698,17270,16,-3472,-4778,22,-172,-78,68
699,17250,-10,-3464,-4784,22,-171,-76,68
700,17244,-24,-3368,-4782,22,-174,-77,70
701,17260,-8,-3442,-4783,22,-175,-75,68
702,17296,32,-3500,-4781,22,-172,-79,68
703,17316,30,-3478,-4781,22,-174,-79,69
704,17288,18,-3444,-4778,22,-173,-76,67
705,17268,12,-3414,-4782,22,-171,-75,69
706,17276,4,-3418,-4783,22,-172,-78,69
707,17274,12,-3422,-4779,22,-172,-78,69
708,17286,12,-3398,-4775,22,-172,-83,68
709,17292,-2,-3420,-4773,22,-173,-80,65
710,17276,10,-3428,-4778,22,-174,-75,68
711,17270,4,-3438,-4778,22,-169,-76,65
712,17282,12,-3448,-4778,22,-172,-74,66
713,17276,22,-3390,-4778,22,-172,-74,70
714,17274,18,-3410,-4780,22,-170,-78,70
715,17266,-8,-3380,-4777,22,-176,-74,71
716,17282,22,-3382,-4777,22,-171,-73,70
717,17280,20,-3444,-4772,22,-172,-76,68
718,17244,-2,-3428,-4778,22,-172,-74,71
719,17280,0,-3424,-4775,22,-170,-73,68
720,17262,-6,-3436,-4780,22,-174,-75,66
721,17258,0,-3442,-4778,22,-176,-74,69
722,17254,14,-3440,-4777,22,-176,-75,69
723,17282,6,-3354,-4780,22,-176,-75,67
724,17274,6,-3382,-4784,22,-175,-78,71
725,17250,28,-3414,-4779,22,-174,-77,69
726,17286,-24,-3448,-4779,22,-174,-78,69
727,17296,8,-3462,-4783,22,-176,-76,69
728,17278,14,-3492,-4779,22,-173,-75,68
729,17274,16,-3448,-4778,22,-175,-72,69
730,17288,-8,-3434,-4781,22,-174,-76,71
731,17282,26,-3440,-4781,22,-168,-80,73
732,17288,20,-3446,-4781,22,-171,-79,73
733,17276,26,-3454,-4780,22,-170,-76,70
734,17282,8,-3440,-4774,22,-172,-74,69
735,17274,-4,-3458,-4779,22,-173,-74,68
736,17272,-28,-3422,-4781,22,-171,-72,70
737,17230,-18,-3394,-4778,22,-175,-77,67
738,17286,-2,-3420,-4782,22,-172,-74,68
739,17266,-2,-3442,-4775,22,-173,-73,68
740,17260,-26,-3426,-4779,22,-173,-74,70
741,17282,-10,-3452,-4779,22,-173,-77,70
742,17294,-2,-3460,-4777,22,-175,-76,70
743,17280,18,-3418,-4774,22,-177,-76,68
744,17274,26,-3416,-4773,22,-174,-78,68
745,17268,22,-3430,-4773,22,-173,-75,68
746,17266,32,-3414,-4775,22,-172,-76,68
747,17278,6,-3440,-4772,22,-174,-78,69
748,17280,20,-3432,-4776,22,-170,-74,71
749,17320,16,-3420,-4769,22,-175,-75,69
750,17282,18,-3436,-4774,22,-176,-75,69
751,17274,0,-3416,-4775,22,-171,-77,68
752,17302,20,-3382,-4773,22,-173,-75,70
753,17278,30,-3414,-4772,22,-173,-73,69
754,17272,6,-3424,-4779,22,-173,-75,68
755,17296,6,-3418,-4780,22,-170,-73,71
756,17266,-12,-3428,-4777,22,-173,-76,68
757,17280,-16,-3448,-4780,22,-172,-72,68
758,17296,8,-3454,-4780,22,-172,-74,70
759,17248,10,-3412,-4778,22,-174,-77,66
760,17278,16,-3428,-4775,22,-174,-79,68
761,17256,16,-3384,-4783,22,-174,-75,70
762,17264,38,-3458,-4783,22,-171,-76,73
763,17260,28,-3444,-4783,22,-172,-75,68
764,17264,24,-3404,-4776,22,-172,-75,67
765,17266,30,-3442,-4781,22,-171,-81,70
766,17288,-4,-3454,-4781,22,-173,-75,69
767,17250,20,-3438,-4778,22,-174,-73,69
768,17282,44,-3416,-4779,22,-174,-70,72
769,17270,26,-3452,-4774,22,-174,-72,69
770,17290,2,-3396,-4777,22,-173,-69,69
771,17284,-2,-3434,-4780,22,-172,-74,69
772,17268,8,-3406,-4779,22,-174,-76,66
773,17290,18,-3406,-4772,22,-172,-73,68
774,17276,48,-3436,-4778,22,-176,-74,69
775,17278,24,-3454,-4769,22,-172,-78,68
776,17252,0,-3476,-4768,22,-173,-77,71
777,17284,10,-3434,-4768,22,-169,-76,70
778,17278,-16,-3424,-4773,22,-170,-76,68
779,17258,16,-3460,-4772,22,-171,-78,71
780,17280,0,-3408,-4775,22,-174,-81,70
781,17244,40,-3426,-4783,22,-173,-77,67
782,17256,48,-3448,-4776,22,-175,-73,68
783,17256,26,-3500,-4777,22,-171,-77,68
784,17260,10,-3450,-4769,22,-173,-79,67
785,17288,-4,-3412,-4776,22,-175,-76,69
786,17292,-4,-3404,-4774,22,-171,-77,67
787,17280,6,-3432,-4779,22,-175,-73,68
788,17296,0,-3400,-4773,22,-174,-75,70
789,17294,6,-3422,-4775,22,-174,-77,69
790,17272,50,-3428,-4775,22,-173,-74,70
791,17290,42,-3434,-4777,22,-175,-72,71
792,17244,52,-3462,-4776,22,-174,-76,70
793,17284,30,-3470,-4773,22,-176,-73,71
794,17284,22,-3436,-4771,22,-173,-70,70
795,17260,22,-3492,-4777,22,-174,-72,67
796,17262,-2,-3458,-4770,22,-174,-73,69
797,17260,-8,-3404,-4772,22,-175,-74,70
798,17300,0,-3436,-4775,22,-172,-78,69
799,17294,16,-3412,-4771,22,-172,-76,67
800,17286,46,-3422,-4766,22,-176,-74,70
801,17254,74,-3406,-4769,22,-172,-75,69
802,17250,42,-3422,-4769,22,-171,-74,69
803,17244,8,-3386,-4772,22,-171,-75,67
804,17242,-6,-3400,-4774,22,-175,-76,67
805,17236,-20,-3472,-4776,22,-178,-75,69
806,17260,-28,-3450,-4776,22,-176,-77,68
807,17274,8,-3442,-4778,22,-172,-77,71
808,17284,6,-3400,-4778,22,-170,-76,68
809,17270,-2,-3430,-4776,22,-175,-76,71
810,17260,24,-3456,-4775,22,-175,-75,69
811,17270,8,-3450,-4777,22,-173,-72,69
812,17262,14,-3402,-4777,22,-174,-76,65
813,17284,10,-3458,-4775,22,-171,-77,67
814,17280,30,-3472,-4777,22,-170,-75,68
815,17280,38,-3432,-4776,22,-174,-75,67
816,17260,8,-3416,-4775,22,-172,-75,71
817,17282,-16,-3430,-4771,22,-171,-80,68
818,17250,32,-3388,-4769,22,-173,-77,68
819,17242,40,-3378,-4779,22,-172,-73,68
820,17238,4,-3442,-4776,22,-174,-76,70
821,17278,2,-3422,-4775,22,-174,-74,68
822,17274,14,-3424,-4772,22,-173,-76,68
823,17286,4,-3432,-4777,22,-172,-75,73
824,17294,16,-3470,-4775,22,-170,-78,68
825,17304,14,-3444,-4777,22,-172,-77,71
826,17280,12,-3422,-4775,22,-172,-78,71
827,17256,-30,-3454,-4772,22,-171,-75,69
828,17266,-8,-3436,-4779,22,-171,-78,67
829,17274,-8,-3414,-4774,22,-172,-75,66
830,17248,62,-3410,-4775,22,-173,-75,71
831,17264,14,-3424,-4772,22,-174,-74,70
832,17290,14,-3454,-4769,22,-177,-78,68
833,17278,-6,-3438,-4767,22,-175,-75,66
834,17260,26,-3460,-4768,22,-171,-78,68
835,17236,-16,-3428,-4771,22,-171,-79,70
836,17270,4,-3402,-4774,22,-170,-77,70
837,17270,-2,-3410,-4777,22,-168,-76,68
838,17282,2,-3418,-4772,22,-170,-73,70
839,17274,-2,-3434,-4770,22,-171,-74,69
840,17306,-2,-3382,-4770,22,-168,-75,69
841,17324,18,-3428,-4773,22,-169,-76,71
842,17278,16,-3442,-4773,22,-170,-76,69
843,17260,44,-3424,-4770,22,-170,-73,67
844,17270,20,-3402,-4773,22,-169,-77,67
845,17268,24,-3408,-4768,22,-172,-76,68
846,17284,52,-3414,-4771,22,-170,-75,68
847,17274,32,-3442,-4775,22,-172,-75,69
848,17284,18,-3454,-4772,22,-172,-75,67
849,17264,6,-3462,-4774,22,-171,-75,66
850,17304,36,-3426,-4772,22,-172,-76,67
851,17270,48,-3458,-4772,22,-166,-76,74
852,17278,24,-3422,-4775,22,-171,-74,71
853,17260,0,-3392,-4783,22,-172,-76,70
854,17286,0,-3382,-4775,22,-172,-74,72
855,17292,28,-3448,-4771,22,-174,-74,68
856,17280,14,-3432,-4773,22,-173,-78,71
857,17284,8,-3436,-4775,22,-174,-75,72
858,17296,8,-3436,-4769,22,-174,-75,69
859,17296,30,-3404,-4777,22,-171,-75,68
860,17316,-8,-3430,-4778,22,-174,-75,68
861,17316,-2,-3414,-4777,22,-170,-77,70
862,17302,14,-3406,-4769,22,-172,-78,69
863,17258,32,-3406,-4774,22,-174,-78,67
864,17268,18,-3402,-4771,22,-174,-77,68
865,17266,6,-3394,-4774,22,-174,-77,69
866,17300,24,-3418,-4776,22,-173,-80,71
867,17316,-12,-3380,-4776,22,-174,-76,72
868,17276,-18,-3380,-4772,22,-171,-79,69
869,17262,18,-3428,-4771,22,-173,-75,67
870,17286,20,-3434,-4777,22,-175,-74,68
871,17286,24,-3432,-4778,22,-174,-76,69
872,17314,-2,-3426,-4774,22,-173,-70,69
873,17296,-16,-3434,-4774,22,-176,-69,66
874,17270,18,-3412,-4772,22,-174,-71,70
875,17246,20,-3462,-4771,22,-174,-75,69
876,17236,-2,-3458,-4773,22,-174,-78,67
877,17264,-2,-3412,-4770,22,-172,-75,69
878,17274,6,-3422,-4778,22,-173,-72,69
879,17246,-6,-3480,-4774,22,-175,-74,68
880,17256,32,-3412,-4773,22,-174,-76,68
881,17286,40,-3392,-4775,22,-172,-75,67
882,17294,12,-3408,-4772,22,-173,-76,69
883,17288,30,-3410,-4771,22,-171,-78,70
884,17252,6,-3362,-4762,22,-173,-76,69
885,17276,2,-3392,-4765,22,-170,-80,68
886,17294,10,-3438,-4772,22,-172,-78,71
887,17282,4,-3420,-4772,22,-172,-79,69
888,17298,10,-3460,-4770,22,-170,-77,70
889,17296,28,-3438,-4771,22,-171,-73,68
890,17290,-12,-3426,-4776,22,-171,-75,68
891,17284,-8,-3386,-4769,22,-170,-77,70
892,17304,10,-3416,-4776,22,-169,-80,66
893,17264,4,-3396,-4776,22,-168,-79,67
894,17274,-4,-3412,-4773,22,-169,-78,70
895,17272,2,-3424,-4770,22,-174,-78,69
896,17274,16,-3414,-4775,22,-174,-76,68
897,17272,4,-3408,-4776,22,-173,-73,69
898,17252,-30,-3422,-4771,22,-176,-74,71
899,17282,6,-3416,-4768,22,-173,-77,70
900,17242,12,-3394,-4774,22,-171,-75,72
901,17248,26,-3420,-4768,22,-170,-77,71
902,17248,46,-3442,-4772,22,-173,-77,68
903,17280,10,-3448,-4768,22,-171,-73,69
904,17248,22,-3428,-4772,22,-174,-74,69
905,17236,16,-3418,-4772,22,-174,-75,69
906,17266,8,-3442,-4770,22,-173,-74,67
907,17248,8,-3412,-4774,22,-170,-74,67
908,17252,26,-3438,-4772,22,-173,-69,67
909,17258,16,-3428,-4770,22,-173,-71,70
910,17268,4,-3452,-4777,22,-172,-73,69
911,17260,8,-3456,-4767,22,-172,-74,68
912,17292,18,-3442,-4764,22,-175,-74,68
913,17306,30,-3398,-4766,22,-173,-74,68
914,17264,40,-3412,-4767,22,-172,-72,67
915,17280,4,-3414,-4773,22,-172,-74,67
916,17254,18,-3440,-4770,22,-174,-75,66
917,17268,40,-3380,-4770,22,-173,-75,70
918,17312,4,-3422,-4770,22,-172,-77,65
919,17274,20,-3426,-4773,22,-176,-74,66
920,17278,12,-3436,-4769,22,-176,-76,68
921,17284,24,-3454,-4771,22,-175,-79,67
922,17282,16,-3434,-4775,22,-173,-77,70
923,17296,14,-3392,-4770,22,-173,-77,71
924,17312,2,-3400,-4775,22,-172,-75,69
925,17270,-6,-3424,-4770,22,-173,-79,69
926,17254,-12,-3468,-4773,22,-174,-79,70
927,17270,26,-3478,-4772,22,-169,-79,70
928,17282,4,-3448,-4773,22,-174,-78,68
929,17270,20,-3458,-4768,22,-176,-77,69
930,17290,12,-3470,-4765,22,-172,-76,72
931,17290,40,-3410,-4771,22,-173,-73,70
932,17294,34,-3442,-4771,22,-171,-75,73
933,17304,0,-3418,-4771,22,-170,-77,72
934,17308,32,-3382,-4771,22,-169,-75,69
935,17278,14,-3364,-4768,22,-170,-77,69
936,17274,28,-3382,-4770,22,-171,-77,69
937,17300,2,-3396,-4771,22,-173,-77,69
938,17298,-4,-3418,-4772,22,-176,-74,69
939,17302,6,-3420,-4774,22,-175,-76,70
940,17296,48,-3430,-4772,22,-177,-78,69
941,17264,32,-3402,-4771,22,-172,-75,67
942,17284,34,-3408,-4773,22,-173,-82,66
943,17300,58,-3402,-4769,22,-174,-75,72
944,17308,36,-3418,-4764,22,-171,-79,69
945,17276,12,-3400,-4764,22,-172,-79,72
946,17274,20,-3378,-4764,22,-172,-78,70
947,17284,-12,-3442,-4768,22,-172,-74,71
948,17280,10,-3440,-4767,22,-171,-73,69
949,17294,10,-3454,-4771,22,-173,-76,63
950,17264,26,-3406,-4772,22,-172,-74,67
951,17242,34,-3458,-4768,22,-173,-75,68
952,17252,38,-3460,-4771,22,-174,-78,69
953,17254,40,-3420,-4771,22,-171,-75,69
954,17254,34,-3432,-4777,22,-171,-78,70
955,17280,6,-3422,-4777,22,-172,-77,70
956,17268,40,-3448,-4771,22,-174,-75,69
957,17248,20,-3408,-4775,22,-173,-73,69
958,17246,2,-3430,-4770,22,-174,-74,67
959,17262,36,-3416,-4767,22,-173,-76,67
960,17274,32,-3428,-4765,22,-172,-78,68
961,17296,18,-3388,-4772,22,-174,-76,68
962,17260,6,-3376,-4769,22,-175,-74,68
963,17282,14,-3440,-4770,22,-171,-80,71
964,17262,0,-3438,-4764,22,-173,-77,70
965,17276,32,-3380,-4772,22,-173,-82,70
966,17270,36,-3406,-4771,22,-174,-77,70
967,17280,20,-3434,-4770,22,-173,-73,70
968,17306,40,-3408,-4767,22,-169,-75,70
969,17304,12,-3452,-4765,22,-170,-78,71
970,17298,-20,-3432,-4763,22,-171,-75,69
971,17230,-6,-3384,-4767,22,-172,-75,70
972,17262,12,-3410,-4764,22,-169,-75,68
973,17262,20,-3504,-4774,22,-171,-75,69
974,17248,12,-3450,-4776,22,-172,-72,69
975,17262,2,-3400,-4768,22,-173,-71,67
976,17288,-18,-3390,-4769,22,-174,-72,68
977,17298,2,-3432,-4767,22,-174,-75,69
978,17294,14,-3440,-4763,22,-170,-74,67
979,17280,-16,-3456,-4765,22,-170,-73,69
980,17258,4,-3460,-4765,22,-170,-73,71
981,17268,26,-3434,-4766,22,-171,-72,70
982,17292,30,-3406,-4768,22,-175,-74,65
983,17294,24,-3428,-4766,22,-171,-79,66
984,17256,18,-3414,-4770,22,-176,-75,69
985,17266,20,-3436,-4765,22,-171,-76,69
986,17278,10,-3418,-4758,23,-172,-77,70
987,17270,24,-3440,-4763,22,-172,-73,68
988,17282,12,-3390,-4766,22,-171,-75,66
989,17300,-8,-3394,-4759,23,-171,-74,69
990,17282,-14,-3436,-4764,22,-173,-75,72
991,17290,16,-3406,-4768,22,-176,-73,68
992,17270,10,-3428,-4764,22,-172,-74,70
993,17268,-2,-3406,-4763,22,-173,-76,69
994,17278,10,-3408,-4766,22,-172,-78,67
995,17240,16,-3414,-4766,22,-174,-78,68
