,acc_X,acc_Y,acc_Z,temp,tempC,gyr_X,gyr_Y,gyr_Z
0,2157,2,-428,-4720,23,-43,-19,17
1,2157,3,-426,-4720,23,-43,-20,17
2,2154,-1,-425,-4723,23,-44,-19,17
3,2156,-1,-423,-4722,23,-43,-18,17
4,2158,3,-425,-4721,23,-44,-19,17
5,2156,1,-429,-4720,23,-43,-19,17
6,2160,0,-426,-4720,23,-42,-20,16
7,2161,2,-428,-4725,23,-44,-19,17
8,2157,1,-429,-4726,23,-43,-20,17
9,2158,1,-427,-4726,23,-44,-19,17
10,2157,0,-425,-4729,23,-43,-20,16
11,2159,2,-427,-4728,23,-42,-20,17
12,2163,-1,-421,-4719,23,-43,-20,17
13,2160,4,-421,-4721,23,-43,-20,17
14,2159,2,-424,-4719,23,-43,-20,17
15,2158,3,-427,-4724,23,-44,-19,17
16,2157,-1,-423,-4722,23,-43,-20,17
17,2161,0,-420,-4721,23,-44,-19,16
18,2159,0,-426,-4720,23,-44,-19,17
19,2160,-3,-423,-4727,23,-44,-20,18
20,2158,-1,-423,-4726,23,-44,-19,16
21,2155,0,-426,-4729,23,-45,-19,17
22,2158,-4,-427,-4720,23,-44,-19,16
23,2162,-3,-429,-4726,23,-43,-20,17
24,2161,-1,-431,-4727,23,-42,-19,17
25,2161,1,-430,-4722,23,-43,-20,17
26,2166,3,-430,-4721,23,-43,-19,17
27,2160,3,-423,-4722,23,-44,-19,16
28,2158,3,-424,-4720,23,-44,-19,17
29,2156,2,-428,-4721,23,-44,-20,17
30,2157,3,-428,-4721,23,-43,-19,17
31,2158,6,-426,-4720,23,-43,-19,16
32,2161,2,-427,-4722,23,-43,-19,18
33,2160,2,-428,-4719,23,-44,-19,17
34,2158,1,-423,-4726,23,-44,-19,17
35,2158,-1,-427,-4726,23,-43,-20,17
36,2161,0,-432,-4724,23,-43,-19,17
37,2160,4,-430,-4729,23,-43,-19,17
38,2158,1,-429,-4727,23,-44,-20,17
39,2160,2,-428,-4724,23,-44,-20,18
40,2158,-1,-431,-4725,23,-43,-20,18
41,2155,0,-425,-4723,23,-44,-19,16
42,2160,4,-430,-4720,23,-43,-19,16
43,2156,4,-429,-4724,23,-44,-19,17
44,2160,-1,-427,-4720,23,-44,-20,17
45,2158,-4,-426,-4717,23,-44,-19,17
46,2157,-4,-424,-4720,23,-43,-20,17
47,2158,-1,-425,-4717,23,-44,-20,17
48,2159,1,-430,-4716,23,-44,-19,18
49,2156,-1,-428,-4723,23,-44,-19,17
50,2159,-1,-426,-4719,23,-44,-20,17
51,2159,1,-429,-4720,23,-44,-20,17
52,2160,-2,-429,-4721,23,-45,-19,17
53,2160,-1,-425,-4721,23,-44,-19,17
54,2161,-1,-431,-4722,23,-44,-19,17
55,2165,1,-426,-4724,23,-45,-20,16
56,2161,-4,-425,-4729,23,-44,-19,17
57,2159,-1,-428,-4731,23,-44,-17,17
58,2155,-4,-431,-4726,23,-43,-19,17
59,2162,2,-434,-4726,23,-43,-18,17
60,2161,1,-435,-4724,23,-43,-19,17
61,2160,0,-431,-4725,23,-44,-19,17
62,2160,-2,-430,-4724,23,-43,-19,17
63,2163,1,-430,-4725,23,-44,-19,17
64,2160,0,-433,-4725,23,-44,-19,17
65,2162,3,-434,-4724,23,-43,-19,18
66,2160,3,-431,-4720,23,-44,-19,18
67,2161,0,-431,-4719,23,-44,-20,17
68,2163,1,-424,-4721,23,-44,-20,17
69,2158,-4,-427,-4722,23,-44,-20,17
70,2157,1,-421,-4725,23,-43,-19,17
71,2161,1,-422,-4725,23,-44,-20,17
72,2159,1,-430,-4723,23,-43,-19,17
73,2157,2,-431,-4725,23,-44,-19,17
74,2158,-1,-426,-4721,23,-44,-21,16
75,2162,-3,-426,-4722,23,-44,-19,17
76,2159,-1,-423,-4729,23,-44,-19,17
77,2158,-3,-425,-4724,23,-44,-20,17
78,2161,-2,-428,-4724,23,-44,-19,18
79,2159,-1,-427,-4720,23,-43,-20,17
80,2158,-1,-426,-4720,23,-44,-19,17
81,2157,-5,-423,-4719,23,-44,-20,17
82,2160,3,-426,-4721,23,-43,-20,18
83,2160,3,-427,-4726,23,-43,-19,18
84,2160,4,-432,-4724,23,-44,-19,17
85,2158,4,-431,-4720,23,-43,-19,17
86,2158,1,-430,-4722,23,-43,-20,16
87,2157,0,-432,-4716,23,-44,-19,16
88,2157,0,-426,-4717,23,-43,-20,17
89,2158,0,-428,-4723,23,-43,-19,17
90,2158,-1,-430,-4721,23,-44,-20,16
91,2156,-2,-428,-4720,23,-43,-19,17
92,2159,-3,-427,-4720,23,-44,-19,17
93,2158,-3,-428,-4721,23,-44,-19,17
94,2162,-1,-429,-4721,23,-44,-19,16
95,2157,-4,-429,-4725,23,-43,-19,17
96,2160,-2,-430,-4722,23,-43,-18,17
97,2159,0,-429,-4715,23,-43,-19,17
98,2158,-2,-425,-4720,23,-43,-18,17
99,2159,2,-425,-4723,23,-43,-19,17
100,2159,1,-421,-4716,23,-43,-19,16
101,2161,0,-423,-4722,23,-43,-19,17
102,2159,-4,-425,-4726,23,-44,-20,17
103,2160,-3,-429,-4723,23,-44,-20,16
104,2161,2,-429,-4723,23,-43,-20,16
105,2160,1,-429,-4717,23,-44,-19,17
106,2163,2,-427,-4722,23,-43,-18,18
107,2160,0,-424,-4720,23,-43,-21,17
108,2157,-1,-427,-4714,23,-44,-21,17
109,2159,-1,-426,-4718,23,-43,-20,17
110,2159,4,-430,-4721,23,-44,-19,17
111,2159,-1,-427,-4721,23,-44,-19,17
112,2161,2,-422,-4724,23,-43,-19,17
113,2158,-2,-425,-4723,23,-44,-19,17
114,2158,-2,-431,-4722,23,-44,-18,17
115,2156,2,-428,-4724,23,-44,-19,16
116,2154,-1,-432,-4728,23,-44,-20,16
117,2157,-1,-428,-4726,23,-43,-20,17
118,2161,1,-429,-4727,23,-43,-19,17
119,2160,2,-429,-4723,23,-43,-20,17
120,2163,3,-431,-4723,23,-43,-19,16
121,2161,3,-433,-4723,23,-43,-19,17
122,2161,2,-430,-4722,23,-43,-20,18
123,2160,-3,-429,-4714,23,-44,-19,18
124,2158,-2,-432,-4720,23,-44,-19,16
125,2158,-4,-429,-4724,23,-43,-19,17
126,2157,2,-425,-4724,23,-43,-19,17
127,2153,-1,-428,-4721,23,-44,-19,17
128,2156,-3,-424,-4719,23,-44,-19,17
129,2159,0,-433,-4721,23,-43,-19,16
130,2161,1,-427,-4717,23,-43,-20,17
131,2156,0,-426,-4716,23,-44,-19,17
132,2160,-2,-429,-4716,23,-44,-19,17
133,2157,-5,-424,-4716,23,-43,-19,18
134,2158,-1,-430,-4722,23,-43,-19,17
135,2162,1,-427,-4722,23,-44,-20,17
136,2162,-2,-429,-4717,23,-43,-20,17
137,2158,0,-428,-4718,23,-44,-20,17
138,2161,-1,-432,-4720,23,-44,-20,17
139,2159,3,-424,-4724,23,-43,-19,18
140,2157,3,-421,-4726,23,-43,-19,17
141,2158,1,-430,-4725,23,-43,-19,17
142,2159,1,-424,-4728,23,-44,-19,17
143,2159,-4,-423,-4724,23,-43,-19,18
144,2163,1,-431,-4719,23,-43,-20,17
145,2159,2,-427,-4715,23,-43,-20,18
146,2155,0,-430,-4719,23,-44,-19,17
147,2159,0,-433,-4722,23,-43,-20,17
148,2159,2,-431,-4723,23,-44,-19,17
149,2160,0,-433,-4716,23,-44,-19,17
150,2162,2,-432,-4718,23,-44,-19,17
151,2161,-2,-430,-4721,23,-43,-19,16
152,2163,1,-431,-4720,23,-43,-19,17
153,2159,-1,-429,-4720,23,-43,-18,17
154,2159,-2,-427,-4721,23,-44,-20,17
155,2161,1,-428,-4722,23,-43,-19,17
156,2160,0,-423,-4721,23,-44,-20,17
157,2163,0,-433,-4725,23,-43,-18,18
158,2163,0,-433,-4722,23,-43,-19,16
159,2161,6,-429,-4721,23,-44,-20,17
160,2155,3,-427,-4722,23,-44,-19,18
161,2162,1,-432,-4725,23,-44,-20,18
162,2162,2,-427,-4723,23,-43,-20,17
163,2164,1,-425,-4724,23,-44,-19,17
164,2159,-3,-434,-4724,23,-44,-19,17
165,2156,3,-428,-4725,23,-44,-20,17
166,2159,3,-429,-4725,23,-44,-20,17
167,2156,-1,-426,-4720,23,-42,-19,17
168,2158,-2,-432,-4718,23,-43,-20,16
169,2157,2,-427,-4717,23,-44,-19,17
170,2157,2,-426,-4722,23,-44,-19,17
171,2157,0,-422,-4717,23,-44,-20,17
172,2157,4,-428,-4727,23,-44,-18,17
173,2158,1,-428,-4728,23,-44,-19,17
174,2157,1,-423,-4725,23,-44,-19,17
175,2161,2,-427,-4725,23,-43,-19,18
176,2162,1,-424,-4720,23,-43,-20,17
177,2161,2,-426,-4717,23,-44,-19,17
178,2163,6,-427,-4719,23,-43,-19,17
179,2162,4,-426,-4718,23,-44,-19,16
180,2159,3,-428,-4721,23,-44,-19,17
181,2160,4,-425,-4725,23,-43,-19,17
182,2159,3,-427,-4720,23,-43,-19,16
183,2159,2,-429,-4716,23,-44,-20,16
184,2161,0,-430,-4720,23,-44,-19,17
185,2160,1,-429,-4718,23,-42,-19,17
186,2162,2,-431,-4717,23,-43,-19,18
187,2157,-3,-431,-4721,23,-43,-19,17
188,2163,-2,-435,-4721,23,-44,-19,17
189,2161,-2,-435,-4723,23,-44,-19,17
190,2160,2,-425,-4723,23,-44,-19,17
191,2157,1,-430,-4715,23,-44,-19,17
192,2154,1,-434,-4719,23,-44,-18,17
193,2158,1,-428,-4716,23,-44,-19,17
194,2159,1,-425,-4717,23,-43,-19,17
195,2158,0,-425,-4716,23,-44,-19,18
196,2163,4,-428,-4718,23,-44,-20,17
197,2163,2,-427,-4717,23,-44,-18,17
198,2162,2,-425,-4716,23,-44,-19,17
199,2164,-2,-426,-4719,23,-43,-19,17
200,2161,2,-429,-4716,23,-43,-19,17
201,2159,0,-423,-4717,23,-44,-20,17
202,2158,0,-429,-4720,23,-43,-20,16
203,2157,-2,-425,-4720,23,-44,-19,17
204,2157,-2,-426,-4721,23,-43,-19,17
205,2161,2,-431,-4726,23,-44,-19,17
206,2164,0,-430,-4723,23,-44,-19,17
207,2161,-1,-425,-4722,23,-44,-19,17
208,2160,-2,-423,-4718,23,-44,-18,17
209,2155,-3,-431,-4721,23,-44,-19,17
210,2160,0,-425,-4723,23,-44,-19,17
211,2158,0,-420,-4722,23,-44,-19,16
212,2156,-3,-425,-4720,23,-44,-20,17
213,2161,0,-426,-4721,23,-44,-20,17
214,2161,-1,-427,-4726,23,-43,-19,17
215,2159,0,-427,-4725,23,-44,-18,16
216,2158,2,-427,-4724,23,-44,-18,17
217,2157,-1,-427,-4729,23,-43,-19,17
218,2160,3,-428,-4722,23,-44,-20,17
219,2160,1,-427,-4722,23,-44,-19,17
220,2158,2,-424,-4716,23,-44,-19,17
221,2159,0,-423,-4718,23,-43,-20,18
222,2154,-1,-429,-4721,23,-44,-20,18
223,2158,-1,-434,-4719,23,-44,-19,17
224,2158,0,-437,-4719,23,-44,-19,17
225,2163,0,-431,-4724,23,-43,-19,17
226,2164,0,-427,-4724,23,-45,-20,17
227,2161,5,-428,-4719,23,-44,-19,17
228,2158,2,-430,-4724,23,-44,-19,16
229,2158,0,-428,-4724,23,-44,-21,18
230,2157,-1,-432,-4725,23,-44,-20,17
231,2158,3,-428,-4722,23,-44,-20,17
232,2161,-1,-424,-4720,23,-45,-20,17
233,2159,-2,-427,-4722,23,-45,-20,17
234,2159,1,-428,-4720,23,-44,-19,17
235,2162,1,-426,-4722,23,-44,-19,18
236,2161,2,-428,-4719,23,-43,-19,17
237,2158,-3,-425,-4715,23,-44,-19,16
238,2161,0,-427,-4720,23,-44,-20,17
239,2161,2,-429,-4723,23,-44,-20,17
240,2158,-1,-430,-4713,23,-44,-20,17
241,2158,-1,-424,-4714,23,-43,-20,17
242,2159,-1,-428,-4719,23,-44,-19,16
243,2160,3,-429,-4720,23,-44,-19,17
244,2160,3,-428,-4726,23,-45,-18,16
245,2158,2,-424,-4726,23,-44,-18,17
246,2157,2,-425,-4725,23,-44,-20,17
247,2157,-2,-427,-4722,23,-43,-19,18
248,2161,3,-429,-4725,23,-43,-18,18
249,2157,5,-428,-4719,23,-43,-19,18
250,2159,0,-428,-4721,23,-43,-19,17
251,2159,-2,-425,-4719,23,-43,-19,18
252,2156,3,-430,-4722,23,-44,-19,16
253,2156,0,-428,-4720,23,-44,-18,17
254,2157,1,-424,-4717,23,-44,-19,17
255,2158,2,-426,-4717,23,-44,-19,18
256,2160,2,-427,-4717,23,-44,-20,18
257,2160,0,-428,-4721,23,-44,-20,17
258,2159,-1,-431,-4720,23,-44,-19,16
259,2162,0,-434,-4723,23,-45,-20,18
260,2161,1,-433,-4721,23,-44,-20,18
261,2157,-1,-431,-4718,23,-44,-19,17
262,2161,0,-422,-4720,23,-44,-18,18
263,2161,0,-425,-4722,23,-43,-19,17
264,2158,1,-427,-4721,23,-44,-20,17
265,2157,1,-425,-4718,23,-43,-19,18
266,2156,1,-428,-4720,23,-43,-20,17
267,2156,1,-430,-4725,23,-43,-19,16
268,2159,-1,-433,-4725,23,-44,-19,16
269,2162,2,-430,-4721,23,-44,-20,17
270,2163,1,-423,-4718,23,-43,-19,17
271,2162,0,-423,-4717,23,-43,-19,16
272,2162,1,-424,-4721,23,-43,-20,16
273,2161,5,-424,-4729,23,-44,-20,17
274,2162,1,-428,-4725,23,-43,-20,17
275,2158,2,-430,-4719,23,-43,-20,17
276,2159,-2,-431,-4719,23,-43,-20,18
277,2159,0,-427,-4722,23,-44,-20,17
278,2162,1,-427,-4723,23,-43,-20,17
279,2161,3,-425,-4720,23,-43,-20,17
280,2160,0,-425,-4721,23,-43,-20,17
281,2158,1,-429,-4718,23,-43,-19,17
282,2158,1,-433,-4724,23,-44,-19,17
283,2158,-1,-431,-4722,23,-44,-19,17
284,2156,-2,-427,-4723,23,-44,-19,17
285,2157,-2,-426,-4722,23,-44,-20,18
286,2160,0,-426,-4720,23,-44,-20,16
287,2158,2,-426,-4722,23,-44,-20,16
288,2160,0,-430,-4724,23,-44,-19,16
289,2160,-1,-434,-4723,23,-44,-20,17
290,2159,0,-432,-4718,23,-44,-20,17
291,2162,0,-433,-4715,23,-44,-19,18
292,2159,1,-429,-4716,23,-44,-19,17
293,2160,2,-426,-4717,23,-44,-19,16
294,2157,1,-423,-4715,23,-44,-19,17
295,2159,-3,-426,-4719,23,-43,-19,17
296,2156,1,-427,-4716,23,-44,-19,16
297,2156,2,-428,-4727,23,-44,-19,17
298,2156,0,-426,-4719,23,-44,-19,17
299,2160,3,-428,-4716,23,-44,-20,16
300,2160,1,-432,-4720,23,-44,-19,16
301,2161,0,-431,-4720,23,-44,-19,17
302,2159,0,-430,-4721,23,-43,-19,18
303,2159,-3,-426,-4722,23,-45,-20,17
304,2160,-2,-428,-4720,23,-44,-20,17
305,2163,-1,-425,-4723,23,-43,-20,17
306,2157,-1,-431,-4726,23,-43,-20,17
307,2154,1,-429,-4718,23,-44,-19,18
308,2155,4,-426,-4720,23,-44,-19,18
309,2155,1,-427,-4718,23,-43,-19,18
310,2161,1,-425,-4721,23,-43,-19,17
311,2160,2,-431,-4720,23,-43,-18,17
312,2156,-1,-427,-4721,23,-44,-19,16
313,2157,-1,-429,-4721,23,-44,-18,17
314,2158,0,-425,-4720,23,-44,-19,17
315,2154,3,-426,-4720,23,-44,-19,17
316,2160,2,-425,-4724,23,-44,-18,17
317,2159,1,-429,-4721,23,-44,-19,17
318,2161,-1,-426,-4720,23,-43,-19,18
319,2157,3,-433,-4721,23,-43,-19,18
320,2160,1,-426,-4723,23,-43,-20,16
321,2160,0,-431,-4714,23,-43,-19,16
322,2158,0,-428,-4718,23,-44,-19,17
323,2159,-1,-428,-4720,23,-43,-20,17
324,2160,0,-425,-4720,23,-43,-19,17
325,2163,-1,-432,-4725,23,-43,-20,17
326,2163,0,-425,-4722,23,-42,-20,16
327,2162,0,-426,-4721,23,-43,-20,17
328,2161,3,-425,-4720,23,-42,-19,17
329,2160,2,-430,-4719,23,-43,-19,16
330,2163,3,-428,-4716,23,-43,-19,16
331,2162,0,-429,-4717,23,-43,-19,17
332,2161,0,-429,-4722,23,-44,-20,16
333,2160,3,-430,-4726,23,-43,-20,16
334,2162,2,-424,-4726,23,-43,-21,16
335,2158,3,-429,-4719,23,-44,-20,17
336,2159,2,-428,-4718,23,-44,-20,17
337,2158,-3,-430,-4718,23,-43,-20,17
338,2161,-1,-421,-4721,23,-43,-20,17
339,2158,3,-424,-4718,23,-43,-20,17
340,2160,2,-427,-4720,23,-43,-19,18
341,2158,3,-430,-4723,23,-44,-19,17
342,2162,4,-422,-4719,23,-44,-19,17
343,2162,1,-423,-4719,23,-44,-20,17
344,2158,3,-425,-4717,23,-43,-19,16
345,2161,0,-419,-4718,23,-44,-19,16
346,2161,-1,-423,-4724,23,-44,-19,17
347,2154,0,-429,-4719,23,-43,-19,16
348,2153,-1,-427,-4720,23,-44,-19,16
349,2154,-2,-429,-4722,23,-44,-19,16
350,2158,-2,-437,-4722,23,-44,-19,16
351,2161,-2,-428,-4720,23,-44,-19,16
352,2158,-2,-426,-4712,23,-43,-19,17
353,2161,-3,-425,-4716,23,-43,-19,17
354,2160,3,-429,-4714,23,-44,-20,17
355,2163,-4,-429,-4722,23,-44,-20,17
356,2157,-3,-431,-4718,23,-43,-19,17
357,2159,-2,-432,-4715,23,-44,-19,17
358,2159,1,-428,-4713,23,-44,-19,17
359,2158,3,-427,-4715,23,-44,-18,17
360,2161,2,-428,-4718,23,-44,-19,17
361,2158,-4,-428,-4718,23,-44,-19,17
362,2157,0,-425,-4716,23,-45,-19,17
363,2157,0,-427,-4712,23,-44,-19,17
364,2162,0,-429,-4716,23,-44,-20,17
365,2161,2,-420,-4722,23,-44,-20,17
366,2161,3,-430,-4719,23,-44,-19,17
367,2160,2,-424,-4721,23,-44,-19,18
368,2158,0,-425,-4723,23,-44,-18,17
369,2159,1,-422,-4721,23,-44,-19,17
370,2160,3,-424,-4721,23,-44,-19,17
371,2160,0,-431,-4718,23,-44,-21,17
372,2159,1,-426,-4716,23,-44,-20,17
373,2158,1,-426,-4714,23,-44,-19,16
374,2156,0,-426,-4718,23,-45,-19,17
375,2161,2,-427,-4720,23,-43,-19,17
376,2160,2,-423,-4718,23,-44,-19,17
377,2157,0,-424,-4718,23,-44,-19,18
378,2161,0,-426,-4720,23,-43,-20,17
379,2160,-1,-427,-4719,23,-43,-19,17
380,2161,2,-431,-4720,23,-43,-20,17
381,2160,-3,-431,-4717,23,-44,-20,17
382,2158,-3,-433,-4720,23,-44,-19,17
383,2160,1,-431,-4718,23,-44,-19,17
384,2158,3,-428,-4719,23,-44,-19,17
385,2160,3,-428,-4718,23,-44,-20,17
386,2160,0,-426,-4718,23,-43,-19,17
387,2159,-1,-427,-4725,23,-44,-19,17
388,2153,-1,-423,-4721,23,-43,-19,17
389,2157,1,-426,-4718,23,-44,-19,17
390,2160,4,-429,-4723,23,-44,-19,17
391,2159,1,-424,-4725,23,-44,-20,18
392,2162,1,-425,-4720,23,-43,-19,18
393,2158,1,-422,-4728,23,-42,-19,17
394,2156,-2,-424,-4719,23,-43,-18,17
395,2158,-1,-426,-4723,23,-43,-18,17
396,2159,-4,-426,-4717,23,-43,-18,18
397,2159,-3,-428,-4719,23,-44,-19,17
398,2161,-3,-422,-4717,23,-44,-19,17
399,2157,-1,-425,-4716,23,-44,-19,17
400,2160,-3,-430,-4721,23,-44,-19,16
401,2162,1,-426,-4715,23,-44,-19,16
402,2160,2,-429,-4715,23,-44,-19,16
403,2164,1,-425,-4717,23,-45,-20,16
404,2160,2,-428,-4722,23,-45,-19,17
405,2159,2,-428,-4721,23,-44,-19,17
406,2162,4,-432,-4719,23,-44,-19,17
407,2156,6,-428,-4720,23,-44,-20,17
408,2159,6,-426,-4721,23,-44,-19,17
409,2161,2,-429,-4722,23,-44,-20,17
410,2158,4,-431,-4722,23,-43,-20,17
411,2158,4,-424,-4724,23,-43,-19,17
412,2160,4,-432,-4723,23,-43,-19,16
413,2161,6,-427,-4722,23,-43,-20,17
414,2157,4,-424,-4720,23,-43,-20,17
415,2158,2,-424,-4720,23,-44,-20,17
416,2162,-1,-428,-4716,23,-44,-20,17
417,2161,0,-424,-4715,23,-43,-19,17
418,2155,1,-430,-4721,23,-44,-19,17
419,2155,3,-427,-4725,23,-44,-19,17
420,2158,2,-430,-4719,23,-44,-19,17
421,2154,-1,-423,-4720,23,-44,-18,17
422,2155,3,-428,-4717,23,-43,-20,16
423,2157,1,-432,-4719,23,-44,-19,17
424,2160,0,-432,-4720,23,-44,-18,17
425,2160,2,-427,-4719,23,-44,-18,17
426,2160,4,-428,-4716,23,-44,-19,18
427,2161,5,-423,-4719,23,-44,-18,17
428,2158,3,-425,-4715,23,-44,-18,18
429,2158,0,-426,-4719,23,-44,-19,18
430,2157,-5,-430,-4717,23,-44,-19,18
431,2158,1,-429,-4717,23,-43,-19,18
432,2160,-1,-431,-4719,23,-44,-20,17
433,2158,-2,-425,-4714,23,-44,-19,17
434,2158,-1,-423,-4715,23,-44,-19,17
435,2159,5,-425,-4721,23,-44,-20,17
436,2156,2,-434,-4716,23,-43,-19,16
437,2157,5,-432,-4714,23,-44,-20,17
438,2157,3,-425,-4713,23,-44,-20,16
439,2158,-1,-427,-4715,23,-43,-20,17
440,2159,1,-424,-4714,23,-43,-20,17
441,2157,0,-424,-4714,23,-43,-19,16
442,2158,-2,-426,-4718,23,-44,-19,16
443,2158,0,-425,-4715,23,-44,-20,16
444,2161,1,-429,-4716,23,-43,-20,16
445,2159,2,-428,-4716,23,-43,-20,17
446,2155,0,-435,-4715,23,-43,-20,17
447,2158,2,-427,-4715,23,-44,-20,18
448,2157,0,-426,-4716,23,-44,-20,17
449,2160,-1,-425,-4717,23,-44,-19,16
450,2159,-2,-425,-4717,23,-44,-19,17
451,2160,-2,-427,-4718,23,-45,-20,17
452,2156,-4,-424,-4718,23,-44,-19,16
453,2159,1,-426,-4716,23,-44,-20,17
454,2163,0,-423,-4715,23,-44,-20,17
455,2158,1,-424,-4713,23,-44,-19,16
456,2157,0,-428,-4718,23,-45,-20,17
457,2153,1,-432,-4715,23,-44,-19,17
458,2160,0,-434,-4713,23,-44,-20,17
459,2160,-1,-431,-4714,23,-44,-20,17
460,2160,-2,-430,-4712,23,-43,-19,17
461,2157,-1,-429,-4710,23,-43,-20,17
462,2159,0,-427,-4713,23,-43,-19,18
463,2157,0,-428,-4717,23,-43,-19,17
464,2158,4,-430,-4716,23,-43,-19,17
465,2163,1,-430,-4716,23,-43,-19,17
466,2163,4,-429,-4718,23,-43,-18,17
467,2164,3,-429,-4714,23,-43,-18,17
468,2160,1,-428,-4713,23,-44,-19,17
469,2159,0,-428,-4713,23,-43,-18,18
470,2158,-2,-430,-4713,23,-43,-20,17
471,2159,3,-430,-4716,23,-43,-19,16
472,2160,5,-425,-4718,23,-44,-20,18
473,2159,1,-425,-4712,23,-44,-20,18
474,2157,4,-429,-4716,23,-44,-19,18
475,2154,0,-424,-4715,23,-43,-19,18
476,2161,-4,-424,-4715,23,-43,-18,18
477,2159,-2,-426,-4714,23,-43,-19,17
478,2159,-3,-421,-4711,23,-43,-18,18
479,2157,-5,-428,-4713,23,-43,-20,17
480,2158,-1,-421,-4714,23,-43,-19,17
481,2159,-3,-424,-4710,23,-43,-20,17
482,2162,-4,-424,-4712,23,-44,-19,16
483,2157,0,-427,-4711,23,-44,-19,17
484,2158,2,-428,-4717,23,-43,-20,17
485,2159,0,-427,-4715,23,-43,-19,17
486,2158,-1,-424,-4712,23,-43,-19,17
487,2161,-2,-424,-4712,23,-44,-19,17
488,2159,0,-421,-4719,23,-43,-18,16
489,2159,-1,-423,-4717,23,-43,-20,17
490,2158,1,-420,-4713,23,-44,-20,17
491,2159,1,-424,-4714,23,-44,-20,16
492,2160,-1,-431,-4710,23,-43,-20,16
493,2162,-2,-432,-4714,23,-43,-20,17
494,2158,-2,-427,-4716,23,-43,-19,17
495,2159,4,-434,-4717,23,-44,-19,17
496,2162,0,-427,-4716,23,-43,-20,17
497,2160,2,-425,-4720,23,-44,-20,17
498,2156,2,-428,-4720,23,-44,-20,17
499,2157,1,-427,-4716,23,-44,-20,17
500,2159,-3,-427,-4713,23,-43,-19,17
501,2158,-6,-431,-4711,23,-43,-20,17
502,2157,-2,-429,-4712,23,-44,-18,18
503,2158,0,-430,-4711,23,-43,-19,17
504,2158,0,-429,-4715,23,-44,-20,17
505,2161,1,-427,-4714,23,-44,-19,17
506,2158,2,-427,-4713,23,-43,-19,16
507,2156,-1,-426,-4711,23,-43,-19,17
508,2155,-2,-424,-4712,23,-43,-19,17
509,2157,2,-427,-4716,23,-43,-19,17
510,2154,-2,-428,-4718,23,-43,-19,17
511,2160,-1,-428,-4712,23,-44,-19,16
512,2161,2,-425,-4718,23,-44,-20,17
513,2157,1,-426,-4721,23,-43,-19,17
514,2161,0,-428,-4717,23,-43,-18,17
515,2160,-1,-429,-4717,23,-43,-19,17
516,2161,-2,-427,-4716,23,-44,-19,18
517,2158,4,-426,-4718,23,-44,-19,17
518,2159,-2,-428,-4719,23,-44,-18,17
519,2156,0,-426,-4714,23,-44,-19,18
520,2156,-2,-427,-4716,23,-44,-19,17
521,2162,-2,-429,-4714,23,-43,-19,17
522,2158,-2,-433,-4719,23,-43,-19,17
523,2159,-1,-424,-4714,23,-43,-19,17
524,2157,-2,-421,-4712,23,-43,-18,17
525,2159,-1,-422,-4716,23,-43,-19,16
526,2160,2,-426,-4717,23,-43,-19,17
527,2157,4,-426,-4719,23,-43,-19,17
528,2160,-1,-424,-4719,23,-44,-21,17
529,2157,-2,-418,-4716,23,-44,-19,18
530,2158,-1,-420,-4715,23,-44,-19,17
531,2157,0,-426,-4717,23,-44,-20,17
532,2157,0,-425,-4720,23,-43,-19,16
533,2157,2,-430,-4716,23,-44,-19,16
534,2157,5,-430,-4713,23,-43,-20,16
535,2156,0,-422,-4710,23,-45,-19,16
536,2159,4,-423,-4715,23,-44,-20,17
537,2159,2,-426,-4716,23,-44,-20,16
538,2158,6,-430,-4709,23,-44,-20,16
539,2160,1,-432,-4709,23,-44,-20,18
540,2157,-4,-429,-4706,23,-44,-19,17
541,2160,-2,-431,-4712,23,-43,-19,17
542,2160,-1,-425,-4720,23,-44,-19,17
543,2159,3,-423,-4718,23,-45,-19,17
544,2160,1,-425,-4717,23,-44,-19,17
545,2159,4,-431,-4717,23,-44,-19,18
546,2159,2,-432,-4711,23,-44,-19,17
547,2157,2,-425,-4713,23,-44,-19,17
548,2157,2,-427,-4716,23,-44,-19,17
549,2160,2,-425,-4717,23,-44,-19,18
550,2156,1,-429,-4716,23,-44,-19,17
551,2158,2,-432,-4716,23,-44,-18,17
552,2163,-1,-426,-4718,23,-44,-18,17
553,2164,0,-428,-4718,23,-43,-19,17
554,2158,0,-431,-4715,23,-42,-18,18
555,2157,0,-435,-4714,23,-44,-18,17
556,2159,0,-424,-4718,23,-44,-19,18
557,2158,-1,-424,-4718,23,-43,-19,17
558,2158,2,-430,-4715,23,-43,-20,17
559,2157,1,-431,-4721,23,-43,-19,18
560,2158,1,-430,-4715,23,-44,-19,17
561,2159,-1,-425,-4713,23,-44,-19,17
562,2159,-2,-421,-4713,23,-43,-19,17
563,2156,2,-423,-4719,23,-44,-19,17
564,2155,3,-424,-4722,23,-44,-20,17
565,2157,0,-422,-4720,23,-45,-20,17
566,2159,4,-428,-4722,23,-44,-20,17
567,2157,-2,-428,-4720,23,-43,-20,17
568,2160,-5,-426,-4717,23,-45,-20,17
569,2159,1,-430,-4713,23,-44,-20,17
570,2158,0,-424,-4710,23,-44,-20,18
571,2159,3,-428,-4715,23,-43,-20,17
572,2157,1,-431,-4717,23,-43,-21,17
573,2156,-1,-425,-4717,23,-43,-20,16
574,2156,-1,-424,-4716,23,-44,-20,16
575,2157,-1,-429,-4719,23,-43,-20,17
576,2159,0,-426,-4717,23,-44,-19,17
577,2162,1,-427,-4711,23,-45,-19,16
578,2162,2,-427,-4711,23,-44,-19,17
579,2160,0,-433,-4719,23,-44,-20,17
580,2160,-2,-430,-4715,23,-43,-20,16
581,2159,3,-424,-4715,23,-43,-20,17
582,2161,3,-429,-4716,23,-44,-19,17
583,2162,0,-432,-4711,23,-44,-19,17
584,2161,1,-430,-4710,23,-44,-20,17
585,2159,2,-427,-4714,23,-44,-20,16
586,2161,-2,-428,-4715,23,-44,-19,17
587,2162,-1,-430,-4718,23,-43,-18,17
588,2163,-1,-429,-4715,23,-43,-19,18
589,2159,0,-433,-4718,23,-43,-18,17
590,2157,1,-433,-4721,23,-43,-19,17
591,2156,3,-433,-4721,23,-43,-18,18
592,2158,2,-431,-4715,23,-43,-18,17
593,2157,0,-424,-4718,23,-43,-18,18
594,2160,2,-431,-4721,23,-43,-19,18
595,2164,3,-429,-4712,23,-43,-20,17
596,2160,1,-426,-4716,23,-42,-20,18
597,2160,1,-425,-4712,23,-43,-19,17
598,2161,-3,-430,-4712,23,-43,-19,17
599,2158,-1,-430,-4718,23,-43,-19,17
600,2158,1,-427,-4721,23,-44,-18,16
601,2164,2,-431,-4717,23,-43,-18,18
602,2162,-4,-430,-4716,23,-43,-18,17
603,2160,-3,-429,-4715,23,-44,-18,17
604,2159,-6,-427,-4715,23,-44,-19,18
605,2162,-3,-427,-4714,23,-44,-19,17
606,2161,-1,-419,-4711,23,-44,-19,17
607,2158,2,-425,-4714,23,-45,-19,17
608,2162,2,-424,-4718,23,-44,-19,17
609,2159,-1,-424,-4722,23,-44,-18,17
610,2161,0,-424,-4721,23,-44,-18,17
611,2157,1,-425,-4724,23,-44,-18,16
612,2157,-3,-426,-4718,23,-43,-19,17
613,2158,-2,-431,-4716,23,-44,-19,17
614,2159,-2,-428,-4712,23,-43,-19,17
615,2161,0,-426,-4715,23,-44,-19,17
616,2160,2,-422,-4713,23,-43,-19,17
617,2160,-2,-426,-4718,23,-44,-20,17
618,2155,1,-429,-4716,23,-44,-20,16
619,2156,0,-419,-4719,23,-44,-20,16
620,2161,0,-426,-4721,23,-44,-19,17
621,2162,1,-433,-4713,23,-43,-20,17
622,2161,4,-430,-4712,23,-44,-20,17
623,2154,-1,-429,-4718,23,-45,-19,17
624,2160,0,-428,-4718,23,-44,-19,17
625,2159,-1,-430,-4718,23,-43,-20,17
626,2159,-3,-426,-4715,23,-44,-19,17
627,2158,-2,-428,-4716,23,-43,-19,17
628,2159,1,-423,-4711,23,-43,-19,16
629,2161,3,-426,-4717,23,-42,-19,17
630,2162,-1,-421,-4719,23,-44,-19,18
631,2158,1,-423,-4712,23,-44,-19,18
632,2157,5,-421,-4713,23,-43,-20,18
633,2158,5,-426,-4720,23,-44,-19,17
634,2160,4,-434,-4724,23,-44,-19,17
635,2162,-5,-431,-4717,23,-44,-20,17
636,2162,-4,-430,-4709,23,-43,-19,18
637,2160,-3,-431,-4715,23,-43,-19,18
638,2157,-1,-431,-4713,23,-44,-19,17
639,2156,-2,-433,-4716,23,-44,-19,18
640,2155,-1,-430,-4710,23,-44,-19,18
641,2158,1,-428,-4712,23,-44,-19,17
642,2159,-1,-429,-4710,23,-43,-18,17
643,2158,-3,-428,-4713,23,-44,-20,17
644,2161,-3,-425,-4716,23,-44,-20,18
645,2158,-3,-425,-4710,23,-43,-19,17
646,2160,-1,-424,-4709,23,-44,-19,16
647,2160,-4,-424,-4713,23,-42,-19,17
648,2158,-1,-423,-4715,23,-44,-19,18
649,2157,2,-427,-4717,23,-44,-20,18
650,2157,0,-427,-4712,23,-42,-19,17
651,2158,1,-434,-4714,23,-44,-19,17
652,2161,0,-432,-4715,23,-44,-20,17
653,2156,2,-428,-4715,23,-44,-20,18
654,2159,-1,-429,-4711,23,-43,-20,18
655,2159,-1,-426,-4712,23,-44,-20,17
656,2161,0,-432,-4713,23,-43,-20,17
657,2160,0,-430,-4711,23,-44,-19,17
658,2154,-2,-431,-4711,23,-43,-20,17
659,2160,-1,-426,-4713,23,-43,-19,17
660,2160,3,-428,-4714,23,-43,-19,16
661,2161,2,-435,-4710,23,-43,-19,17
662,2159,3,-434,-4713,23,-43,-20,17
663,2161,1,-431,-4713,23,-43,-19,17
664,2161,2,-424,-4717,23,-44,-20,17
665,2162,0,-425,-4719,23,-44,-19,17
666,2159,1,-423,-4718,23,-44,-19,17
667,2155,-1,-421,-4717,23,-44,-20,17
668,2155,0,-427,-4713,23,-44,-19,17
669,2158,2,-429,-4713,23,-44,-19,18
670,2161,0,-426,-4706,23,-44,-19,17
671,2161,-1,-421,-4710,23,-43,-19,16
672,2159,-1,-425,-4712,23,-43,-19,16
673,2158,-1,-427,-4714,23,-43,-18,17
674,2160,2,-425,-4710,23,-44,-19,17
675,2162,0,-432,-4718,23,-45,-19,18
676,2159,4,-433,-4718,23,-44,-20,17
677,2160,5,-436,-4713,23,-44,-20,18
678,2159,-2,-430,-4716,23,-44,-19,18
679,2156,-1,-431,-4715,23,-44,-19,17
680,2155,-4,-430,-4711,23,-44,-20,18
681,2153,-1,-425,-4711,23,-44,-19,16
682,2154,1,-426,-4707,23,-44,-19,17
683,2157,2,-425,-4707,23,-43,-19,18
684,2158,1,-422,-4712,23,-43,-19,17
685,2159,1,-420,-4712,23,-43,-19,17
686,2159,3,-423,-4705,23,-44,-19,17
687,2161,5,-425,-4715,23,-43,-19,18
688,2161,4,-431,-4721,23,-44,-19,17
689,2157,2,-424,-4715,23,-44,-19,17
690,2157,3,-427,-4720,23,-43,-20,17
691,2162,-3,-426,-4716,23,-43,-20,17
692,2165,-4,-425,-4713,23,-44,-19,17
693,2162,-2,-424,-4715,23,-43,-20,18
694,2159,-1,-422,-4714,23,-43,-20,17
695,2158,2,-427,-4711,23,-44,-20,17
696,2158,3,-427,-4709,23,-43,-20,18
697,2156,4,-429,-4714,23,-43,-19,17
698,2158,-1,-428,-4718,23,-43,-20,17
699,2158,-1,-424,-4712,23,-43,-18,16
700,2162,4,-429,-4706,23,-43,-19,18
701,2158,2,-427,-4711,23,-43,-18,18
702,2157,0,-431,-4712,23,-44,-19,17
703,2157,0,-427,-4715,23,-44,-19,17
704,2158,-1,-425,-4710,23,-43,-20,16
705,2156,0,-427,-4710,23,-44,-19,17
706,2153,-2,-428,-4712,23,-43,-18,16
707,2159,1,-427,-4714,23,-44,-19,16
708,2157,0,-429,-4718,23,-43,-19,17
709,2158,4,-421,-4716,23,-43,-21,17
710,2157,2,-429,-4712,23,-43,-20,17
711,2161,2,-423,-4714,23,-44,-19,17
712,2157,5,-428,-4713,23,-43,-19,18
713,2159,4,-429,-4713,23,-44,-20,18
714,2160,2,-427,-4712,23,-43,-20,17
715,2161,0,-428,-4718,23,-43,-19,17
716,2162,-1,-427,-4713,23,-44,-19,17
717,2158,4,-426,-4717,23,-43,-19,17
718,2158,2,-429,-4715,23,-44,-20,16
719,2159,3,-428,-4718,23,-44,-19,17
720,2161,-1,-426,-4714,23,-43,-19,18
721,2156,1,-425,-4712,23,-43,-19,18
722,2156,4,-424,-4712,23,-43,-19,18
723,2159,3,-431,-4715,23,-43,-19,17
724,2161,1,-425,-4711,23,-44,-19,17
725,2161,-3,-430,-4711,23,-44,-19,16
726,2162,-3,-428,-4718,23,-44,-19,17
727,2160,-1,-421,-4713,23,-45,-20,17
728,2161,-2,-427,-4718,23,-43,-18,17
729,2160,-1,-423,-4723,23,-43,-19,17
730,2157,-2,-427,-4716,23,-43,-20,17
731,2158,2,-422,-4715,23,-43,-19,17
732,2160,-1,-425,-4716,23,-44,-19,17
733,2159,-5,-427,-4716,23,-43,-20,17
734,2159,0,-430,-4716,23,-44,-20,18
735,2158,-4,-425,-4715,23,-44,-19,17
736,2158,-4,-424,-4709,23,-44,-20,16
737,2155,-4,-429,-4711,23,-44,-19,16
738,2161,-1,-428,-4714,23,-43,-19,17
739,2159,2,-428,-4713,23,-44,-19,17
740,2161,4,-426,-4715,23,-43,-19,17
741,2163,4,-424,-4712,23,-44,-20,17
742,2161,1,-422,-4714,23,-44,-20,17
743,2160,0,-425,-4710,23,-43,-18,16
744,2158,5,-428,-4711,23,-43,-19,17
745,2155,4,-427,-4711,23,-43,-20,17
746,2157,0,-428,-4705,23,-44,-19,16
747,2159,-1,-424,-4709,23,-44,-19,16
748,2162,-2,-426,-4714,23,-44,-19,17
749,2154,-1,-423,-4713,23,-44,-20,18
750,2157,1,-427,-4711,23,-43,-18,18
751,2155,0,-423,-4711,23,-43,-19,17
752,2159,5,-428,-4713,23,-43,-20,17
753,2159,1,-425,-4715,23,-43,-19,18
754,2162,-1,-422,-4719,23,-43,-19,18
755,2159,0,-423,-4711,23,-43,-20,17
756,2159,-2,-424,-4713,23,-43,-20,17
757,2158,-2,-427,-4716,23,-43,-19,17
758,2159,-3,-427,-4715,23,-43,-18,17
759,2156,-3,-429,-4713,23,-43,-18,17
760,2158,-2,-428,-4709,23,-44,-18,18
761,2160,2,-427,-4712,23,-44,-19,16
762,2160,2,-427,-4709,23,-43,-18,17
763,2160,-1,-420,-4707,23,-43,-19,18
764,2155,4,-420,-4710,23,-43,-19,17
765,2157,0,-425,-4704,23,-43,-19,17
766,2160,-2,-425,-4704,23,-43,-19,17
767,2161,2,-430,-4705,23,-43,-19,17
768,2161,2,-429,-4715,23,-44,-18,17
769,2164,-1,-428,-4712,23,-44,-19,17
770,2161,-3,-425,-4712,23,-43,-20,17
771,2160,-3,-428,-4718,23,-43,-20,17
772,2156,-3,-431,-4717,23,-43,-20,17
773,2159,-3,-426,-4713,23,-43,-19,17
774,2162,0,-425,-4713,23,-44,-19,17
775,2156,4,-425,-4713,23,-44,-18,17
776,2158,1,-425,-4715,23,-44,-19,17
777,2157,0,-421,-4711,23,-43,-19,17
778,2158,-3,-424,-4720,23,-43,-19,17
779,2158,-3,-429,-4711,23,-44,-19,17
780,2159,-1,-430,-4709,23,-44,-19,18
781,2160,-1,-425,-4708,23,-44,-20,17
782,2158,-2,-429,-4710,23,-43,-19,17
783,2157,-1,-430,-4708,23,-43,-19,17
784,2156,3,-430,-4713,23,-43,-20,17
785,2155,0,-426,-4709,23,-44,-19,17
786,2156,0,-425,-4709,23,-44,-19,16
787,2161,-3,-428,-4714,23,-43,-19,17
788,2157,-2,-427,-4711,23,-44,-20,16
789,2159,0,-428,-4709,23,-44,-19,16
790,2162,-2,-427,-4713,23,-44,-20,16
791,2161,-1,-426,-4713,23,-43,-20,17
792,2161,0,-426,-4708,23,-44,-19,17
793,2162,-3,-421,-4708,23,-44,-19,17
794,2158,-1,-429,-4707,23,-44,-19,17
795,2160,-1,-430,-4710,23,-43,-19,18
796,2161,0,-433,-4715,23,-43,-19,17
797,2160,-1,-432,-4710,23,-43,-19,18
798,2162,-1,-431,-4717,23,-44,-18,17
799,2159,-2,-429,-4711,23,-44,-19,17
800,2160,-2,-428,-4712,23,-44,-19,17
801,2158,-1,-429,-4712,23,-43,-20,17
802,2159,-2,-429,-4709,23,-43,-19,18
803,2162,1,-424,-4712,23,-44,-18,18
804,2161,4,-429,-4713,23,-43,-20,17
805,2157,-2,-424,-4711,23,-44,-19,17
806,2157,2,-427,-4710,23,-44,-19,17
807,2156,3,-428,-4710,23,-44,-19,17
808,2159,2,-428,-4712,23,-43,-18,16
809,2158,-1,-424,-4713,23,-43,-19,18
810,2158,1,-426,-4711,23,-44,-18,17
811,2161,0,-418,-4705,23,-44,-18,17
812,2157,4,-425,-4709,23,-44,-19,18
813,2158,0,-424,-4709,23,-43,-20,17
814,2162,-5,-430,-4712,23,-43,-19,17
815,2160,-2,-427,-4709,23,-43,-19,18
816,2156,-2,-425,-4704,23,-43,-19,17
817,2158,-2,-431,-4703,23,-44,-20,17
818,2158,4,-424,-4707,23,-43,-20,17
819,2161,0,-429,-4711,23,-44,-19,17
820,2159,1,-432,-4708,23,-44,-19,17
821,2163,-2,-431,-4708,23,-43,-20,17
822,2161,2,-431,-4710,23,-44,-20,17
823,2161,2,-423,-4710,23,-44,-19,16
824,2161,4,-430,-4711,23,-44,-20,17
825,2160,-1,-431,-4704,23,-43,-20,17
826,2161,1,-428,-4702,23,-45,-18,16
827,2158,-1,-425,-4703,23,-44,-20,17
828,2156,0,-432,-4704,23,-43,-20,17
829,2159,0,-428,-4703,23,-43,-19,17
830,2156,-1,-428,-4709,23,-44,-19,17
831,2160,0,-428,-4709,23,-44,-20,17
832,2158,-1,-430,-4709,23,-44,-18,16
833,2159,3,-428,-4706,23,-44,-18,16
834,2161,5,-424,-4705,23,-44,-19,16
835,2158,3,-420,-4705,23,-44,-19,16
836,2161,-1,-428,-4711,23,-44,-19,17
837,2158,0,-430,-4706,23,-43,-19,18
838,2158,2,-431,-4705,23,-43,-19,17
839,2157,2,-433,-4707,23,-43,-19,17
840,2154,0,-431,-4703,23,-43,-19,17
841,2155,1,-428,-4705,23,-43,-19,17
842,2158,0,-424,-4705,23,-44,-19,17
843,2156,0,-426,-4712,23,-44,-20,18
844,2153,-2,-427,-4708,23,-44,-20,17
845,2157,-4,-431,-4708,23,-44,-20,17
846,2158,-1,-429,-4711,23,-44,-19,17
847,2159,2,-425,-4707,23,-44,-18,17
848,2159,2,-430,-4707,23,-44,-18,17
849,2157,-1,-424,-4702,23,-43,-19,17
850,2158,-4,-423,-4703,23,-43,-19,18
851,2162,1,-425,-4702,23,-44,-19,17
852,2163,1,-424,-4700,23,-43,-20,16
853,2161,1,-427,-4706,23,-43,-20,16
854,2159,-4,-421,-4700,23,-43,-19,16
855,2159,-1,-423,-4701,23,-44,-19,16
856,2158,1,-428,-4704,23,-44,-20,16
857,2158,1,-429,-4710,23,-43,-20,17
858,2160,-1,-432,-4709,23,-43,-20,17
859,2159,4,-435,-4713,23,-43,-19,17
860,2153,0,-427,-4713,23,-43,-20,17
861,2157,-5,-425,-4714,23,-44,-19,17
862,2162,-1,-428,-4711,23,-43,-19,17
863,2162,1,-423,-4708,23,-43,-19,17
864,2160,3,-432,-4708,23,-43,-19,17
865,2158,3,-423,-4705,23,-43,-19,18
866,2157,2,-426,-4705,23,-43,-20,17
867,2159,-1,-430,-4705,23,-43,-19,17
868,2159,1,-426,-4705,23,-44,-19,16
869,2161,2,-427,-4707,23,-44,-19,17
870,2158,-5,-429,-4708,23,-44,-19,17
871,2158,-1,-434,-4706,23,-43,-20,18
872,2159,-1,-429,-4711,23,-44,-20,18
873,2159,1,-425,-4710,23,-44,-19,17
874,2159,0,-430,-4706,23,-43,-19,17
875,2156,0,-430,-4707,23,-43,-19,18
876,2158,3,-429,-4708,23,-43,-19,17
877,2158,-1,-424,-4713,23,-43,-19,17
878,2160,1,-425,-4709,23,-43,-18,17
879,2154,0,-429,-4711,23,-44,-18,17
880,2158,-3,-432,-4711,23,-43,-19,17
881,2157,-6,-434,-4710,23,-43,-19,17
882,2157,-1,-424,-4706,23,-43,-19,17
883,2157,0,-424,-4710,23,-44,-19,17
884,2159,1,-424,-4712,23,-43,-19,17
885,2162,1,-426,-4713,23,-44,-18,18
886,2160,-2,-429,-4706,23,-44,-19,18
887,2158,2,-431,-4708,23,-44,-20,17
888,2156,1,-430,-4702,23,-43,-20,17
889,2157,-1,-426,-4708,23,-44,-19,18
890,2159,1,-427,-4706,23,-43,-19,17
891,2161,1,-427,-4705,23,-44,-20,17
892,2164,-2,-427,-4708,23,-44,-19,18
893,2160,3,-422,-4712,23,-44,-20,17
894,2158,3,-425,-4712,23,-44,-20,17
895,2159,0,-427,-4712,23,-43,-20,17
896,2158,-1,-431,-4709,23,-44,-20,18
897,2154,2,-427,-4710,23,-43,-19,18
898,2157,3,-425,-4710,23,-43,-19,17
899,2161,1,-423,-4708,23,-43,-18,17
900,2161,-1,-423,-4707,23,-43,-20,17
901,2157,2,-425,-4706,23,-43,-20,17
902,2155,-2,-428,-4705,23,-44,-20,17
903,2160,-3,-422,-4708,23,-45,-19,16
904,2162,1,-428,-4708,23,-43,-19,17
905,2159,1,-430,-4709,23,-43,-18,16
906,2155,-2,-430,-4709,23,-44,-19,16
907,2157,2,-434,-4708,23,-44,-19,17
908,2157,0,-428,-4711,23,-43,-19,17
909,2156,3,-431,-4710,23,-44,-20,17
910,2154,0,-430,-4707,23,-44,-20,16
911,2154,-2,-433,-4706,23,-43,-20,16
912,2157,1,-427,-4708,23,-43,-19,16
913,2156,0,-431,-4709,23,-44,-19,16
914,2159,1,-426,-4709,23,-44,-19,16
915,2157,0,-420,-4705,23,-44,-19,16
916,2158,0,-427,-4706,23,-44,-19,16
917,2159,0,-429,-4706,23,-44,-19,18
918,2159,-3,-423,-4709,23,-44,-19,18
919,2160,-1,-422,-4708,23,-44,-19,17
920,2161,0,-430,-4710,23,-43,-20,17
921,2157,3,-432,-4710,23,-44,-20,17
922,2161,0,-429,-4707,23,-45,-19,17
923,2158,-1,-429,-4706,23,-44,-19,17
924,2157,-3,-427,-4703,23,-44,-20,17
925,2160,1,-427,-4708,23,-44,-20,17
926,2162,-1,-424,-4709,23,-44,-20,17
927,2159,-2,-424,-4713,23,-44,-19,17
928,2158,-1,-426,-4711,23,-44,-19,17
929,2158,-1,-432,-4710,23,-44,-20,17
930,2160,-2,-427,-4709,23,-43,-19,17
931,2157,-1,-425,-4715,23,-44,-19,17
932,2156,0,-432,-4714,23,-44,-18,17
933,2161,-1,-426,-4712,23,-43,-17,17
934,2160,-2,-426,-4710,23,-43,-19,17
935,2161,-1,-435,-4711,23,-44,-19,17
936,2159,3,-433,-4717,23,-43,-19,17
937,2160,3,-429,-4712,23,-44,-18,17
938,2160,1,-429,-4707,23,-44,-19,17
939,2158,2,-418,-4707,23,-44,-18,17
940,2156,3,-422,-4708,23,-45,-19,17
941,2159,3,-420,-4712,23,-44,-20,16
942,2159,-2,-428,-4709,23,-43,-19,17
943,2163,-2,-424,-4710,23,-44,-20,17
944,2161,0,-427,-4714,23,-44,-19,16
945,2161,0,-423,-4706,23,-44,-19,15
946,2159,1,-427,-4705,23,-44,-19,17
947,2156,1,-428,-4704,23,-44,-20,16
948,2157,-1,-428,-4710,23,-44,-19,17
949,2157,2,-430,-4711,23,-44,-19,17
950,2159,0,-428,-4707,23,-44,-19,17
951,2156,1,-428,-4704,23,-44,-19,17
952,2155,2,-425,-4707,23,-44,-18,17
953,2160,-1,-425,-4709,23,-43,-19,17
954,2159,0,-432,-4712,23,-43,-19,16
955,2163,2,-427,-4709,23,-43,-20,17
956,2160,-1,-436,-4706,23,-44,-19,17
957,2157,1,-432,-4710,23,-43,-20,17
958,2158,-2,-431,-4712,23,-44,-19,17
959,2162,-2,-420,-4709,23,-44,-20,17
960,2161,-2,-427,-4709,23,-44,-19,17
961,2158,-7,-429,-4710,23,-44,-19,17
962,2156,0,-427,-4709,23,-44,-19,17
963,2156,3,-427,-4709,23,-44,-20,16
964,2159,0,-424,-4709,23,-43,-20,16
965,2161,-2,-426,-4708,23,-43,-19,16
966,2159,0,-426,-4710,23,-43,-19,17
967,2159,1,-423,-4707,23,-43,-19,17
968,2160,-2,-430,-4713,23,-44,-19,17
969,2160,0,-431,-4716,23,-43,-19,17
970,2161,0,-426,-4712,23,-43,-20,17
971,2160,-1,-427,-4710,23,-44,-19,17
972,2157,0,-426,-4712,23,-44,-19,18
973,2154,-2,-426,-4712,23,-44,-20,17
974,2155,0,-426,-4713,23,-43,-19,17
975,2157,2,-425,-4715,23,-43,-20,17
976,2158,1,-430,-4712,23,-44,-19,18
977,2160,3,-431,-4709,23,-44,-19,17
978,2158,0,-427,-4712,23,-44,-19,17
979,2160,-1,-429,-4712,23,-44,-19,16
980,2158,0,-426,-4711,23,-45,-20,18
981,2158,1,-427,-4711,23,-44,-21,18
982,2159,-2,-431,-4705,23,-44,-20,17
983,2161,0,-428,-4705,23,-44,-19,17
984,2157,2,-429,-4703,23,-44,-19,17
985,2156,2,-427,-4710,23,-44,-20,17
986,2159,0,-427,-4710,23,-43,-19,17
987,2156,1,-430,-4705,23,-44,-19,17
988,2156,1,-427,-4707,23,-44,-20,17
989,2162,-1,-431,-4708,23,-43,-19,17
990,2159,1,-430,-4708,23,-44,-20,17
991,2157,4,-430,-4706,23,-43,-19,17
992,2157,-2,-424,-4706,23,-44,-19,17
993,2158,1,-423,-4708,23,-44,-20,17
994,2156,2,-429,-4707,23,-44,-19,17
995,2157,2,-427,-4706,23,-44,-19,17
996,2161,1,-421,-4710,23,-44,-21,16
997,2158,-1,-426,-4711,23,-44,-20,17
998,2157,0,-428,-4710,23,-44,-20,17
