,acc_X,acc_Y,acc_Z,temp,tempC,gyr_X,gyr_Y,gyr_Z
0,8621,1,-1734,-4829,22,-43,-19,16
1,8627,1,-1716,-4830,22,-43,-20,16
2,8644,0,-1725,-4831,22,-43,-19,16
3,8639,9,-1721,-4831,22,-43,-19,17
4,8642,9,-1715,-4826,22,-44,-19,17
5,8641,21,-1723,-4828,22,-43,-19,17
6,8637,8,-1730,-4828,22,-44,-19,17
7,8633,9,-1734,-4830,22,-44,-19,16
8,8633,7,-1719,-4830,22,-43,-19,16
9,8624,10,-1729,-4828,22,-43,-20,16
10,8625,12,-1726,-4828,22,-43,-19,16
11,8631,6,-1728,-4829,22,-43,-20,17
12,8634,3,-1721,-4834,22,-44,-19,17
13,8633,7,-1719,-4832,22,-43,-20,17
14,8634,7,-1715,-4833,22,-44,-20,17
15,8631,10,-1710,-4834,22,-43,-19,17
16,8635,9,-1710,-4836,22,-43,-19,17
17,8638,10,-1712,-4831,22,-42,-19,16
18,8633,5,-1705,-4831,22,-42,-19,17
19,8628,10,-1713,-4831,22,-42,-20,17
20,8630,18,-1722,-4826,22,-43,-20,17
21,8626,14,-1724,-4829,22,-43,-20,17
22,8638,17,-1724,-4831,22,-43,-20,16
23,8640,12,-1720,-4833,22,-43,-19,16
24,8639,7,-1726,-4830,22,-43,-19,16
25,8640,3,-1712,-4828,22,-43,-20,17
26,8636,6,-1714,-4826,22,-44,-20,17
27,8631,2,-1717,-4827,22,-44,-19,17
28,8632,1,-1707,-4826,22,-43,-19,17
29,8637,8,-1711,-4824,22,-43,-20,16
30,8635,8,-1707,-4825,22,-44,-20,17
31,8633,4,-1708,-4826,22,-43,-20,17
32,8635,-1,-1713,-4830,22,-43,-20,17
33,8638,1,-1702,-4831,22,-43,-20,17
34,8637,12,-1696,-4828,22,-43,-20,17
35,8633,21,-1712,-4831,22,-42,-19,17
36,8629,16,-1716,-4830,22,-42,-19,17
37,8623,6,-1712,-4828,22,-43,-19,17
38,8613,4,-1714,-4831,22,-43,-19,17
39,8623,1,-1721,-4831,22,-43,-19,17
40,8624,6,-1726,-4827,22,-43,-19,17
41,8629,5,-1727,-4825,22,-43,-20,17
42,8633,6,-1739,-4826,22,-43,-19,16
43,8631,2,-1725,-4830,22,-43,-19,16
44,8632,0,-1714,-4829,22,-42,-19,16
45,8641,-3,-1712,-4829,22,-43,-19,17
46,8632,-11,-1721,-4833,22,-43,-19,17
47,8625,1,-1728,-4834,22,-43,-19,17
48,8630,5,-1731,-4832,22,-43,-20,17
49,8632,2,-1723,-4829,22,-43,-20,17
50,8635,9,-1715,-4830,22,-43,-19,17
51,8627,14,-1712,-4829,22,-43,-19,17
52,8629,14,-1705,-4828,22,-43,-19,17
53,8629,15,-1712,-4827,22,-43,-19,17
54,8632,13,-1717,-4825,22,-43,-19,17
55,8636,3,-1717,-4828,22,-43,-20,17
56,8636,10,-1714,-4830,22,-43,-20,17
57,8639,11,-1719,-4826,22,-43,-19,17
58,8646,15,-1707,-4828,22,-43,-19,17
59,8637,9,-1714,-4826,22,-43,-19,17
60,8630,13,-1718,-4825,22,-43,-19,17
61,8635,11,-1729,-4829,22,-44,-20,17
62,8634,8,-1720,-4828,22,-43,-20,16
63,8633,7,-1721,-4828,22,-44,-20,17
64,8631,1,-1719,-4826,22,-44,-20,17
65,8629,0,-1726,-4827,22,-43,-20,16
66,8636,5,-1734,-4824,22,-43,-19,16
67,8638,7,-1723,-4828,22,-43,-19,17
68,8643,7,-1724,-4827,22,-43,-19,17
69,8642,2,-1710,-4829,22,-44,-19,17
70,8641,0,-1710,-4830,22,-44,-19,16
71,8634,0,-1711,-4828,22,-44,-20,17
72,8642,-1,-1705,-4831,22,-44,-20,17
73,8645,5,-1710,-4829,22,-43,-20,17
74,8639,-1,-1703,-4827,22,-43,-19,17
75,8644,7,-1707,-4826,22,-43,-19,17
76,8640,10,-1714,-4826,22,-43,-20,17
77,8640,4,-1723,-4827,22,-43,-19,17
78,8640,12,-1728,-4828,22,-43,-20,16
79,8631,12,-1731,-4829,22,-44,-19,17
80,8628,12,-1737,-4830,22,-44,-19,17
81,8619,8,-1734,-4827,22,-43,-19,17
82,8626,0,-1721,-4823,22,-43,-19,17
83,8635,4,-1713,-4826,22,-43,-19,17
84,8641,-2,-1708,-4829,22,-43,-20,17
85,8637,-6,-1694,-4829,22,-43,-19,17
86,8637,-5,-1699,-4827,22,-43,-19,17
87,8645,-4,-1708,-4831,22,-43,-19,16
88,8636,11,-1715,-4828,22,-43,-20,16
89,8636,10,-1725,-4831,22,-43,-19,16
90,8640,15,-1712,-4831,22,-43,-20,16
91,8639,10,-1700,-4831,22,-43,-19,17
92,8639,5,-1707,-4829,22,-43,-20,17
93,8640,1,-1707,-4826,22,-43,-19,16
94,8636,-1,-1711,-4829,22,-43,-19,17
95,8631,3,-1706,-4827,22,-43,-19,17
96,8634,6,-1709,-4828,22,-43,-19,17
97,8641,4,-1715,-4826,22,-43,-19,17
98,8648,6,-1726,-4827,22,-43,-19,17
99,8642,3,-1720,-4829,22,-43,-19,17
100,8639,6,-1713,-4830,22,-44,-20,17
101,8631,5,-1727,-4828,22,-43,-20,17
102,8620,-5,-1724,-4825,22,-43,-20,17
103,8623,8,-1730,-4828,22,-43,-20,17
104,8632,2,-1719,-4828,22,-43,-19,17
105,8631,4,-1714,-4824,22,-43,-20,17
106,8630,1,-1705,-4823,22,-43,-19,17
107,8630,4,-1712,-4826,22,-43,-19,17
108,8630,2,-1711,-4828,22,-43,-19,17
109,8634,1,-1728,-4831,22,-43,-19,17
110,8639,-3,-1726,-4828,22,-44,-20,17
111,8634,-5,-1725,-4830,22,-43,-20,16
112,8634,-1,-1725,-4829,22,-43,-19,17
113,8636,1,-1712,-4827,22,-43,-20,17
114,8623,1,-1712,-4828,22,-43,-19,16
115,8628,4,-1719,-4829,22,-43,-20,16
116,8632,7,-1723,-4825,22,-43,-19,17
117,8638,10,-1728,-4826,22,-43,-19,16
118,8639,5,-1718,-4827,22,-43,-19,17
119,8636,13,-1714,-4828,22,-43,-19,17
120,8640,16,-1711,-4827,22,-43,-19,17
121,8643,4,-1693,-4825,22,-43,-19,17
122,8636,7,-1699,-4826,22,-43,-19,16
123,8634,10,-1704,-4825,22,-43,-19,17
124,8639,5,-1705,-4826,22,-43,-19,17
125,8635,-2,-1690,-4828,22,-43,-19,16
126,8640,3,-1704,-4827,22,-43,-20,17
127,8640,3,-1699,-4827,22,-43,-20,17
128,8641,2,-1713,-4827,22,-43,-20,17
129,8640,11,-1715,-4828,22,-43,-19,17
130,8641,12,-1726,-4832,22,-43,-19,17
131,8635,11,-1712,-4831,22,-44,-19,17
132,8637,11,-1702,-4828,22,-44,-19,17
133,8639,16,-1711,-4828,22,-44,-20,17
134,8634,14,-1705,-4829,22,-43,-19,17
135,8631,14,-1718,-4830,22,-43,-19,16
136,8636,14,-1716,-4828,22,-44,-20,16
137,8627,16,-1732,-4826,22,-43,-20,17
138,8622,23,-1729,-4825,22,-44,-19,17
139,8625,15,-1729,-4826,22,-44,-19,16
140,8630,6,-1730,-4827,22,-43,-19,16
141,8634,-1,-1727,-4829,22,-43,-19,16
142,8639,-1,-1724,-4830,22,-43,-20,16
143,8631,3,-1722,-4828,22,-44,-19,17
144,8628,4,-1714,-4826,22,-43,-19,17
145,8632,-6,-1714,-4827,22,-43,-19,17
146,8637,7,-1717,-4828,22,-43,-20,16
147,8636,1,-1710,-4831,22,-43,-20,17
148,8641,1,-1704,-4832,22,-43,-20,17
149,8640,-7,-1711,-4830,22,-43,-20,17
150,8646,3,-1709,-4826,22,-43,-19,17
151,8653,9,-1712,-4825,22,-43,-18,17
152,8658,4,-1712,-4824,22,-43,-19,17
153,8646,6,-1731,-4826,22,-43,-19,17
154,8637,6,-1730,-4827,22,-43,-19,17
155,8643,7,-1737,-4828,22,-44,-19,17
156,8639,3,-1742,-4829,22,-44,-20,17
157,8632,-1,-1737,-4830,22,-44,-20,17
158,8630,8,-1734,-4828,22,-43,-19,17
159,8632,10,-1730,-4824,22,-44,-19,17
160,8634,13,-1718,-4824,22,-43,-19,17
161,8636,11,-1718,-4827,22,-44,-19,17
162,8636,4,-1706,-4828,22,-44,-19,17
163,8636,6,-1702,-4830,22,-43,-20,16
164,8636,-2,-1704,-4829,22,-43,-20,16
165,8633,3,-1702,-4829,22,-43,-20,17
166,8626,1,-1698,-4827,22,-44,-20,17
167,8630,0,-1700,-4827,22,-43,-19,17
168,8627,-1,-1713,-4828,22,-43,-19,17
169,8629,0,-1704,-4827,22,-43,-19,17
170,8633,-2,-1710,-4826,22,-44,-19,17
171,8638,14,-1716,-4828,22,-43,-19,17
172,8646,11,-1726,-4823,22,-43,-19,17
173,8648,3,-1730,-4826,22,-43,-19,17
174,8645,2,-1720,-4824,22,-43,-19,17
175,8639,0,-1719,-4826,22,-43,-19,17
176,8641,8,-1718,-4824,22,-43,-18,17
177,8642,9,-1716,-4827,22,-43,-19,17
178,8639,16,-1711,-4826,22,-43,-19,16
179,8654,14,-1715,-4827,22,-43,-19,17
180,8656,3,-1716,-4828,22,-44,-19,17
181,8646,9,-1718,-4828,22,-43,-19,17
182,8646,4,-1721,-4831,22,-43,-19,16
183,8630,5,-1713,-4828,22,-43,-19,17
184,8635,3,-1713,-4829,22,-43,-19,17
185,8633,7,-1708,-4829,22,-43,-19,17
186,8635,5,-1718,-4830,22,-43,-19,17
187,8639,9,-1715,-4828,22,-43,-19,17
188,8634,0,-1719,-4826,22,-43,-19,16
189,8634,11,-1725,-4826,22,-43,-19,16
190,8633,12,-1716,-4826,22,-43,-19,17
191,8635,14,-1704,-4826,22,-43,-19,17
192,8633,3,-1724,-4826,22,-43,-19,17
193,8636,8,-1729,-4825,22,-43,-19,17
194,8640,-3,-1736,-4828,22,-43,-19,17
195,8642,3,-1730,-4830,22,-43,-19,17
196,8643,10,-1719,-4829,22,-43,-19,17
197,8626,6,-1721,-4831,22,-43,-19,17
198,8636,4,-1717,-4830,22,-43,-19,17
199,8635,3,-1705,-4833,22,-43,-19,17
200,8632,5,-1720,-4832,22,-43,-19,17
201,8637,1,-1718,-4829,22,-43,-19,17
202,8634,-6,-1711,-4832,22,-43,-19,17
203,8631,-5,-1711,-4830,22,-43,-19,17
204,8632,-8,-1704,-4828,22,-43,-19,17
205,8639,-1,-1707,-4829,22,-43,-19,17
206,8644,-2,-1708,-4825,22,-44,-20,16
207,8642,2,-1722,-4828,22,-43,-20,16
208,8633,1,-1718,-4827,22,-43,-20,16
209,8633,7,-1722,-4828,22,-44,-20,17
210,8628,5,-1719,-4826,22,-43,-20,16
211,8629,7,-1722,-4826,22,-43,-19,17
212,8629,7,-1724,-4828,22,-43,-19,17
213,8633,-2,-1723,-4829,22,-43,-19,17
214,8641,-2,-1716,-4831,22,-43,-19,17
215,8644,3,-1716,-4833,22,-43,-19,17
216,8635,1,-1729,-4830,22,-44,-19,17
217,8627,3,-1731,-4831,22,-43,-19,17
218,8633,3,-1731,-4829,22,-43,-19,17
219,8633,14,-1722,-4828,22,-43,-19,17
220,8627,-3,-1721,-4826,22,-44,-19,17
221,8630,0,-1714,-4827,22,-43,-19,17
222,8631,0,-1712,-4828,22,-43,-19,17
223,8641,7,-1715,-4829,22,-43,-19,17
224,8645,7,-1711,-4831,22,-43,-20,17
225,8641,-3,-1712,-4829,22,-43,-20,17
226,8647,5,-1708,-4828,22,-43,-20,17
227,8637,0,-1712,-4829,22,-43,-19,17
228,8639,-6,-1710,-4829,22,-43,-19,17
229,8639,-2,-1723,-4829,22,-43,-19,17
230,8631,-9,-1714,-4830,22,-44,-19,17
231,8635,-3,-1703,-4824,22,-43,-20,17
232,8640,-2,-1706,-4822,22,-43,-20,17
233,8637,2,-1706,-4823,22,-43,-20,17
234,8633,4,-1704,-4823,22,-43,-20,17
235,8633,0,-1712,-4824,22,-43,-19,17
236,8641,-1,-1725,-4824,22,-43,-19,17
237,8635,9,-1718,-4825,22,-43,-19,17
238,8635,4,-1720,-4824,22,-43,-19,17
239,8637,1,-1716,-4826,22,-43,-19,17
240,8636,11,-1718,-4826,22,-43,-20,17
241,8640,1,-1714,-4825,22,-43,-20,17
242,8638,3,-1710,-4826,22,-43,-19,17
243,8640,-5,-1715,-4826,22,-43,-19,17
244,8633,-2,-1706,-4825,22,-43,-19,17
245,8638,-3,-1710,-4822,22,-43,-19,17
246,8638,3,-1711,-4824,22,-42,-20,17
247,8638,8,-1704,-4827,22,-42,-19,17
248,8636,3,-1714,-4829,22,-42,-20,17
249,8636,3,-1712,-4834,22,-43,-19,17
250,8638,3,-1713,-4831,22,-43,-20,17
251,8639,-3,-1713,-4829,22,-43,-19,17
252,8634,5,-1716,-4830,22,-43,-20,16
253,8635,8,-1712,-4829,22,-43,-20,17
254,8628,2,-1711,-4828,22,-43,-19,17
255,8635,2,-1723,-4830,22,-43,-20,17
256,8630,13,-1722,-4828,22,-44,-20,17
257,8646,16,-1728,-4824,22,-43,-19,17
258,8638,9,-1722,-4823,22,-43,-19,17
259,8640,-2,-1717,-4824,22,-43,-19,17
260,8631,11,-1725,-4824,22,-42,-19,16
261,8633,9,-1717,-4825,22,-43,-20,16
262,8633,12,-1725,-4825,22,-44,-20,16
263,8634,19,-1723,-4829,22,-44,-20,16
264,8635,20,-1722,-4828,22,-44,-19,17
265,8637,10,-1714,-4831,22,-44,-19,17
266,8630,1,-1713,-4826,22,-43,-19,17
267,8635,5,-1708,-4826,22,-43,-19,17
268,8636,13,-1721,-4830,22,-43,-19,17
269,8637,7,-1715,-4829,22,-43,-19,17
270,8639,3,-1727,-4827,22,-44,-19,17
271,8640,12,-1710,-4826,22,-44,-19,17
272,8640,18,-1697,-4827,22,-43,-20,17
273,8629,21,-1692,-4826,22,-43,-20,17
274,8633,13,-1705,-4828,22,-43,-19,17
275,8631,17,-1714,-4825,22,-43,-19,17
276,8627,1,-1712,-4829,22,-43,-20,17
277,8630,8,-1697,-4831,22,-43,-19,17
278,8634,7,-1708,-4830,22,-43,-19,17
279,8630,10,-1706,-4828,22,-43,-19,17
280,8639,4,-1703,-4828,22,-43,-19,17
281,8641,2,-1714,-4824,22,-43,-19,17
282,8641,-2,-1716,-4826,22,-43,-19,17
283,8640,2,-1706,-4827,22,-43,-19,17
284,8642,4,-1706,-4826,22,-43,-19,16
285,8640,6,-1697,-4827,22,-43,-19,17
286,8640,10,-1701,-4826,22,-43,-19,16
287,8637,4,-1706,-4828,22,-43,-20,17
288,8640,0,-1698,-4830,22,-43,-20,17
289,8636,-8,-1709,-4832,22,-43,-19,17
290,8636,1,-1717,-4832,22,-43,-19,16
291,8637,7,-1717,-4828,22,-43,-19,16
292,8630,1,-1724,-4824,22,-44,-19,16
293,8642,8,-1711,-4823,22,-43,-19,17
294,8634,5,-1717,-4823,22,-43,-19,17
295,8639,5,-1723,-4824,22,-43,-19,17
296,8639,-3,-1723,-4824,22,-43,-19,16
297,8634,3,-1716,-4825,22,-43,-19,17
298,8629,4,-1707,-4827,22,-43,-19,17
299,8619,-1,-1707,-4829,22,-43,-19,17
300,8626,3,-1706,-4829,22,-43,-19,17
301,8626,7,-1712,-4826,22,-43,-19,17
302,8630,-4,-1708,-4826,22,-43,-19,17
303,8640,-1,-1721,-4829,22,-43,-19,17
304,8635,5,-1713,-4827,22,-43,-19,17
305,8634,0,-1712,-4829,22,-43,-19,17
306,8644,2,-1714,-4829,22,-43,-20,17
307,8641,7,-1725,-4830,22,-43,-20,17
308,8637,10,-1723,-4828,22,-43,-20,16
309,8641,10,-1727,-4825,22,-43,-20,16
310,8648,3,-1715,-4828,22,-43,-20,16
311,8638,5,-1724,-4828,22,-43,-19,17
312,8641,3,-1722,-4827,22,-43,-19,17
313,8647,-2,-1718,-4830,22,-43,-19,17
314,8647,-8,-1717,-4827,22,-43,-19,17
315,8638,-2,-1710,-4830,22,-43,-19,17
316,8640,4,-1726,-4827,22,-44,-19,17
317,8638,-8,-1724,-4825,22,-43,-20,17
318,8643,3,-1714,-4824,22,-43,-20,17
319,8639,-1,-1720,-4827,22,-43,-20,17
320,8631,4,-1734,-4824,22,-44,-20,16
321,8630,7,-1722,-4828,22,-44,-20,16
322,8628,12,-1720,-4830,22,-43,-20,16
323,8632,12,-1714,-4831,22,-43,-20,16
324,8637,2,-1711,-4830,22,-43,-20,17
325,8635,4,-1732,-4829,22,-43,-20,17
326,8640,4,-1730,-4827,22,-43,-19,17
327,8637,-2,-1732,-4825,22,-43,-20,17
328,8634,0,-1733,-4827,22,-43,-20,16
329,8625,2,-1726,-4827,22,-43,-19,17
330,8638,1,-1712,-4826,22,-43,-19,17
331,8633,9,-1736,-4825,22,-44,-19,17
332,8632,2,-1733,-4825,22,-43,-19,17
333,8635,-3,-1731,-4826,22,-43,-20,16
334,8636,2,-1730,-4828,22,-43,-20,17
335,8635,2,-1720,-4829,22,-43,-19,17
336,8638,-4,-1727,-4830,22,-43,-19,17
337,8640,0,-1710,-4828,22,-43,-19,17
338,8642,-4,-1709,-4827,22,-44,-19,17
339,8643,-10,-1711,-4827,22,-43,-19,17
340,8633,-7,-1707,-4826,22,-43,-19,17
341,8634,-5,-1710,-4827,22,-43,-19,17
342,8640,-1,-1711,-4829,22,-43,-19,17
343,8643,-1,-1720,-4829,22,-43,-19,17
344,8630,-3,-1717,-4830,22,-43,-19,17
345,8636,5,-1723,-4829,22,-44,-19,17
346,8630,4,-1720,-4827,22,-43,-19,17
347,8639,6,-1725,-4828,22,-43,-19,17
348,8635,-1,-1724,-4830,22,-43,-19,17
349,8633,0,-1724,-4828,22,-43,-19,17
350,8626,6,-1726,-4826,22,-43,-19,17
351,8625,2,-1715,-4822,22,-43,-19,17
352,8622,0,-1709,-4822,22,-43,-19,17
353,8626,-1,-1713,-4826,22,-43,-19,18
354,8634,-3,-1715,-4826,22,-42,-19,17
355,8634,-5,-1723,-4828,22,-43,-19,17
356,8637,-3,-1719,-4825,22,-43,-19,17
357,8636,5,-1717,-4826,22,-43,-20,18
358,8628,5,-1722,-4822,22,-43,-19,17
359,8629,3,-1719,-4822,22,-43,-20,17
360,8639,4,-1733,-4825,22,-43,-20,17
361,8635,9,-1713,-4828,22,-43,-19,17
362,8638,5,-1716,-4825,22,-43,-19,17
363,8640,6,-1707,-4825,22,-43,-20,17
364,8640,6,-1719,-4823,22,-43,-20,16
365,8642,3,-1705,-4823,22,-42,-20,17
366,8634,3,-1709,-4828,22,-42,-20,17
367,8634,1,-1712,-4829,22,-43,-19,17
368,8622,1,-1708,-4827,22,-43,-19,17
369,8625,7,-1722,-4825,22,-43,-20,17
370,8633,5,-1716,-4823,22,-43,-19,17
371,8637,5,-1730,-4826,22,-43,-19,17
372,8643,9,-1715,-4824,22,-43,-19,17
373,8634,9,-1709,-4825,22,-43,-19,17
374,8638,12,-1704,-4822,22,-43,-19,17
375,8635,9,-1716,-4824,22,-43,-19,17
376,8637,14,-1721,-4818,22,-43,-19,17
377,8634,16,-1728,-4822,22,-43,-20,17
378,8635,8,-1718,-4823,22,-43,-19,17
379,8641,1,-1733,-4826,22,-42,-19,17
380,8636,1,-1721,-4827,22,-43,-20,17
381,8635,-5,-1720,-4829,22,-43,-20,17
382,8643,-2,-1727,-4827,22,-43,-19,17
383,8641,-2,-1723,-4824,22,-43,-19,17
384,8633,-6,-1730,-4823,22,-43,-19,17
385,8637,-8,-1717,-4823,22,-43,-19,17
386,8646,2,-1721,-4827,22,-43,-19,17
387,8646,-2,-1723,-4824,22,-43,-19,17
388,8639,-3,-1724,-4823,22,-43,-19,17
389,8642,2,-1709,-4821,22,-43,-19,17
390,8637,-2,-1727,-4824,22,-43,-19,17
391,8633,2,-1728,-4823,22,-43,-19,17
392,8630,1,-1721,-4823,22,-43,-19,17
393,8628,1,-1720,-4823,22,-43,-19,17
394,8624,10,-1721,-4824,22,-43,-19,16
395,8624,9,-1724,-4826,22,-43,-19,17
396,8624,13,-1716,-4826,22,-44,-19,17
397,8622,3,-1707,-4825,22,-43,-19,16
398,8633,-2,-1703,-4825,22,-43,-19,16
399,8642,11,-1717,-4824,22,-43,-19,17
400,8640,10,-1711,-4824,22,-43,-18,17
401,8642,6,-1719,-4824,22,-43,-19,16
402,8641,2,-1718,-4823,22,-43,-19,16
403,8636,6,-1715,-4823,22,-43,-19,16
404,8639,5,-1714,-4823,22,-43,-19,16
405,8635,8,-1716,-4823,22,-43,-19,16
406,8644,15,-1724,-4822,22,-43,-19,16
407,8637,14,-1739,-4825,22,-43,-20,16
408,8637,5,-1732,-4824,22,-43,-19,17
409,8632,11,-1713,-4824,22,-43,-20,16
410,8641,4,-1713,-4822,22,-43,-20,17
411,8636,9,-1714,-4823,22,-43,-19,17
412,8629,9,-1715,-4823,22,-43,-19,17
413,8634,9,-1713,-4825,22,-43,-19,17
414,8633,12,-1712,-4826,22,-43,-19,16
415,8636,17,-1703,-4826,22,-43,-19,17
416,8632,3,-1692,-4823,22,-43,-20,17
417,8644,17,-1696,-4826,22,-43,-20,17
418,8643,11,-1706,-4829,22,-43,-19,17
419,8644,5,-1702,-4831,22,-43,-19,17
420,8638,4,-1706,-4831,22,-43,-20,17
421,8636,6,-1707,-4828,22,-43,-20,18
422,8638,3,-1716,-4825,22,-43,-20,17
423,8635,2,-1726,-4822,22,-43,-20,17
424,8637,2,-1728,-4823,22,-44,-20,17
425,8635,4,-1720,-4823,22,-44,-19,16
426,8640,7,-1715,-4822,22,-44,-19,17
427,8642,15,-1717,-4824,22,-44,-19,17
428,8643,12,-1722,-4824,22,-44,-19,17
429,8641,7,-1714,-4825,22,-43,-19,17
430,8647,4,-1709,-4825,22,-43,-19,17
431,8645,5,-1709,-4824,22,-43,-19,17
432,8640,3,-1698,-4822,22,-44,-19,17
433,8641,13,-1702,-4820,22,-43,-19,17
434,8639,6,-1701,-4823,22,-43,-19,17
435,8635,7,-1710,-4823,22,-43,-19,16
436,8637,14,-1723,-4822,22,-43,-19,16
437,8635,14,-1727,-4827,22,-43,-20,16
438,8636,12,-1713,-4827,22,-43,-20,17
439,8635,9,-1699,-4826,22,-43,-19,17
440,8636,8,-1711,-4826,22,-43,-19,17
441,8632,9,-1716,-4824,22,-43,-20,18
442,8633,6,-1717,-4823,22,-43,-20,17
443,8630,7,-1724,-4822,22,-43,-20,17
444,8632,11,-1710,-4823,22,-43,-19,16
445,8624,3,-1704,-4823,22,-43,-19,17
446,8630,-3,-1695,-4825,22,-43,-19,17
447,8626,-2,-1699,-4827,22,-43,-19,17
448,8629,-7,-1699,-4826,22,-44,-19,17
449,8629,-6,-1707,-4826,22,-44,-19,17
450,8628,7,-1720,-4824,22,-43,-19,17
451,8635,10,-1735,-4824,22,-43,-19,17
452,8637,12,-1720,-4828,22,-43,-19,17
453,8639,-3,-1719,-4825,22,-43,-19,17
454,8635,-3,-1717,-4827,22,-43,-19,17
455,8631,7,-1723,-4829,22,-43,-19,17
456,8637,12,-1726,-4829,22,-43,-19,16
457,8623,15,-1726,-4828,22,-43,-19,16
458,8630,12,-1738,-4827,22,-43,-20,17
459,8631,2,-1727,-4824,22,-43,-19,17
460,8644,1,-1711,-4827,22,-43,-19,17
461,8641,4,-1716,-4826,22,-43,-19,16
462,8635,10,-1727,-4824,22,-43,-19,17
463,8633,16,-1710,-4825,22,-43,-20,17
464,8635,21,-1702,-4820,22,-44,-19,17
465,8630,9,-1709,-4822,22,-44,-19,17
466,8639,12,-1712,-4823,22,-44,-19,17
467,8644,10,-1711,-4824,22,-43,-19,17
468,8639,8,-1719,-4824,22,-44,-19,16
469,8635,7,-1702,-4824,22,-43,-20,16
470,8641,6,-1698,-4823,22,-43,-19,16
471,8630,7,-1694,-4824,22,-43,-19,17
472,8628,6,-1701,-4824,22,-43,-19,17
473,8631,13,-1698,-4822,22,-44,-19,17
474,8636,16,-1707,-4823,22,-44,-20,17
475,8633,12,-1701,-4824,22,-43,-20,17
476,8638,5,-1708,-4824,22,-44,-19,17
477,8627,8,-1715,-4822,22,-44,-19,17
478,8630,8,-1717,-4818,22,-43,-19,17
479,8638,6,-1720,-4819,22,-44,-19,16
480,8632,13,-1707,-4821,22,-43,-19,17
481,8628,15,-1700,-4822,22,-43,-19,17
482,8625,12,-1714,-4823,22,-43,-19,17
483,8635,6,-1710,-4821,22,-43,-19,17
484,8635,4,-1694,-4819,22,-43,-19,17
485,8637,3,-1709,-4824,22,-43,-18,17
486,8635,3,-1726,-4825,22,-43,-19,17
487,8639,7,-1716,-4826,22,-43,-19,17
488,8644,1,-1717,-4825,22,-43,-19,17
489,8645,4,-1717,-4823,22,-43,-19,17
490,8644,5,-1715,-4824,22,-43,-19,17
491,8645,8,-1728,-4823,22,-43,-19,17
492,8645,19,-1728,-4824,22,-44,-19,17
493,8644,17,-1726,-4825,22,-44,-20,17
494,8637,12,-1722,-4826,22,-44,-19,17
495,8645,13,-1717,-4824,22,-44,-19,17
496,8650,9,-1717,-4827,22,-44,-19,17
497,8649,10,-1726,-4828,22,-43,-19,17
498,8644,7,-1706,-4826,22,-44,-19,17
499,8637,9,-1710,-4825,22,-44,-19,17
500,8633,9,-1716,-4821,22,-43,-19,17
501,8636,8,-1711,-4823,22,-43,-19,17
502,8635,13,-1711,-4824,22,-44,-19,17
503,8633,2,-1725,-4823,22,-43,-19,17
504,8632,2,-1722,-4824,22,-43,-20,16
505,8633,3,-1741,-4825,22,-43,-19,16
506,8641,9,-1723,-4823,22,-43,-20,16
507,8636,3,-1715,-4823,22,-42,-20,17
508,8641,-9,-1707,-4820,22,-43,-19,17
509,8635,1,-1710,-4821,22,-43,-20,17
510,8629,1,-1708,-4822,22,-43,-19,17
511,8633,5,-1700,-4824,22,-43,-20,17
512,8636,13,-1707,-4823,22,-43,-20,17
513,8631,5,-1704,-4825,22,-43,-19,17
514,8632,-3,-1707,-4828,22,-43,-19,16
515,8636,1,-1719,-4827,22,-43,-20,17
516,8646,-5,-1708,-4825,22,-43,-20,17
517,8644,-2,-1715,-4825,22,-43,-20,17
518,8634,3,-1716,-4824,22,-44,-20,17
519,8637,1,-1712,-4822,22,-44,-20,17
520,8634,3,-1708,-4820,22,-43,-20,17
521,8637,0,-1706,-4822,22,-43,-20,17
522,8636,3,-1714,-4823,22,-43,-19,16
523,8642,2,-1727,-4821,22,-43,-19,16
524,8640,3,-1727,-4824,22,-43,-19,17
525,8640,1,-1728,-4822,22,-43,-19,17
526,8645,9,-1722,-4820,22,-43,-19,17
527,8641,7,-1713,-4820,22,-43,-20,17
528,8640,8,-1724,-4820,22,-43,-20,17
529,8634,11,-1722,-4821,22,-43,-20,16
530,8637,9,-1715,-4819,22,-43,-19,17
531,8633,3,-1715,-4820,22,-43,-19,17
532,8639,1,-1715,-4819,22,-43,-19,17
533,8634,8,-1704,-4820,22,-43,-19,17
534,8629,-3,-1714,-4822,22,-43,-20,17
535,8633,11,-1732,-4820,22,-43,-19,16
536,8634,0,-1715,-4820,22,-43,-19,16
537,8643,-2,-1712,-4820,22,-43,-19,16
538,8647,1,-1715,-4823,22,-43,-19,16
539,8645,4,-1721,-4825,22,-42,-20,17
540,8638,11,-1724,-4825,22,-43,-19,17
541,8638,12,-1724,-4825,22,-43,-19,17
542,8635,7,-1727,-4823,22,-43,-19,17
543,8632,2,-1730,-4825,22,-43,-19,17
544,8633,-2,-1729,-4821,22,-43,-19,17
545,8641,10,-1718,-4821,22,-43,-19,17
546,8641,17,-1728,-4821,22,-43,-19,17
547,8644,12,-1723,-4820,22,-43,-20,16
548,8648,20,-1728,-4816,22,-43,-20,16
549,8651,11,-1717,-4820,22,-43,-19,16
550,8649,5,-1724,-4818,22,-43,-20,17
551,8640,7,-1730,-4819,22,-43,-20,17
552,8637,9,-1735,-4814,22,-43,-19,16
553,8637,5,-1730,-4820,22,-43,-19,17
554,8635,-5,-1724,-4823,22,-44,-19,17
555,8636,6,-1709,-4823,22,-43,-20,17
556,8642,6,-1721,-4821,22,-43,-19,17
557,8645,10,-1708,-4822,22,-44,-19,17
558,8638,8,-1710,-4822,22,-44,-19,16
559,8643,3,-1708,-4822,22,-44,-19,17
560,8646,5,-1711,-4820,22,-44,-19,17
561,8648,7,-1715,-4820,22,-43,-19,17
562,8644,1,-1709,-4816,22,-43,-20,17
563,8642,-3,-1702,-4817,22,-43,-20,17
564,8643,1,-1707,-4818,22,-43,-20,17
565,8630,5,-1704,-4815,22,-43,-19,17
566,8632,-2,-1710,-4814,22,-43,-20,17
567,8630,-6,-1701,-4815,22,-43,-20,17
568,8637,1,-1710,-4816,22,-43,-19,17
569,8637,10,-1697,-4816,22,-43,-19,17
570,8640,8,-1713,-4818,22,-43,-19,17
571,8646,17,-1728,-4818,22,-43,-19,16
572,8645,8,-1736,-4818,22,-43,-19,17
573,8647,6,-1724,-4819,22,-43,-19,17
574,8638,8,-1737,-4818,22,-44,-19,17
575,8633,0,-1723,-4819,22,-43,-18,17
576,8632,4,-1720,-4820,22,-44,-19,16
577,8635,8,-1722,-4819,22,-43,-19,16
578,8629,13,-1720,-4821,22,-43,-19,16
579,8639,20,-1721,-4822,22,-43,-19,16
580,8643,21,-1701,-4821,22,-43,-19,17
581,8652,16,-1701,-4821,22,-43,-19,17
582,8649,10,-1718,-4823,22,-43,-19,17
583,8645,4,-1723,-4818,22,-43,-19,17
584,8639,4,-1726,-4818,22,-43,-20,17
585,8638,8,-1724,-4821,22,-43,-19,16
586,8640,13,-1732,-4819,22,-44,-19,17
587,8642,5,-1721,-4822,22,-43,-20,17
588,8641,10,-1707,-4818,22,-43,-20,17
589,8636,9,-1703,-4820,22,-43,-19,17
590,8641,13,-1718,-4820,22,-43,-20,17
591,8639,14,-1712,-4820,22,-43,-19,17
592,8633,9,-1708,-4822,22,-43,-19,17
593,8633,5,-1718,-4825,22,-44,-19,17
594,8643,12,-1704,-4822,22,-43,-19,17
595,8635,11,-1711,-4823,22,-43,-19,16
596,8634,13,-1706,-4821,22,-44,-19,16
597,8637,13,-1714,-4822,22,-44,-19,16
598,8638,5,-1708,-4822,22,-44,-19,16
599,8643,2,-1713,-4820,22,-43,-20,17
600,8646,7,-1705,-4820,22,-43,-20,16
601,8642,4,-1711,-4820,22,-44,-20,17
602,8635,-6,-1712,-4822,22,-44,-20,17
603,8646,1,-1716,-4825,22,-43,-20,17
604,8647,6,-1721,-4822,22,-43,-20,17
605,8645,10,-1718,-4819,22,-43,-19,17
606,8644,18,-1721,-4821,22,-43,-20,17
607,8641,15,-1711,-4823,22,-43,-19,17
608,8641,6,-1711,-4822,22,-43,-19,17
609,8639,-2,-1715,-4822,22,-43,-20,17
610,8638,-5,-1715,-4820,22,-43,-20,17
611,8638,-3,-1732,-4819,22,-43,-20,17
612,8639,0,-1716,-4815,22,-43,-19,17
613,8634,-6,-1711,-4818,22,-43,-19,17
614,8630,-3,-1714,-4824,22,-43,-20,17
615,8630,11,-1712,-4823,22,-43,-20,17
616,8636,3,-1715,-4821,22,-43,-20,17
617,8635,2,-1708,-4821,22,-43,-19,17
618,8630,9,-1707,-4821,22,-43,-19,17
619,8632,15,-1708,-4820,22,-43,-20,16
620,8631,22,-1713,-4818,22,-44,-20,17
621,8632,19,-1705,-4816,22,-43,-20,17
622,8632,12,-1699,-4817,22,-43,-20,17
623,8635,7,-1713,-4817,22,-43,-20,17
624,8635,7,-1716,-4815,22,-44,-20,17
625,8634,5,-1713,-4817,22,-44,-20,17
626,8634,12,-1708,-4818,22,-43,-20,16
627,8636,3,-1716,-4817,22,-43,-20,17
628,8635,7,-1720,-4818,22,-43,-19,17
629,8643,-1,-1728,-4819,22,-43,-18,17
630,8649,7,-1715,-4818,22,-44,-18,17
631,8643,14,-1728,-4819,22,-44,-18,17
632,8645,7,-1729,-4818,22,-44,-19,17
633,8636,8,-1717,-4819,22,-44,-19,17
634,8629,9,-1720,-4819,22,-44,-20,16
635,8629,6,-1716,-4818,22,-44,-19,16
636,8631,3,-1707,-4820,22,-44,-19,17
637,8629,-4,-1706,-4822,22,-44,-19,16
638,8629,-1,-1698,-4823,22,-43,-19,16
639,8634,-1,-1707,-4820,22,-43,-20,17
640,8639,3,-1716,-4822,22,-43,-20,17
641,8637,1,-1710,-4820,22,-43,-20,17
642,8632,8,-1708,-4816,22,-43,-19,17
643,8635,7,-1711,-4815,22,-44,-19,17
644,8641,6,-1718,-4819,22,-44,-20,17
645,8649,1,-1726,-4817,22,-44,-19,17
646,8644,8,-1709,-4819,22,-44,-20,17
647,8636,12,-1708,-4820,22,-43,-19,17
648,8633,-5,-1718,-4817,22,-43,-19,17
649,8633,-3,-1716,-4820,22,-43,-20,17
650,8633,5,-1719,-4820,22,-43,-20,17
651,8634,2,-1727,-4821,22,-43,-20,17
652,8626,-8,-1725,-4820,22,-44,-20,17
653,8619,-4,-1707,-4822,22,-43,-20,17
654,8625,-5,-1708,-4821,22,-44,-20,17
655,8636,0,-1714,-4821,22,-44,-19,16
656,8638,8,-1717,-4820,22,-44,-19,17
657,8638,12,-1725,-4819,22,-43,-20,17
658,8642,2,-1723,-4819,22,-43,-19,17
659,8641,-3,-1719,-4819,22,-43,-19,17
660,8643,4,-1725,-4817,22,-43,-19,17
661,8643,6,-1718,-4817,22,-43,-19,17
662,8645,9,-1722,-4818,22,-43,-19,17
663,8641,12,-1721,-4820,22,-43,-19,17
664,8638,17,-1713,-4820,22,-44,-20,16
665,8633,14,-1707,-4821,22,-44,-19,17
666,8638,6,-1706,-4818,22,-43,-19,17
667,8636,13,-1702,-4821,22,-43,-19,17
668,8645,12,-1714,-4817,22,-43,-20,17
669,8645,6,-1706,-4817,22,-44,-19,17
670,8639,9,-1713,-4817,22,-44,-19,17
671,8645,9,-1726,-4819,22,-43,-19,17
672,8639,8,-1724,-4819,22,-43,-19,17
673,8639,9,-1704,-4820,22,-43,-18,17
674,8640,15,-1707,-4815,22,-43,-19,17
675,8642,16,-1706,-4816,22,-43,-19,17
676,8643,12,-1718,-4817,22,-43,-19,17
677,8634,3,-1724,-4818,22,-44,-19,17
678,8631,12,-1726,-4819,22,-43,-20,17
679,8630,9,-1731,-4822,22,-43,-20,17
680,8631,4,-1727,-4822,22,-43,-20,17
681,8626,10,-1736,-4822,22,-43,-20,17
682,8629,5,-1723,-4823,22,-42,-20,17
683,8627,8,-1727,-4822,22,-43,-20,17
684,8637,13,-1718,-4822,22,-43,-19,17
685,8637,7,-1721,-4818,22,-43,-19,17
686,8637,19,-1716,-4820,22,-43,-20,17
687,8629,22,-1711,-4821,22,-43,-19,17
688,8635,18,-1723,-4819,22,-44,-19,17
689,8635,13,-1730,-4820,22,-44,-20,17
690,8638,7,-1720,-4821,22,-44,-20,17
691,8634,7,-1732,-4819,22,-43,-19,17
692,8629,5,-1720,-4819,22,-43,-19,18
693,8635,4,-1717,-4816,22,-43,-19,17
694,8640,11,-1725,-4816,22,-43,-19,16
695,8638,7,-1720,-4817,22,-43,-20,16
696,8637,7,-1718,-4814,22,-43,-19,17
697,8635,9,-1718,-4816,22,-43,-19,17
698,8638,8,-1696,-4817,22,-43,-20,17
699,8651,9,-1702,-4820,22,-43,-20,17
700,8650,10,-1712,-4821,22,-44,-20,17
701,8652,6,-1717,-4819,22,-44,-19,17
702,8643,2,-1720,-4818,22,-43,-20,17
703,8646,-3,-1700,-4818,22,-43,-19,16
704,8645,9,-1706,-4814,22,-43,-19,16
705,8638,20,-1718,-4815,22,-43,-19,17
706,8634,15,-1713,-4818,22,-43,-19,17
707,8634,8,-1713,-4819,22,-43,-19,17
708,8637,9,-1710,-4817,22,-43,-19,17
709,8635,8,-1700,-4816,22,-43,-19,17
710,8634,14,-1712,-4818,22,-43,-19,17
711,8636,15,-1720,-4816,22,-43,-19,17
712,8624,7,-1724,-4817,22,-43,-19,17
713,8633,12,-1721,-4816,22,-43,-19,17
714,8639,10,-1718,-4817,22,-43,-19,17
715,8635,0,-1712,-4819,22,-44,-20,17
716,8631,5,-1718,-4816,22,-44,-19,17
717,8636,10,-1714,-4814,22,-43,-20,17
718,8639,12,-1704,-4812,22,-43,-19,17
719,8640,11,-1696,-4817,22,-43,-19,17
720,8640,3,-1715,-4818,22,-43,-19,17
721,8647,6,-1714,-4814,22,-43,-19,17
722,8638,9,-1706,-4815,22,-44,-20,17
723,8634,7,-1709,-4818,22,-44,-19,17
724,8628,3,-1723,-4818,22,-44,-19,17
725,8630,4,-1715,-4815,22,-44,-19,17
726,8641,-1,-1713,-4814,22,-43,-19,16
727,8632,0,-1721,-4812,22,-43,-19,17
728,8632,-3,-1711,-4813,22,-44,-19,16
729,8634,-9,-1716,-4812,22,-43,-19,17
730,8633,1,-1729,-4815,22,-43,-19,17
731,8634,9,-1724,-4816,22,-43,-19,17
732,8637,4,-1720,-4816,22,-42,-19,17
733,8638,8,-1736,-4816,22,-42,-19,17
734,8645,6,-1713,-4817,22,-43,-19,16
735,8641,1,-1701,-4815,22,-43,-20,16
736,8636,10,-1697,-4811,22,-43,-19,17
737,8636,10,-1708,-4814,22,-44,-19,17
738,8633,9,-1707,-4814,22,-43,-19,17
739,8639,8,-1711,-4813,22,-43,-19,17
740,8637,0,-1732,-4814,22,-44,-19,17
741,8637,-1,-1729,-4815,22,-44,-18,17
742,8637,8,-1720,-4817,22,-43,-19,17
743,8639,5,-1716,-4816,22,-43,-19,17
744,8641,3,-1721,-4817,22,-44,-20,16
745,8644,11,-1719,-4814,22,-44,-19,16
746,8647,8,-1723,-4814,22,-44,-19,17
747,8645,3,-1720,-4816,22,-44,-19,17
748,8641,0,-1710,-4818,22,-44,-20,17
749,8635,5,-1711,-4816,22,-43,-20,17
750,8638,5,-1726,-4813,22,-43,-19,17
751,8641,6,-1716,-4814,22,-43,-19,17
752,8642,7,-1719,-4812,22,-43,-20,17
753,8639,4,-1727,-4813,22,-43,-19,17
754,8637,10,-1730,-4814,22,-43,-19,17
755,8631,12,-1724,-4817,22,-43,-19,17
756,8633,15,-1713,-4817,22,-44,-19,17
757,8632,8,-1713,-4818,22,-43,-19,17
758,8632,7,-1720,-4817,22,-43,-20,17
759,8636,7,-1724,-4820,22,-43,-19,17
760,8633,4,-1713,-4821,22,-44,-19,17
761,8635,10,-1705,-4822,22,-44,-19,17
762,8637,9,-1719,-4819,22,-43,-19,17
763,8642,15,-1714,-4818,22,-43,-19,16
764,8645,10,-1711,-4818,22,-43,-19,16
765,8646,12,-1724,-4817,22,-43,-19,16
766,8647,11,-1720,-4814,22,-43,-19,16
767,8644,6,-1719,-4816,22,-43,-19,17
768,8641,-2,-1730,-4818,22,-43,-19,17
769,8643,-8,-1737,-4815,22,-43,-19,17
770,8634,3,-1724,-4816,22,-43,-19,17
771,8638,4,-1717,-4816,22,-42,-19,17
772,8633,0,-1712,-4813,22,-43,-19,17
773,8633,5,-1712,-4815,22,-43,-19,17
774,8638,-5,-1703,-4814,22,-43,-20,17
775,8644,-5,-1707,-4816,22,-43,-19,17
776,8634,5,-1706,-4819,22,-43,-19,17
777,8638,4,-1705,-4817,22,-44,-19,17
778,8642,13,-1700,-4820,22,-43,-19,17
779,8640,9,-1702,-4820,22,-44,-19,17
780,8643,6,-1715,-4821,22,-43,-20,17
781,8646,11,-1706,-4817,22,-43,-19,17
782,8651,16,-1718,-4819,22,-43,-19,17
783,8646,13,-1720,-4821,22,-43,-19,17
784,8641,7,-1717,-4821,22,-43,-20,17
785,8646,3,-1728,-4820,22,-43,-20,17
786,8636,3,-1716,-4817,22,-43,-19,16
787,8632,6,-1715,-4819,22,-43,-19,17
788,8621,0,-1704,-4816,22,-44,-19,17
789,8630,1,-1698,-4817,22,-43,-19,17
790,8631,4,-1701,-4817,22,-43,-20,17
791,8636,1,-1709,-4817,22,-43,-20,17
792,8628,5,-1693,-4816,22,-43,-20,17
793,8643,4,-1705,-4818,22,-43,-20,17
794,8643,6,-1703,-4816,22,-43,-20,17
795,8641,8,-1713,-4815,22,-43,-20,17
796,8639,4,-1702,-4816,22,-43,-19,17
797,8640,2,-1724,-4817,22,-43,-19,17
798,8633,-3,-1711,-4819,22,-43,-19,17
799,8633,-7,-1699,-4816,22,-44,-19,17
800,8635,2,-1700,-4816,22,-43,-19,16
801,8629,-4,-1701,-4816,22,-43,-19,16
802,8632,11,-1711,-4817,22,-44,-19,17
803,8630,4,-1715,-4815,22,-43,-19,18
804,8627,-5,-1714,-4814,22,-44,-19,17
805,8634,-9,-1720,-4817,22,-43,-19,17
806,8635,2,-1718,-4814,22,-43,-19,17
807,8641,-1,-1728,-4811,22,-43,-20,17
808,8639,-2,-1712,-4812,22,-43,-19,17
809,8639,0,-1711,-4816,22,-44,-20,17
810,8642,1,-1709,-4816,22,-43,-19,17
811,8636,-8,-1718,-4814,22,-44,-19,17
812,8648,-4,-1717,-4813,22,-43,-19,17
813,8639,-1,-1722,-4814,22,-44,-20,17
814,8643,4,-1717,-4812,22,-44,-19,17
815,8640,10,-1723,-4812,22,-43,-19,17
816,8637,5,-1721,-4813,22,-43,-19,17
817,8635,10,-1717,-4818,22,-43,-20,17
818,8628,11,-1714,-4820,22,-43,-19,17
819,8635,10,-1718,-4819,22,-44,-19,17
820,8632,11,-1727,-4814,22,-44,-20,17
821,8636,12,-1717,-4814,22,-43,-20,17
822,8631,5,-1720,-4816,22,-43,-19,16
823,8630,8,-1711,-4816,22,-43,-19,16
824,8630,10,-1704,-4818,22,-43,-20,16
825,8631,10,-1710,-4815,22,-43,-20,17
826,8634,11,-1695,-4812,22,-43,-20,17
827,8634,17,-1701,-4811,22,-43,-20,17
828,8638,11,-1710,-4809,22,-43,-20,17
829,8634,10,-1702,-4809,22,-43,-20,17
830,8638,-1,-1712,-4814,22,-43,-20,17
831,8641,-11,-1701,-4816,22,-43,-20,17
832,8647,-14,-1705,-4816,22,-43,-20,17
833,8635,-9,-1706,-4818,22,-44,-19,17
834,8634,-7,-1715,-4821,22,-43,-20,17
835,8632,6,-1706,-4813,22,-43,-20,17
836,8626,16,-1701,-4812,22,-42,-20,17
837,8642,11,-1696,-4812,22,-43,-20,17
838,8639,6,-1710,-4812,22,-43,-19,17
839,8640,8,-1708,-4813,22,-43,-19,17
840,8640,6,-1709,-4814,22,-44,-19,17
841,8646,-4,-1705,-4813,22,-44,-20,17
842,8646,4,-1711,-4812,22,-44,-19,17
843,8641,5,-1706,-4817,22,-44,-20,17
844,8641,5,-1718,-4816,22,-43,-20,17
845,8637,0,-1719,-4817,22,-43,-20,17
846,8641,-2,-1715,-4818,22,-43,-20,16
847,8641,17,-1712,-4816,22,-43,-20,17
848,8638,12,-1703,-4816,22,-43,-20,17
849,8627,0,-1711,-4814,22,-44,-19,16
850,8625,-11,-1708,-4812,22,-44,-20,17
851,8635,-12,-1709,-4814,22,-44,-20,17
852,8636,0,-1716,-4811,22,-43,-19,17
853,8642,7,-1715,-4814,22,-43,-19,16
854,8638,14,-1716,-4814,22,-43,-19,16
855,8637,1,-1720,-4813,22,-44,-19,16
856,8645,-2,-1709,-4812,22,-44,-20,16
857,8648,8,-1709,-4814,22,-43,-19,17
858,8640,15,-1704,-4812,22,-44,-20,17
859,8640,16,-1706,-4813,22,-43,-20,17
860,8647,9,-1705,-4812,22,-43,-20,17
861,8648,5,-1709,-4814,22,-43,-20,17
862,8636,9,-1714,-4808,22,-43,-20,17
863,8639,5,-1709,-4812,22,-43,-20,17
864,8633,12,-1707,-4811,22,-43,-20,17
865,8641,14,-1707,-4813,22,-43,-20,17
866,8629,9,-1715,-4813,22,-43,-19,17
867,8632,3,-1719,-4811,22,-44,-19,17
868,8647,7,-1722,-4813,22,-44,-19,17
869,8647,11,-1724,-4811,22,-43,-20,17
870,8643,1,-1718,-4812,22,-43,-20,17
871,8647,12,-1713,-4812,22,-43,-19,17
872,8640,3,-1719,-4807,22,-43,-19,16
873,8639,-2,-1711,-4812,22,-43,-19,17
874,8630,6,-1716,-4813,22,-43,-19,16
875,8633,1,-1721,-4814,22,-43,-19,16
876,8636,5,-1715,-4816,22,-44,-19,17
877,8639,2,-1721,-4815,22,-44,-20,17
878,8635,8,-1723,-4819,22,-43,-19,17
879,8640,8,-1712,-4812,22,-43,-19,16
880,8634,11,-1722,-4813,22,-43,-19,17
881,8640,10,-1718,-4812,22,-43,-18,17
882,8641,16,-1723,-4813,22,-43,-19,17
883,8642,7,-1712,-4811,22,-43,-19,16
884,8632,0,-1721,-4815,22,-43,-19,16
885,8635,-5,-1728,-4811,22,-43,-19,17
886,8639,-7,-1714,-4814,22,-43,-19,17
887,8625,-5,-1715,-4818,22,-43,-19,17
888,8626,-3,-1721,-4819,22,-43,-19,17
889,8633,0,-1715,-4817,22,-44,-20,17
890,8635,-3,-1723,-4818,22,-44,-19,17
891,8627,5,-1725,-4816,22,-43,-19,17
892,8641,3,-1725,-4816,22,-43,-19,16
893,8637,11,-1730,-4812,22,-43,-19,16
894,8636,5,-1724,-4816,22,-43,-19,16
895,8634,6,-1718,-4813,22,-43,-19,17
896,8639,1,-1716,-4812,22,-43,-19,17
897,8639,3,-1712,-4814,22,-43,-19,17
898,8639,1,-1723,-4818,22,-43,-19,16
899,8649,-3,-1719,-4817,22,-44,-20,16
900,8649,3,-1716,-4819,22,-43,-20,16
901,8641,0,-1724,-4817,22,-43,-20,16
902,8645,-4,-1715,-4813,22,-44,-20,17
903,8647,-4,-1704,-4814,22,-44,-19,17
904,8638,1,-1735,-4812,22,-43,-19,16
905,8640,-3,-1726,-4815,22,-43,-19,17
906,8630,9,-1723,-4812,22,-43,-19,17
907,8621,3,-1706,-4813,22,-43,-19,16
908,8623,9,-1706,-4814,22,-43,-19,16
909,8623,10,-1689,-4811,22,-43,-19,17
910,8626,12,-1694,-4810,22,-44,-20,17
911,8629,12,-1711,-4813,22,-44,-20,17
912,8630,3,-1713,-4810,22,-44,-19,17
913,8641,1,-1706,-4810,22,-44,-20,17
914,8645,0,-1711,-4812,22,-44,-19,18
915,8645,3,-1701,-4811,22,-43,-19,17
916,8639,2,-1711,-4810,22,-43,-20,17
917,8633,3,-1704,-4811,22,-43,-20,17
918,8642,7,-1711,-4813,22,-43,-19,17
919,8636,11,-1717,-4813,22,-43,-19,17
920,8639,8,-1719,-4814,22,-43,-19,17
921,8642,11,-1715,-4811,22,-43,-19,17
922,8639,10,-1706,-4812,22,-43,-19,17
923,8638,12,-1704,-4809,22,-43,-20,16
924,8645,11,-1725,-4813,22,-43,-19,16
925,8643,3,-1722,-4811,22,-43,-19,17
926,8633,7,-1730,-4811,22,-43,-19,17
927,8635,9,-1716,-4814,22,-43,-20,17
928,8644,3,-1711,-4815,22,-43,-20,17
929,8643,5,-1719,-4814,22,-43,-19,17
930,8644,-2,-1718,-4813,22,-43,-20,17
931,8645,-4,-1715,-4812,22,-43,-20,17
932,8636,-9,-1717,-4813,22,-43,-20,17
933,8634,0,-1708,-4813,22,-43,-19,17
934,8637,-3,-1703,-4816,22,-43,-19,17
935,8634,-3,-1722,-4813,22,-42,-19,17
936,8643,-2,-1740,-4816,22,-43,-19,17
937,8646,8,-1735,-4815,22,-43,-19,17
938,8641,11,-1724,-4813,22,-43,-19,16
939,8639,18,-1728,-4815,22,-43,-19,16
940,8640,16,-1729,-4815,22,-43,-19,17
941,8636,9,-1718,-4815,22,-43,-18,17
942,8636,4,-1707,-4815,22,-44,-19,17
943,8631,1,-1708,-4814,22,-44,-19,17
944,8624,-3,-1702,-4815,22,-44,-20,17
945,8621,-5,-1707,-4816,22,-44,-19,17
946,8635,-4,-1700,-4815,22,-44,-19,16
947,8631,2,-1712,-4815,22,-44,-19,17
948,8633,4,-1715,-4815,22,-43,-20,17
949,8631,12,-1727,-4815,22,-44,-20,17
950,8632,9,-1720,-4813,22,-44,-20,17
951,8642,1,-1720,-4813,22,-44,-20,17
952,8641,0,-1727,-4816,22,-43,-19,17
953,8642,3,-1717,-4816,22,-43,-20,17
954,8635,4,-1724,-4815,22,-43,-19,17
955,8636,9,-1711,-4816,22,-43,-19,17
956,8634,18,-1692,-4814,22,-43,-20,17
957,8631,13,-1686,-4816,22,-43,-20,17
958,8635,10,-1698,-4814,22,-43,-20,17
959,8638,8,-1710,-4818,22,-43,-20,17
960,8635,1,-1708,-4818,22,-43,-20,17
961,8633,8,-1708,-4814,22,-43,-19,18
962,8635,16,-1706,-4812,22,-43,-19,18
963,8634,12,-1709,-4814,22,-43,-19,18
964,8633,2,-1702,-4813,22,-43,-19,17
965,8639,-3,-1700,-4812,22,-43,-19,17
966,8642,5,-1692,-4815,22,-43,-19,17
967,8639,1,-1686,-4815,22,-44,-20,17
968,8643,-3,-1690,-4810,22,-43,-19,16
969,8641,-1,-1693,-4812,22,-43,-19,17
970,8637,12,-1702,-4812,22,-43,-20,17
971,8630,17,-1710,-4812,22,-43,-20,17
972,8630,12,-1705,-4810,22,-43,-20,17
973,8638,8,-1722,-4811,22,-43,-20,17
974,8636,11,-1706,-4812,22,-43,-20,17
975,8637,10,-1697,-4812,22,-43,-19,16
976,8640,8,-1704,-4811,22,-43,-19,16
977,8644,10,-1711,-4812,22,-42,-19,16
978,8641,5,-1715,-4810,22,-42,-19,16
979,8641,8,-1713,-4809,22,-42,-19,16
980,8633,20,-1711,-4812,22,-43,-19,17
981,8639,14,-1721,-4813,22,-43,-19,17
982,8638,12,-1722,-4814,22,-43,-19,17
983,8635,11,-1726,-4813,22,-43,-19,17
984,8637,5,-1724,-4809,22,-43,-19,17
985,8634,1,-1728,-4811,22,-43,-19,17
986,8638,18,-1735,-4811,22,-44,-19,17
987,8637,10,-1740,-4808,22,-44,-20,17
988,8646,5,-1725,-4809,22,-43,-19,17
989,8644,14,-1716,-4811,22,-43,-19,17
990,8642,9,-1712,-4811,22,-44,-19,17
991,8644,12,-1712,-4811,22,-44,-19,17
992,8636,13,-1722,-4808,22,-44,-19,17
993,8638,9,-1719,-4807,22,-44,-20,17
994,8638,10,-1729,-4805,22,-43,-20,17
995,8644,2,-1725,-4810,22,-43,-20,17
996,8644,-7,-1731,-4808,22,-43,-20,17
997,8643,-4,-1736,-4808,22,-43,-20,17
998,8636,3,-1714,-4806,22,-43,-19,17
