,acc_X,acc_Y,acc_Z,temp,tempC,gyr_X,gyr_Y,gyr_Z
0,2159,1,-429,-4684,23,-172,-75,69
1,2159,0,-429,-4685,23,-173,-76,68
2,2160,2,-429,-4683,23,-174,-76,68
3,2159,1,-429,-4683,23,-174,-76,69
4,2160,1,-426,-4682,23,-174,-75,70
5,2159,-1,-426,-4683,23,-173,-75,69
6,2159,0,-430,-4683,23,-173,-75,70
7,2159,0,-431,-4681,23,-174,-75,68
8,2157,0,-432,-4681,23,-175,-76,69
9,2158,1,-431,-4682,23,-174,-75,69
10,2158,1,-431,-4681,23,-175,-75,68
11,2158,0,-430,-4681,23,-174,-76,69
12,2157,0,-429,-4681,23,-175,-75,69
13,2157,-1,-428,-4682,23,-175,-76,69
14,2159,0,-429,-4682,23,-175,-74,70
15,2158,1,-429,-4682,23,-174,-74,70
16,2158,1,-429,-4682,23,-174,-74,69
17,2158,0,-429,-4681,23,-173,-74,69
18,2158,1,-428,-4683,23,-173,-74,69
19,2159,3,-426,-4683,23,-173,-74,68
20,2159,2,-426,-4684,23,-173,-73,67
21,2159,1,-426,-4685,23,-173,-74,68
22,2159,0,-427,-4686,23,-174,-75,68
23,2159,-1,-426,-4687,23,-174,-74,69
24,2160,0,-426,-4686,23,-174,-75,69
25,2160,0,-426,-4686,23,-173,-76,68
26,2160,1,-426,-4686,23,-173,-77,68
27,2160,1,-425,-4686,23,-173,-77,69
28,2160,1,-427,-4684,23,-175,-78,69
29,2160,1,-428,-4684,23,-173,-78,69
30,2160,1,-428,-4683,23,-172,-78,69
31,2160,2,-428,-4683,23,-173,-78,69
32,2160,2,-430,-4684,23,-173,-77,69
33,2159,1,-429,-4684,23,-174,-77,69
34,2158,0,-429,-4683,23,-174,-76,69
35,2158,2,-429,-4681,23,-173,-76,69
36,2158,1,-428,-4681,23,-173,-75,69
37,2159,1,-428,-4683,23,-173,-75,68
38,2158,1,-427,-4682,23,-173,-75,69
39,2157,1,-427,-4684,23,-174,-76,69
40,2157,0,-427,-4685,23,-174,-75,68
41,2157,0,-428,-4685,23,-173,-75,69
42,2157,1,-428,-4685,23,-173,-75,68
43,2157,0,-428,-4686,23,-174,-74,68
44,2157,0,-429,-4686,23,-174,-75,68
45,2156,0,-427,-4687,23,-173,-75,68
46,2156,1,-428,-4687,23,-174,-76,68
47,2158,0,-426,-4687,23,-174,-76,68
48,2159,1,-427,-4688,23,-174,-77,68
49,2159,1,-426,-4689,23,-175,-76,69
50,2159,0,-428,-4690,23,-174,-75,69
51,2159,1,-427,-4690,23,-174,-75,70
52,2159,2,-428,-4690,23,-174,-75,70
53,2159,2,-428,-4688,23,-174,-74,71
54,2159,2,-429,-4688,23,-174,-74,70
55,2159,2,-428,-4688,23,-175,-75,70
56,2160,2,-429,-4686,23,-175,-75,70
57,2160,2,-429,-4686,23,-175,-75,71
58,2160,3,-430,-4686,23,-175,-75,70
59,2159,3,-429,-4686,23,-175,-75,70
60,2158,3,-428,-4686,23,-174,-75,69
61,2159,3,-426,-4685,23,-174,-74,70
62,2160,3,-427,-4685,23,-175,-74,69
63,2160,2,-428,-4685,23,-174,-75,70
64,2159,2,-428,-4685,23,-174,-75,70
65,2159,1,-427,-4686,23,-174,-75,69
66,2160,0,-428,-4685,23,-174,-75,69
67,2160,0,-429,-4685,23,-175,-74,69
68,2161,1,-428,-4685,23,-174,-74,70
69,2160,1,-427,-4686,23,-173,-73,70
70,2159,0,-426,-4686,23,-173,-73,71
71,2158,1,-428,-4686,23,-174,-75,69
72,2158,2,-429,-4687,23,-174,-76,69
73,2158,1,-430,-4686,23,-173,-76,71
74,2158,1,-431,-4685,23,-173,-76,71
75,2158,3,-432,-4684,23,-173,-76,70
76,2158,3,-430,-4684,23,-173,-75,71
77,2159,2,-428,-4683,23,-174,-75,72
78,2158,2,-428,-4683,23,-173,-75,72
79,2159,2,-428,-4682,23,-173,-75,72
80,2159,3,-427,-4684,23,-173,-75,71
81,2158,2,-427,-4685,23,-174,-76,71
82,2159,3,-427,-4686,23,-174,-75,71
83,2158,2,-427,-4686,23,-173,-74,70
84,2158,2,-427,-4685,23,-173,-74,70
85,2157,1,-429,-4684,23,-173,-75,70
86,2157,1,-428,-4684,23,-173,-76,69
87,2157,1,-428,-4684,23,-173,-76,69
88,2157,-1,-428,-4685,23,-173,-78,69
89,2157,0,-428,-4684,23,-174,-77,69
90,2158,0,-428,-4684,23,-174,-77,67
91,2159,0,-429,-4684,23,-175,-77,68
92,2158,0,-428,-4682,23,-174,-76,68
93,2158,1,-429,-4684,23,-174,-76,68
94,2157,2,-429,-4683,23,-174,-76,69
95,2158,3,-428,-4683,23,-174,-76,69
96,2158,3,-429,-4683,23,-174,-76,70
97,2158,3,-429,-4683,23,-172,-76,68
98,2157,2,-430,-4684,23,-173,-75,69
99,2156,1,-432,-4683,23,-173,-75,69
100,2156,2,-432,-4683,23,-173,-75,70
101,2157,1,-431,-4683,23,-172,-75,70
102,2157,1,-431,-4683,23,-172,-74,70
103,2159,1,-431,-4682,23,-172,-75,70
104,2158,1,-430,-4680,23,-171,-76,70
105,2157,0,-430,-4680,23,-171,-75,69
106,2157,1,-431,-4681,23,-173,-76,68
107,2157,1,-429,-4679,23,-174,-75,68
108,2158,2,-429,-4680,23,-173,-76,69
109,2157,2,-428,-4679,23,-172,-77,69
110,2158,0,-430,-4677,23,-173,-77,70
111,2157,0,-430,-4679,23,-174,-76,71
112,2157,1,-429,-4680,23,-174,-77,70
113,2157,2,-429,-4682,23,-173,-76,70
114,2158,2,-428,-4681,23,-173,-75,70
115,2158,2,-430,-4681,23,-173,-75,70
116,2157,3,-428,-4682,23,-173,-74,69
117,2157,2,-429,-4682,23,-173,-74,70
118,2158,1,-430,-4683,23,-174,-74,70
119,2159,1,-429,-4683,23,-173,-75,70
120,2157,-1,-429,-4681,23,-171,-75,69
121,2157,0,-427,-4680,23,-172,-75,69
122,2158,0,-428,-4679,23,-172,-74,68
123,2159,-1,-429,-4679,23,-173,-74,68
124,2159,-1,-429,-4679,23,-175,-74,68
125,2158,-1,-430,-4679,23,-174,-74,68
126,2159,0,-429,-4679,23,-173,-74,68
127,2159,0,-430,-4681,23,-174,-74,69
128,2158,1,-428,-4681,23,-174,-76,68
129,2158,1,-427,-4682,23,-174,-76,68
130,2158,2,-428,-4680,23,-174,-76,69
131,2159,3,-427,-4680,23,-174,-78,70
132,2158,2,-429,-4681,23,-174,-76,70
133,2160,1,-428,-4681,23,-173,-76,71
134,2160,1,-428,-4680,23,-172,-75,70
135,2160,2,-429,-4680,23,-173,-76,69
136,2158,2,-431,-4680,23,-175,-76,69
137,2159,1,-429,-4682,23,-175,-76,70
138,2159,2,-429,-4681,23,-175,-76,70
139,2160,3,-428,-4681,23,-175,-75,70
140,2160,3,-429,-4680,23,-174,-74,70
141,2160,4,-427,-4681,23,-173,-75,70
142,2160,3,-427,-4681,23,-174,-75,70
143,2160,3,-428,-4680,23,-175,-75,70
144,2160,1,-427,-4680,23,-174,-76,70
145,2160,1,-427,-4683,23,-174,-74,70
146,2160,1,-427,-4683,23,-172,-75,70
147,2160,1,-427,-4682,23,-172,-74,70
148,2159,1,-427,-4683,23,-172,-75,69
149,2160,1,-429,-4685,23,-173,-76,69
150,2160,3,-430,-4686,23,-173,-76,69
151,2161,4,-429,-4686,23,-173,-76,69
152,2161,3,-430,-4686,23,-173,-75,69
153,2161,1,-429,-4685,23,-173,-75,70
154,2160,1,-429,-4683,23,-173,-76,71
155,2160,1,-430,-4683,23,-174,-76,71
156,2161,1,-431,-4682,23,-173,-76,70
157,2161,1,-430,-4682,23,-172,-76,70
158,2161,2,-430,-4682,23,-172,-77,70
159,2160,2,-431,-4682,23,-172,-77,70
160,2159,3,-428,-4682,23,-172,-78,69
161,2159,3,-429,-4682,23,-173,-78,68
162,2159,2,-429,-4683,23,-173,-77,68
163,2158,1,-429,-4683,23,-174,-78,68
164,2159,0,-428,-4683,23,-174,-77,68
165,2159,-1,-428,-4682,23,-174,-77,68
166,2159,1,-427,-4683,23,-172,-76,67
167,2159,2,-428,-4683,23,-173,-75,67
168,2160,1,-426,-4683,23,-173,-76,68
169,2160,1,-427,-4683,23,-173,-76,68
170,2159,1,-427,-4683,23,-173,-76,69
171,2159,2,-427,-4682,23,-173,-76,70
172,2160,2,-427,-4683,23,-173,-77,70
173,2161,1,-427,-4683,23,-173,-76,71
174,2161,2,-427,-4683,23,-173,-76,70
175,2160,2,-427,-4683,23,-173,-76,70
176,2158,1,-426,-4682,23,-173,-76,70
177,2159,0,-426,-4683,23,-172,-76,71
178,2157,0,-427,-4683,23,-173,-76,71
179,2158,1,-428,-4682,23,-173,-75,70
180,2158,2,-427,-4681,23,-172,-76,70
181,2157,1,-427,-4681,23,-172,-76,69
182,2157,0,-429,-4681,23,-173,-75,69
183,2156,2,-431,-4681,23,-173,-74,69
184,2157,2,-430,-4680,23,-172,-75,70
185,2157,3,-429,-4680,23,-173,-75,70
186,2157,2,-430,-4679,23,-173,-75,70
187,2158,3,-429,-4679,23,-172,-75,69
188,2159,3,-430,-4680,23,-172,-75,70
189,2158,3,-429,-4680,23,-172,-75,70
190,2157,4,-429,-4680,23,-173,-76,70
191,2158,1,-427,-4678,23,-173,-76,70
192,2160,1,-427,-4678,23,-173,-76,70
193,2160,0,-428,-4678,23,-174,-75,69
194,2160,1,-428,-4679,23,-174,-75,70
195,2160,0,-426,-4679,23,-174,-76,69
196,2160,1,-426,-4678,23,-173,-75,69
197,2161,1,-425,-4678,23,-173,-75,69
198,2161,1,-426,-4679,23,-173,-75,70
199,2162,1,-427,-4680,23,-173,-74,70
200,2161,2,-427,-4680,23,-173,-74,70
201,2160,2,-426,-4681,23,-174,-75,68
202,2159,1,-429,-4683,23,-175,-76,68
203,2160,2,-429,-4682,23,-174,-75,69
204,2160,2,-429,-4682,23,-174,-75,69
205,2161,2,-429,-4681,23,-175,-75,70
206,2161,1,-431,-4680,23,-174,-75,70
207,2161,1,-429,-4680,23,-173,-76,70
208,2161,0,-430,-4682,23,-172,-76,71
209,2161,1,-429,-4681,23,-172,-75,71
210,2160,1,-429,-4680,23,-172,-75,71
211,2159,2,-430,-4679,23,-172,-75,70
212,2160,3,-431,-4680,23,-172,-75,69
213,2159,3,-432,-4680,23,-173,-75,70
214,2160,3,-430,-4680,23,-173,-75,69
215,2160,2,-429,-4680,23,-173,-76,70
216,2160,2,-431,-4681,23,-174,-74,69
217,2159,2,-430,-4681,23,-174,-74,70
218,2159,2,-429,-4681,23,-173,-74,70
219,2160,2,-429,-4682,23,-174,-73,69
220,2160,2,-428,-4682,23,-174,-74,71
221,2160,1,-428,-4681,23,-175,-74,71
222,2160,1,-428,-4681,23,-175,-73,70
223,2159,1,-428,-4682,23,-174,-74,70
224,2158,1,-429,-4682,23,-174,-74,71
225,2158,2,-429,-4682,23,-174,-75,70
226,2158,1,-429,-4683,23,-174,-76,69
227,2158,1,-429,-4682,23,-175,-76,69
228,2159,2,-429,-4683,23,-175,-75,68
229,2158,2,-429,-4683,23,-175,-75,68
230,2158,3,-429,-4685,23,-174,-76,69
231,2158,3,-428,-4685,23,-174,-77,69
232,2158,1,-427,-4687,23,-174,-77,70
233,2158,1,-428,-4684,23,-173,-77,69
234,2155,1,-428,-4684,23,-173,-77,69
235,2156,1,-427,-4682,23,-174,-77,70
236,2157,0,-427,-4682,23,-173,-76,69
237,2156,0,-428,-4681,23,-173,-77,69
238,2155,1,-427,-4680,23,-173,-76,69
239,2157,1,-427,-4682,23,-173,-76,70
240,2158,1,-428,-4681,23,-174,-75,70
241,2157,3,-430,-4682,23,-174,-75,70
242,2157,2,-430,-4683,23,-175,-75,69
243,2157,2,-427,-4681,23,-174,-76,69
244,2157,3,-427,-4681,23,-176,-76,70
245,2158,3,-427,-4681,23,-175,-76,69
246,2159,3,-428,-4681,23,-174,-76,69
247,2159,1,-427,-4682,23,-175,-76,70
248,2160,1,-425,-4683,23,-175,-75,70
249,2159,2,-427,-4684,23,-174,-74,70
250,2159,1,-427,-4684,23,-174,-75,70
251,2158,1,-428,-4684,23,-175,-75,70
252,2158,1,-428,-4683,23,-174,-76,70
253,2158,0,-427,-4683,23,-173,-77,70
254,2159,0,-426,-4684,23,-174,-77,70
255,2158,0,-427,-4684,23,-175,-76,69
256,2159,1,-427,-4683,23,-175,-77,70
257,2158,0,-426,-4683,23,-175,-77,70
258,2157,1,-425,-4681,23,-174,-77,70
259,2158,0,-428,-4682,23,-174,-76,69
260,2158,1,-429,-4681,23,-173,-76,69
261,2159,0,-427,-4679,23,-174,-77,70
262,2159,0,-428,-4679,23,-173,-76,71
263,2159,1,-429,-4681,23,-174,-75,70
264,2159,2,-429,-4682,23,-173,-75,68
265,2160,2,-428,-4682,23,-173,-76,68
266,2160,1,-429,-4683,23,-174,-76,68
267,2160,1,-429,-4683,23,-173,-77,68
268,2160,2,-430,-4683,23,-173,-76,68
269,2159,2,-429,-4681,23,-173,-76,68
270,2160,1,-428,-4679,23,-173,-75,68
271,2159,1,-428,-4681,23,-172,-74,67
272,2159,2,-427,-4682,23,-174,-75,68
273,2159,2,-426,-4683,23,-174,-75,68
274,2159,1,-427,-4682,23,-174,-75,68
275,2158,1,-428,-4682,23,-173,-76,68
276,2159,1,-427,-4683,23,-174,-77,68
277,2159,1,-426,-4683,23,-174,-77,69
278,2158,1,-426,-4685,23,-173,-75,68
279,2159,2,-427,-4686,23,-173,-76,67
280,2159,1,-428,-4685,23,-174,-75,67
281,2160,1,-429,-4685,23,-175,-75,68
282,2160,0,-428,-4684,23,-175,-74,68
283,2159,0,-429,-4684,23,-175,-76,68
284,2159,0,-430,-4683,23,-175,-76,68
285,2159,1,-430,-4681,23,-173,-77,68
286,2160,0,-429,-4680,23,-174,-77,68
287,2160,1,-428,-4679,23,-173,-76,66
288,2161,2,-429,-4680,23,-174,-75,66
289,2160,1,-429,-4678,23,-173,-76,67
290,2159,1,-430,-4679,23,-172,-75,67
291,2160,1,-431,-4680,23,-173,-74,69
292,2159,1,-430,-4680,23,-174,-74,70
293,2159,2,-429,-4679,23,-175,-75,70
294,2160,3,-428,-4678,23,-174,-75,69
295,2160,3,-427,-4676,23,-175,-75,69
296,2159,2,-430,-4676,23,-175,-75,69
297,2159,2,-431,-4676,23,-174,-75,69
298,2159,1,-431,-4676,23,-174,-75,70
299,2161,2,-430,-4676,23,-174,-75,70
300,2160,1,-431,-4677,23,-174,-75,70
301,2162,2,-428,-4678,23,-175,-77,70
302,2162,1,-428,-4677,23,-174,-76,69
303,2161,1,-429,-4677,23,-174,-76,70
304,2161,0,-428,-4678,23,-175,-77,70
305,2161,0,-428,-4679,23,-174,-76,71
306,2161,1,-427,-4680,23,-174,-75,71
307,2161,1,-426,-4679,23,-174,-74,70
308,2162,2,-426,-4680,23,-174,-75,70
309,2160,2,-426,-4681,23,-173,-75,70
310,2160,2,-426,-4681,23,-172,-74,69
311,2161,1,-426,-4679,23,-172,-74,69
312,2160,1,-427,-4680,23,-173,-74,69
313,2159,1,-426,-4680,23,-174,-74,68
314,2159,1,-426,-4680,23,-174,-75,69
315,2158,0,-427,-4680,23,-175,-77,69
316,2157,0,-427,-4680,23,-174,-76,70
317,2158,0,-427,-4681,23,-174,-75,69
318,2159,0,-429,-4681,23,-174,-76,69
319,2158,1,-427,-4680,23,-173,-74,69
320,2158,1,-427,-4681,23,-171,-75,69
321,2157,2,-426,-4681,23,-172,-74,70
322,2157,1,-425,-4683,23,-172,-73,70
323,2158,1,-427,-4682,23,-172,-74,71
324,2158,1,-427,-4681,23,-174,-75,72
325,2159,2,-426,-4682,23,-173,-74,70
326,2159,0,-427,-4681,23,-173,-74,71
327,2160,0,-428,-4680,23,-173,-73,70
328,2159,1,-427,-4680,23,-173,-74,69
329,2159,0,-428,-4681,23,-173,-75,69
330,2158,2,-427,-4680,23,-172,-74,69
331,2160,1,-425,-4681,23,-172,-75,69
332,2160,2,-425,-4679,23,-173,-77,69
333,2159,1,-425,-4679,23,-172,-77,68
334,2159,2,-426,-4680,23,-172,-76,69
335,2160,1,-427,-4681,23,-172,-76,69
336,2162,2,-428,-4680,23,-172,-76,69
337,2162,3,-429,-4679,23,-172,-76,69
338,2161,2,-427,-4678,23,-172,-77,68
339,2161,2,-428,-4677,23,-172,-77,69
340,2159,2,-428,-4679,23,-171,-76,69
341,2159,1,-428,-4680,23,-171,-77,69
342,2159,1,-428,-4681,23,-171,-76,70
343,2159,1,-429,-4681,23,-171,-78,70
344,2160,1,-429,-4682,23,-171,-76,70
345,2159,1,-428,-4683,23,-172,-76,70
346,2160,0,-428,-4684,23,-173,-75,70
347,2161,0,-426,-4685,23,-173,-75,69
348,2160,1,-425,-4685,23,-172,-75,70
349,2159,0,-425,-4684,23,-172,-75,70
350,2159,1,-426,-4683,23,-172,-77,69
351,2158,1,-427,-4682,23,-173,-76,70
352,2159,2,-427,-4684,23,-172,-75,70
353,2159,1,-428,-4683,23,-172,-76,69
354,2160,0,-429,-4683,23,-172,-75,69
355,2160,0,-429,-4682,23,-171,-75,70
356,2159,-1,-429,-4679,23,-173,-75,70
357,2157,-1,-430,-4679,23,-173,-75,69
358,2157,1,-428,-4679,23,-174,-75,70
359,2157,1,-428,-4679,23,-174,-75,68
360,2158,1,-428,-4680,23,-174,-74,69
361,2158,1,-430,-4679,23,-174,-75,70
362,2159,2,-430,-4680,23,-173,-75,69
363,2159,1,-430,-4680,23,-173,-76,69
364,2161,2,-430,-4681,23,-173,-76,70
365,2160,1,-430,-4682,23,-173,-77,70
366,2159,2,-430,-4683,23,-174,-77,70
367,2159,2,-429,-4683,23,-174,-77,69
368,2159,2,-427,-4680,23,-174,-75,68
369,2160,3,-428,-4680,23,-174,-75,69
370,2160,2,-427,-4680,23,-174,-75,69
371,2159,3,-429,-4678,23,-173,-75,70
372,2160,2,-429,-4677,23,-174,-75,71
373,2159,1,-427,-4678,23,-173,-74,71
374,2160,0,-427,-4678,23,-173,-73,70
375,2159,0,-427,-4677,23,-174,-73,71
376,2160,0,-427,-4678,23,-174,-74,70
377,2159,2,-427,-4678,23,-174,-73,68
378,2159,2,-427,-4679,23,-174,-75,68
379,2160,2,-426,-4679,23,-174,-76,68
380,2160,2,-428,-4678,23,-174,-75,69
381,2159,3,-428,-4679,23,-173,-75,70
382,2158,3,-426,-4679,23,-173,-75,71
383,2158,2,-426,-4681,23,-173,-74,71
384,2158,2,-426,-4681,23,-173,-75,70
385,2158,2,-427,-4681,23,-174,-75,70
386,2158,2,-427,-4680,23,-173,-76,70
387,2158,1,-428,-4680,23,-173,-76,69
388,2158,1,-429,-4679,23,-173,-76,69
389,2159,1,-429,-4680,23,-173,-74,68
390,2158,1,-430,-4681,23,-174,-73,69
391,2157,2,-429,-4681,23,-173,-74,70
392,2158,1,-430,-4683,23,-172,-74,70
393,2158,1,-431,-4682,23,-172,-75,70
394,2158,1,-432,-4683,23,-173,-74,70
395,2158,1,-429,-4682,23,-173,-77,70
396,2159,1,-430,-4682,23,-173,-77,69
397,2158,0,-431,-4682,23,-172,-76,71
398,2158,0,-431,-4684,23,-173,-75,70
399,2159,0,-430,-4685,23,-172,-75,70
400,2159,0,-430,-4683,23,-173,-75,70
401,2159,0,-430,-4683,23,-174,-75,70
402,2159,1,-429,-4684,23,-174,-75,70
403,2159,1,-429,-4683,23,-174,-76,69
404,2159,1,-430,-4681,23,-174,-75,69
405,2160,2,-432,-4680,23,-174,-75,69
406,2159,3,-431,-4679,23,-174,-74,69
407,2159,2,-430,-4678,23,-174,-75,68
408,2158,1,-431,-4680,23,-174,-75,69
409,2159,1,-429,-4681,23,-174,-75,69
410,2159,1,-428,-4681,23,-174,-75,69
411,2159,1,-428,-4683,23,-173,-75,70
412,2160,2,-428,-4681,23,-173,-76,70
413,2160,1,-429,-4681,23,-173,-75,72
414,2159,1,-430,-4679,23,-172,-75,71
415,2160,1,-429,-4680,23,-174,-75,72
416,2160,0,-429,-4681,23,-172,-75,71
417,2161,0,-430,-4679,23,-172,-75,70
418,2161,0,-427,-4680,23,-173,-76,70
419,2162,0,-426,-4679,23,-174,-76,70
420,2160,0,-428,-4679,23,-175,-75,70
421,2159,1,-429,-4679,23,-173,-75,71
422,2159,1,-430,-4678,23,-173,-76,71
423,2159,2,-429,-4680,23,-174,-75,70
424,2158,2,-428,-4680,23,-174,-75,70
425,2158,3,-427,-4680,23,-173,-76,70
426,2158,2,-429,-4679,23,-174,-76,70
427,2159,1,-429,-4680,23,-175,-75,70
428,2160,2,-430,-4681,23,-175,-75,69
429,2160,1,-431,-4682,23,-175,-75,70
430,2161,1,-431,-4681,23,-175,-76,69
431,2161,0,-432,-4679,23,-174,-75,69
432,2161,1,-430,-4680,23,-175,-75,69
433,2160,1,-430,-4682,23,-175,-75,69
434,2160,1,-430,-4682,23,-175,-74,70
435,2158,2,-430,-4680,23,-174,-76,70
436,2158,2,-430,-4681,23,-174,-76,70
437,2158,1,-431,-4680,23,-173,-77,70
438,2159,0,-431,-4681,23,-173,-76,70
439,2158,-1,-432,-4681,23,-173,-76,70
440,2158,-1,-432,-4680,23,-172,-75,70
441,2157,-2,-432,-4678,23,-173,-76,69
442,2158,-1,-433,-4678,23,-173,-75,69
443,2158,0,-433,-4677,23,-172,-77,71
444,2158,0,-432,-4678,23,-172,-78,71
445,2157,0,-432,-4679,23,-173,-76,71
446,2158,1,-431,-4679,23,-172,-75,71
447,2158,2,-430,-4677,23,-173,-75,71
448,2158,1,-430,-4677,23,-174,-74,70
449,2158,1,-430,-4679,23,-175,-75,70
450,2158,0,-428,-4678,23,-174,-76,70
451,2158,0,-427,-4677,23,-174,-77,69
452,2159,0,-427,-4676,23,-174,-77,68
453,2159,1,-429,-4677,23,-173,-76,68
454,2158,1,-429,-4676,23,-173,-75,69
455,2158,1,-429,-4676,23,-174,-75,69
456,2158,0,-428,-4677,23,-174,-76,69
457,2159,-1,-428,-4680,23,-174,-76,70
458,2159,0,-429,-4680,23,-174,-76,70
459,2159,-1,-429,-4680,23,-173,-76,69
460,2160,0,-430,-4680,23,-173,-75,68
461,2159,1,-430,-4680,23,-174,-75,69
462,2160,1,-431,-4680,23,-174,-76,69
463,2159,1,-430,-4682,23,-173,-76,69
464,2158,2,-428,-4682,23,-175,-76,68
465,2158,1,-430,-4682,23,-174,-77,68
466,2159,0,-427,-4683,23,-173,-76,67
467,2158,0,-427,-4685,23,-173,-76,68
468,2158,0,-426,-4682,23,-173,-76,68
469,2158,1,-426,-4682,23,-173,-76,68
470,2158,1,-428,-4683,23,-172,-75,67
471,2159,1,-429,-4683,23,-172,-76,68
472,2160,1,-429,-4683,23,-173,-76,69
473,2159,1,-428,-4681,23,-173,-75,69
474,2158,0,-427,-4681,23,-172,-75,69
475,2158,0,-428,-4680,23,-172,-75,69
476,2157,0,-428,-4680,23,-173,-76,69
477,2158,0,-427,-4680,23,-173,-75,68
478,2159,-1,-428,-4681,23,-174,-75,69
479,2158,0,-428,-4682,23,-174,-75,69
480,2157,0,-427,-4682,23,-173,-76,68
481,2158,0,-427,-4682,23,-173,-76,68
482,2158,1,-427,-4680,23,-172,-74,67
483,2157,2,-428,-4679,23,-174,-75,68
484,2159,1,-428,-4679,23,-174,-75,69
485,2159,1,-429,-4679,23,-174,-75,69
486,2158,0,-428,-4678,23,-174,-75,70
487,2158,1,-428,-4677,23,-173,-75,70
488,2158,1,-428,-4677,23,-173,-75,69
489,2157,0,-429,-4676,23,-173,-76,70
490,2156,0,-428,-4675,23,-173,-76,70
491,2157,-1,-427,-4678,23,-173,-75,71
492,2158,0,-429,-4679,23,-173,-76,71
493,2159,0,-426,-4679,23,-174,-75,71
494,2160,0,-428,-4680,23,-174,-75,71
495,2160,0,-428,-4678,23,-173,-76,70
496,2161,0,-426,-4677,23,-174,-75,71
497,2161,1,-427,-4677,23,-174,-77,72
498,2160,0,-429,-4677,23,-174,-77,70
499,2159,0,-428,-4677,23,-174,-76,70
500,2159,0,-428,-4677,23,-173,-76,70
501,2159,2,-428,-4678,23,-173,-76,70
502,2159,2,-429,-4678,23,-172,-75,70
503,2159,2,-429,-4680,23,-172,-76,70
504,2159,3,-429,-4680,23,-172,-76,69
505,2159,3,-431,-4680,23,-172,-77,69
506,2158,2,-431,-4682,23,-172,-76,69
507,2159,2,-431,-4682,23,-172,-76,70
508,2159,3,-430,-4682,23,-172,-75,70
509,2160,1,-430,-4683,23,-171,-75,70
510,2161,0,-430,-4682,23,-172,-74,70
511,2159,0,-430,-4682,23,-171,-75,70
512,2159,0,-428,-4682,23,-171,-75,69
513,2160,2,-429,-4680,23,-171,-74,70
514,2158,2,-429,-4680,23,-173,-75,71
515,2158,2,-430,-4680,23,-173,-75,72
516,2157,0,-429,-4680,23,-173,-75,72
517,2157,1,-430,-4680,23,-173,-75,71
518,2157,0,-431,-4681,23,-173,-76,72
519,2158,0,-430,-4680,23,-173,-75,71
520,2157,0,-430,-4679,23,-173,-75,70
521,2157,1,-429,-4678,23,-173,-75,70
522,2158,2,-428,-4678,23,-173,-76,69
523,2158,1,-428,-4678,23,-173,-76,70
524,2158,2,-427,-4679,23,-173,-75,70
525,2157,2,-429,-4680,23,-174,-75,70
526,2158,2,-428,-4679,23,-174,-73,70
527,2158,1,-429,-4680,23,-174,-74,72
528,2158,0,-428,-4679,23,-174,-74,71
529,2158,1,-428,-4678,23,-174,-73,71
530,2158,0,-429,-4679,23,-174,-74,70
531,2158,1,-428,-4680,23,-174,-74,70
532,2157,2,-428,-4680,23,-173,-74,70
533,2157,3,-427,-4681,23,-174,-75,70
534,2157,4,-429,-4680,23,-173,-74,69
535,2157,4,-432,-4679,23,-174,-75,69
536,2159,4,-431,-4680,23,-174,-75,69
537,2158,4,-430,-4680,23,-175,-75,71
538,2158,3,-429,-4679,23,-174,-75,70
539,2158,3,-429,-4679,23,-176,-75,70
540,2158,3,-428,-4680,23,-175,-76,70
541,2158,2,-428,-4679,23,-175,-75,70
542,2158,1,-428,-4679,23,-176,-75,70
543,2159,0,-430,-4678,23,-176,-76,71
544,2159,-1,-430,-4679,23,-174,-76,71
545,2159,-1,-429,-4679,23,-175,-76,71
546,2159,-1,-426,-4679,23,-174,-76,70
547,2159,0,-426,-4680,23,-176,-77,70
548,2159,1,-427,-4679,23,-174,-76,70
549,2158,1,-427,-4678,23,-174,-77,70
550,2158,2,-426,-4677,23,-174,-78,71
551,2159,2,-426,-4677,23,-173,-78,71
552,2159,3,-426,-4675,23,-172,-77,70
553,2158,1,-427,-4676,23,-173,-77,69
554,2157,1,-428,-4676,23,-174,-76,69
555,2158,1,-426,-4676,23,-174,-75,69
556,2159,2,-426,-4676,23,-175,-76,70
557,2159,2,-426,-4677,23,-174,-76,70
558,2159,3,-427,-4678,23,-174,-76,70
559,2158,3,-428,-4679,23,-173,-76,70
560,2157,2,-427,-4680,23,-173,-76,70
561,2158,2,-429,-4681,23,-174,-77,70
562,2159,1,-428,-4680,23,-174,-77,70
563,2159,1,-429,-4682,23,-173,-77,70
564,2159,1,-429,-4680,23,-174,-79,70
565,2159,-1,-430,-4680,23,-174,-78,70
566,2160,0,-429,-4680,23,-171,-78,69
567,2160,2,-429,-4679,23,-173,-77,69
568,2159,1,-428,-4678,23,-172,-77,69
569,2160,1,-428,-4677,23,-173,-75,69
570,2159,1,-428,-4678,23,-174,-77,70
571,2159,1,-428,-4678,23,-174,-77,71
572,2158,2,-428,-4676,23,-174,-77,70
573,2159,3,-427,-4677,23,-174,-77,70
574,2159,3,-425,-4678,23,-173,-77,70
575,2159,3,-427,-4677,23,-171,-77,70
576,2160,3,-427,-4677,23,-172,-76,69
577,2160,3,-427,-4676,23,-173,-77,69
578,2160,1,-427,-4677,23,-172,-76,69
579,2160,1,-429,-4678,23,-173,-76,69
580,2161,1,-427,-4679,23,-174,-76,69
581,2159,0,-426,-4680,23,-174,-75,71
582,2159,1,-427,-4678,23,-175,-76,69
583,2159,2,-427,-4680,23,-175,-75,70
584,2159,2,-426,-4680,23,-175,-74,69
585,2160,2,-427,-4680,23,-176,-75,70
586,2160,1,-429,-4681,23,-176,-75,69
587,2160,1,-429,-4681,23,-174,-74,70
588,2159,1,-429,-4681,23,-174,-74,69
589,2160,1,-430,-4681,23,-174,-74,70
590,2159,3,-432,-4683,23,-174,-73,70
591,2159,4,-432,-4682,23,-173,-75,70
592,2158,3,-431,-4683,23,-174,-74,71
593,2158,2,-431,-4681,23,-173,-75,70
594,2158,2,-430,-4681,23,-173,-74,70
595,2158,2,-429,-4679,23,-174,-75,70
596,2158,1,-428,-4678,23,-172,-76,69
597,2157,0,-430,-4677,23,-172,-76,69
598,2157,-1,-430,-4675,23,-172,-76,69
599,2157,-1,-430,-4675,23,-172,-74,69
600,2158,0,-428,-4676,23,-172,-74,69
601,2158,-1,-428,-4676,23,-174,-74,68
602,2158,0,-429,-4676,23,-173,-75,69
603,2158,1,-428,-4676,23,-172,-76,69
604,2158,0,-427,-4675,23,-173,-76,69
605,2158,0,-428,-4676,23,-172,-76,69
606,2158,0,-427,-4676,23,-173,-75,69
607,2158,0,-427,-4677,23,-174,-75,69
608,2158,0,-427,-4676,23,-174,-75,68
609,2158,1,-428,-4677,23,-174,-76,69
610,2159,1,-429,-4677,23,-174,-76,69
611,2159,2,-428,-4676,23,-174,-76,69
612,2158,2,-428,-4675,23,-173,-76,69
613,2158,2,-430,-4676,23,-174,-76,70
614,2158,1,-429,-4673,23,-173,-76,70
615,2158,2,-429,-4674,23,-172,-76,70
616,2157,1,-429,-4673,23,-172,-76,69
617,2159,0,-427,-4674,23,-172,-76,68
618,2159,1,-427,-4675,23,-172,-76,69
619,2160,1,-428,-4674,23,-173,-77,68
620,2160,2,-428,-4676,23,-172,-77,69
621,2161,2,-427,-4676,23,-173,-78,70
622,2160,1,-426,-4676,23,-174,-78,70
623,2161,1,-427,-4676,23,-173,-76,70
624,2160,1,-428,-4676,23,-172,-75,70
625,2160,1,-427,-4677,23,-174,-76,69
626,2159,3,-427,-4676,23,-174,-75,70
627,2157,3,-427,-4675,23,-175,-75,70
628,2158,4,-428,-4673,23,-174,-75,70
629,2157,3,-430,-4671,23,-174,-76,70
630,2157,2,-430,-4672,23,-174,-75,70
631,2156,2,-429,-4674,23,-175,-75,70
632,2157,2,-429,-4675,23,-174,-75,70
633,2158,1,-429,-4677,23,-173,-74,70
634,2158,1,-427,-4676,23,-173,-75,70
635,2158,0,-429,-4676,23,-174,-76,69
636,2157,1,-427,-4676,23,-173,-75,71
637,2158,0,-427,-4677,23,-173,-75,69
638,2157,1,-428,-4677,23,-172,-76,68
639,2157,0,-428,-4677,23,-173,-77,68
640,2157,1,-427,-4677,23,-173,-76,69
641,2159,1,-426,-4678,23,-173,-74,70
642,2159,1,-426,-4677,23,-173,-74,69
643,2158,2,-426,-4677,23,-173,-74,68
644,2159,1,-427,-4678,23,-174,-76,68
645,2159,1,-427,-4679,23,-174,-76,68
646,2160,2,-428,-4678,23,-174,-75,68
647,2160,2,-427,-4677,23,-174,-76,68
648,2160,3,-426,-4676,23,-174,-76,69
649,2159,2,-426,-4675,23,-174,-76,69
650,2158,3,-427,-4674,23,-173,-76,69
651,2159,2,-429,-4674,23,-174,-76,69
652,2160,3,-430,-4674,23,-173,-76,68
653,2160,3,-430,-4675,23,-173,-77,70
654,2159,2,-431,-4673,23,-173,-76,70
655,2159,2,-430,-4675,23,-173,-76,70
656,2159,3,-429,-4675,23,-173,-77,70
657,2158,2,-428,-4675,23,-173,-76,69
658,2158,2,-427,-4677,23,-172,-77,68
659,2159,1,-428,-4678,23,-173,-77,68
660,2159,0,-428,-4677,23,-173,-76,68
661,2159,0,-428,-4678,23,-175,-76,70
662,2160,0,-428,-4678,23,-174,-75,70
663,2159,1,-429,-4677,23,-175,-75,69
664,2158,2,-428,-4675,23,-175,-75,69
665,2159,3,-430,-4674,23,-174,-75,70
666,2158,3,-429,-4676,23,-174,-76,69
667,2158,3,-430,-4676,23,-174,-76,69
668,2158,2,-430,-4676,23,-173,-76,69
669,2159,3,-429,-4676,23,-174,-75,69
670,2158,3,-428,-4676,23,-173,-76,69
671,2159,3,-429,-4678,23,-173,-76,69
672,2159,2,-428,-4678,23,-174,-76,68
673,2159,1,-429,-4679,23,-174,-75,69
674,2158,2,-430,-4679,23,-174,-75,69
675,2159,2,-429,-4679,23,-174,-76,68
676,2159,2,-428,-4679,23,-173,-76,68
677,2160,1,-428,-4680,23,-174,-76,68
678,2160,0,-429,-4679,23,-174,-76,69
679,2159,0,-431,-4678,23,-174,-75,69
680,2160,1,-429,-4678,23,-173,-75,69
681,2160,1,-429,-4677,23,-173,-75,68
682,2159,1,-430,-4676,23,-173,-74,69
683,2158,0,-430,-4677,23,-174,-74,70
684,2158,-1,-429,-4676,23,-175,-75,71
685,2158,0,-428,-4675,23,-173,-75,70
686,2157,1,-427,-4673,23,-172,-75,69
687,2157,1,-428,-4674,23,-173,-74,70
688,2157,2,-428,-4675,23,-173,-75,70
689,2157,1,-429,-4675,23,-173,-73,69
690,2157,2,-429,-4677,23,-172,-73,69
691,2156,2,-430,-4678,23,-173,-73,69
692,2156,2,-431,-4676,23,-172,-75,69
693,2157,2,-430,-4676,23,-173,-76,69
694,2158,2,-430,-4677,23,-172,-75,69
695,2159,1,-429,-4676,23,-172,-76,69
696,2159,2,-428,-4676,23,-172,-78,69
697,2159,2,-429,-4675,23,-173,-78,69
698,2159,1,-429,-4675,23,-172,-78,69
699,2160,0,-427,-4674,23,-173,-77,69
700,2161,0,-427,-4672,23,-174,-77,70
701,2161,1,-428,-4673,23,-174,-76,70
702,2160,0,-429,-4673,23,-172,-75,68
703,2160,1,-428,-4671,23,-172,-76,69
704,2159,2,-429,-4672,23,-173,-74,70
705,2160,1,-430,-4672,23,-174,-75,70
706,2158,1,-431,-4672,23,-174,-76,70
707,2158,1,-428,-4672,23,-174,-76,70
708,2158,0,-429,-4671,23,-173,-76,70
709,2159,0,-427,-4673,23,-173,-75,71
710,2158,0,-427,-4673,23,-173,-75,72
711,2158,1,-429,-4674,23,-173,-75,72
712,2158,2,-429,-4676,23,-174,-76,71
713,2159,2,-431,-4675,23,-174,-76,71
714,2158,2,-430,-4674,23,-173,-75,71
715,2158,2,-429,-4674,23,-173,-75,71
716,2159,1,-430,-4674,23,-173,-77,70
717,2160,2,-429,-4673,23,-174,-77,69
718,2160,0,-428,-4672,23,-174,-77,70
719,2161,1,-430,-4673,23,-174,-77,70
720,2159,2,-429,-4673,23,-174,-76,70
721,2159,1,-429,-4673,23,-173,-75,70
722,2156,2,-430,-4673,23,-173,-75,69
723,2157,2,-428,-4673,23,-174,-74,69
724,2157,1,-428,-4672,23,-173,-74,70
725,2159,1,-428,-4672,23,-172,-75,70
726,2158,2,-428,-4673,23,-173,-76,70
727,2158,1,-428,-4672,23,-173,-75,69
728,2158,1,-427,-4673,23,-173,-75,68
729,2159,0,-428,-4672,23,-173,-76,69
730,2159,1,-427,-4673,23,-174,-76,69
731,2160,1,-428,-4674,23,-174,-76,69
732,2159,1,-428,-4672,23,-173,-75,69
733,2159,1,-429,-4672,23,-174,-75,70
734,2159,1,-428,-4673,23,-174,-75,69
735,2160,1,-428,-4673,23,-173,-76,68
736,2161,0,-428,-4673,23,-174,-75,69
737,2160,-1,-428,-4673,23,-173,-75,70
738,2159,-1,-427,-4672,23,-173,-75,71
739,2159,-1,-426,-4672,23,-172,-76,71
740,2159,0,-426,-4672,23,-172,-76,71
741,2159,0,-427,-4670,23,-172,-77,71
742,2158,1,-427,-4671,23,-173,-77,70
743,2158,0,-428,-4672,23,-173,-76,69
744,2159,-1,-427,-4673,23,-173,-77,70
745,2158,0,-429,-4672,23,-173,-76,70
746,2158,1,-429,-4672,23,-175,-76,70
747,2158,0,-429,-4671,23,-174,-74,71
748,2158,0,-427,-4671,23,-174,-74,70
749,2158,2,-427,-4671,23,-173,-73,70
750,2158,2,-429,-4672,23,-173,-73,70
751,2158,2,-428,-4671,23,-174,-73,70
752,2158,2,-428,-4670,23,-173,-73,69
753,2159,1,-428,-4670,23,-174,-73,69
754,2158,3,-428,-4670,23,-172,-74,70
755,2158,3,-428,-4671,23,-173,-73,70
756,2159,2,-427,-4671,23,-173,-74,70
757,2159,3,-428,-4672,23,-173,-75,70
758,2160,1,-428,-4673,23,-172,-75,71
759,2159,2,-425,-4670,23,-173,-76,70
760,2160,2,-427,-4672,23,-173,-76,70
761,2159,2,-426,-4674,23,-172,-75,70
762,2159,1,-426,-4674,23,-173,-75,70
763,2160,1,-426,-4673,23,-174,-75,70
764,2160,2,-426,-4673,23,-173,-76,70
765,2161,1,-427,-4672,23,-174,-75,70
766,2160,1,-426,-4672,23,-174,-75,70
767,2159,1,-426,-4672,23,-173,-75,70
768,2158,2,-428,-4672,23,-174,-76,69
769,2159,2,-428,-4672,23,-175,-75,69
770,2159,2,-429,-4672,23,-175,-77,70
771,2158,3,-430,-4673,23,-175,-76,69
772,2158,3,-430,-4672,23,-175,-76,69
773,2158,3,-430,-4672,23,-173,-76,68
774,2158,3,-430,-4671,23,-173,-75,68
775,2160,3,-429,-4670,23,-173,-75,68
776,2160,2,-428,-4670,23,-173,-75,68
777,2159,-1,-428,-4670,23,-173,-74,68
778,2159,0,-428,-4670,23,-173,-75,68
779,2157,-1,-427,-4670,23,-173,-76,68
780,2157,0,-426,-4672,23,-174,-76,69
781,2157,1,-427,-4674,23,-173,-75,69
782,2157,1,-427,-4673,23,-174,-76,69
783,2157,1,-428,-4673,23,-173,-76,69
784,2157,1,-429,-4670,23,-173,-75,69
785,2157,2,-428,-4669,23,-173,-77,70
786,2157,2,-429,-4667,23,-173,-78,70
787,2157,2,-428,-4667,23,-172,-77,70
788,2157,1,-428,-4669,23,-173,-76,70
789,2157,2,-429,-4668,23,-172,-77,71
790,2157,1,-429,-4667,23,-171,-77,70
791,2158,2,-430,-4669,23,-172,-77,70
792,2158,1,-429,-4668,23,-172,-78,70
793,2159,0,-428,-4667,23,-173,-78,70
794,2159,1,-427,-4669,23,-174,-77,71
795,2159,1,-427,-4671,23,-174,-76,71
796,2159,2,-428,-4670,23,-174,-77,71
797,2159,2,-428,-4669,23,-174,-77,71
798,2159,1,-427,-4669,23,-174,-76,72
799,2159,1,-429,-4670,23,-175,-77,70
800,2158,1,-429,-4671,23,-173,-77,69
801,2158,0,-428,-4671,23,-173,-77,70
802,2159,0,-428,-4672,23,-173,-77,69
803,2160,0,-428,-4670,23,-174,-78,70
804,2160,0,-428,-4669,23,-175,-77,69
805,2160,-1,-428,-4670,23,-175,-77,70
806,2160,0,-427,-4670,23,-175,-76,70
807,2160,1,-427,-4671,23,-175,-75,70
808,2160,2,-427,-4672,23,-175,-75,70
809,2160,2,-428,-4672,23,-175,-75,70
810,2159,3,-427,-4672,23,-175,-76,70
811,2158,2,-425,-4671,23,-174,-75,70
812,2159,1,-425,-4671,23,-175,-76,70
813,2158,0,-426,-4672,23,-173,-77,69
814,2158,-1,-426,-4673,23,-173,-76,69
815,2159,-1,-428,-4673,23,-173,-75,69
816,2158,0,-429,-4674,23,-173,-76,69
817,2158,0,-430,-4671,23,-174,-77,70
818,2158,0,-431,-4670,23,-174,-76,69
819,2159,-1,-431,-4668,23,-174,-77,69
820,2158,-2,-430,-4668,23,-174,-77,69
821,2160,-1,-430,-4668,23,-173,-76,70
822,2159,-1,-430,-4668,23,-173,-75,70
823,2158,0,-432,-4668,23,-173,-76,70
824,2158,0,-432,-4668,23,-173,-75,70
825,2158,0,-430,-4668,23,-174,-74,70
826,2158,0,-430,-4669,23,-173,-74,69
827,2159,0,-430,-4672,23,-172,-74,70
828,2159,0,-429,-4671,23,-172,-73,70
829,2159,0,-429,-4671,23,-173,-75,70
830,2158,-1,-429,-4670,23,-174,-76,70
831,2157,-1,-430,-4670,23,-175,-77,70
832,2157,-1,-430,-4668,23,-174,-77,69
833,2159,-1,-429,-4668,23,-174,-76,70
834,2160,0,-429,-4668,23,-174,-76,71
835,2161,1,-429,-4667,23,-174,-76,71
836,2161,2,-429,-4667,23,-174,-76,70
837,2160,1,-427,-4668,23,-174,-75,72
838,2161,2,-428,-4669,23,-174,-76,72
839,2160,3,-427,-4669,23,-173,-76,72
840,2160,2,-427,-4670,23,-174,-75,72
841,2161,2,-429,-4670,23,-172,-74,71
842,2160,2,-428,-4670,23,-172,-73,71
843,2161,1,-429,-4669,23,-173,-74,71
844,2162,1,-428,-4669,23,-173,-74,71
845,2161,0,-428,-4670,23,-173,-75,72
846,2161,0,-427,-4671,23,-172,-76,71
847,2160,0,-426,-4670,23,-172,-75,70
848,2162,1,-427,-4670,23,-172,-74,70
849,2161,1,-427,-4671,23,-173,-75,69
850,2160,1,-427,-4672,23,-173,-74,70
851,2159,0,-429,-4671,23,-173,-75,70
852,2158,1,-429,-4672,23,-175,-74,70
853,2160,2,-426,-4671,23,-175,-75,70
854,2160,1,-426,-4670,23,-175,-76,70
855,2160,0,-428,-4672,23,-175,-77,70
856,2158,1,-429,-4672,23,-175,-77,70
857,2158,2,-430,-4673,23,-175,-77,70
858,2157,2,-430,-4672,23,-175,-76,70
859,2157,2,-429,-4672,23,-175,-76,70
860,2158,4,-429,-4672,23,-175,-75,69
861,2159,4,-427,-4672,23,-175,-75,69
862,2159,4,-427,-4672,23,-174,-76,69
863,2159,3,-429,-4671,23,-174,-76,69
864,2159,1,-429,-4672,23,-174,-77,69
865,2158,1,-429,-4671,23,-174,-77,70
866,2158,0,-429,-4671,23,-174,-75,70
867,2159,1,-429,-4671,23,-173,-75,70
868,2159,2,-429,-4670,23,-173,-75,71
869,2158,0,-429,-4671,23,-174,-74,71
870,2158,1,-430,-4671,23,-173,-74,71
871,2159,2,-428,-4671,23,-173,-75,70
872,2159,1,-427,-4670,23,-172,-76,70
873,2158,1,-427,-4669,23,-173,-75,69
874,2157,2,-427,-4669,23,-173,-74,70
875,2158,1,-427,-4668,23,-174,-75,70
876,2158,2,-425,-4669,23,-174,-76,70
877,2159,3,-427,-4670,23,-174,-76,69
878,2158,4,-428,-4670,23,-174,-74,70
879,2157,3,-427,-4669,23,-174,-74,70
880,2158,4,-427,-4669,23,-173,-75,70
881,2158,3,-429,-4670,23,-173,-75,69
882,2157,3,-428,-4670,23,-173,-75,70
883,2157,3,-430,-4671,23,-173,-75,70
884,2158,3,-429,-4669,23,-173,-75,70
885,2158,2,-430,-4669,23,-174,-75,70
886,2158,2,-428,-4670,23,-173,-75,70
887,2159,2,-429,-4671,23,-174,-77,71
888,2158,2,-429,-4672,23,-173,-75,72
889,2158,2,-429,-4672,23,-173,-75,72
890,2158,2,-429,-4671,23,-173,-74,71
891,2158,2,-429,-4672,23,-174,-75,72
892,2159,2,-427,-4672,23,-174,-76,71
893,2159,2,-427,-4672,23,-174,-76,70
894,2160,2,-426,-4673,23,-174,-76,70
895,2160,2,-426,-4673,23,-174,-76,71
896,2160,1,-427,-4672,23,-174,-76,72
897,2161,1,-427,-4672,23,-175,-75,72
898,2161,-1,-428,-4672,23,-175,-74,71
899,2161,0,-429,-4670,23,-175,-74,70
900,2161,0,-431,-4670,23,-175,-75,70
901,2161,0,-431,-4669,23,-174,-75,70
902,2162,0,-431,-4670,23,-174,-75,70
903,2161,1,-430,-4671,23,-174,-75,71
904,2162,1,-431,-4672,23,-173,-74,71
905,2160,2,-431,-4671,23,-173,-75,71
906,2160,2,-430,-4672,23,-173,-76,70
907,2160,2,-430,-4671,23,-173,-76,71
908,2159,1,-428,-4669,23,-173,-77,70
909,2159,0,-428,-4671,23,-174,-75,71
910,2160,1,-428,-4671,23,-175,-74,71
911,2159,1,-427,-4671,23,-174,-76,70
912,2159,1,-426,-4669,23,-174,-76,70
913,2159,2,-428,-4668,23,-173,-75,70
914,2160,0,-428,-4666,23,-173,-77,71
915,2160,0,-425,-4666,23,-173,-76,71
916,2160,0,-423,-4665,23,-173,-76,70
917,2160,0,-424,-4668,23,-173,-77,70
918,2160,0,-425,-4669,23,-173,-77,70
919,2160,1,-426,-4669,23,-173,-77,69
920,2159,1,-427,-4670,23,-173,-76,70
921,2159,1,-427,-4669,23,-173,-75,70
922,2160,0,-427,-4671,23,-175,-75,70
923,2160,1,-428,-4672,23,-175,-76,70
924,2160,2,-426,-4673,23,-174,-75,69
925,2159,2,-428,-4673,23,-174,-75,69
926,2160,2,-428,-4673,23,-173,-74,70
927,2160,3,-429,-4672,23,-172,-75,69
928,2159,3,-429,-4671,23,-172,-76,70
929,2160,4,-428,-4671,23,-172,-76,70
930,2160,3,-427,-4672,23,-173,-77,69
931,2160,4,-428,-4674,23,-172,-76,69
932,2159,4,-429,-4672,23,-172,-77,69
933,2159,2,-429,-4674,23,-173,-77,69
934,2159,3,-429,-4673,23,-173,-77,68
935,2160,3,-428,-4674,23,-172,-77,69
936,2160,4,-429,-4674,23,-173,-76,70
937,2159,4,-429,-4672,23,-173,-77,71
938,2160,4,-428,-4672,23,-173,-77,72
939,2159,3,-429,-4673,23,-171,-77,72
940,2159,3,-431,-4673,23,-172,-77,71
941,2158,2,-429,-4672,23,-172,-76,71
942,2158,2,-429,-4672,23,-173,-76,71
943,2158,1,-430,-4674,23,-172,-76,70
944,2158,2,-431,-4673,23,-173,-76,70
945,2157,2,-432,-4674,23,-171,-76,71
946,2158,0,-433,-4673,23,-172,-76,72
947,2158,0,-432,-4672,23,-173,-77,71
948,2158,-1,-431,-4674,23,-172,-77,71
949,2158,-1,-429,-4673,23,-173,-77,70
950,2159,0,-430,-4673,23,-172,-77,70
951,2159,-1,-430,-4674,23,-172,-77,70
952,2158,0,-429,-4673,23,-172,-77,69
953,2158,0,-429,-4672,23,-172,-77,68
954,2157,0,-430,-4673,23,-173,-75,69
955,2157,0,-428,-4674,23,-173,-75,69
956,2157,0,-428,-4673,23,-172,-76,69
957,2158,1,-427,-4675,23,-173,-76,68
958,2158,1,-426,-4674,23,-173,-75,68
959,2158,0,-426,-4674,23,-174,-74,69
960,2158,-1,-427,-4672,23,-174,-74,68
961,2158,-1,-426,-4671,23,-175,-75,68
962,2156,0,-426,-4671,23,-175,-75,70
963,2157,0,-426,-4670,23,-174,-77,70
964,2158,0,-426,-4670,23,-174,-77,69
965,2156,-1,-428,-4672,23,-174,-76,71
966,2156,-2,-427,-4672,23,-173,-76,71
967,2155,-1,-426,-4671,23,-173,-75,71
968,2157,-1,-429,-4671,23,-174,-75,70
969,2157,0,-430,-4671,23,-174,-74,69
970,2157,1,-428,-4673,23,-174,-73,70
971,2157,1,-429,-4673,23,-173,-73,70
972,2158,2,-430,-4672,23,-172,-73,71
973,2158,2,-429,-4670,23,-172,-74,70
974,2158,2,-428,-4669,23,-172,-73,70
975,2159,2,-429,-4672,23,-173,-74,71
976,2159,3,-430,-4671,23,-173,-74,71
977,2159,2,-430,-4672,23,-172,-74,71
978,2159,1,-430,-4672,23,-172,-74,72
979,2159,1,-430,-4672,23,-172,-75,71
980,2159,1,-428,-4673,23,-173,-76,71
981,2160,1,-427,-4674,23,-172,-77,72
982,2158,0,-428,-4673,23,-172,-77,72
983,2158,1,-430,-4672,23,-173,-77,72
984,2158,1,-431,-4673,23,-173,-76,72
985,2158,1,-430,-4671,23,-173,-76,71
986,2157,1,-430,-4671,23,-174,-75,71
987,2158,1,-429,-4673,23,-175,-76,70
988,2157,1,-430,-4673,23,-174,-75,70
989,2157,0,-428,-4675,23,-174,-74,70
990,2159,0,-430,-4675,23,-173,-74,71
991,2160,1,-430,-4675,23,-174,-74,71
992,2160,1,-431,-4674,23,-174,-74,71
993,2159,1,-429,-4674,23,-173,-75,71
994,2160,0,-428,-4674,23,-173,-74,72
995,2159,0,-428,-4672,23,-173,-75,70
996,2159,0,-430,-4672,23,-173,-76,70
997,2159,1,-430,-4672,23,-174,-76,70
998,2159,0,-429,-4673,23,-173,-77,71
