,acc_X,acc_Y,acc_Z,temp,tempC,gyr_X,gyr_Y,gyr_Z
0,17226,8,-3430,-4656,23,-360,-158,132
1,17340,116,-3544,-4651,23,-325,-151,148
2,17294,30,-3392,-4662,23,-342,-164,134
3,17316,8,-3322,-4658,23,-344,-142,131
4,17236,-10,-3378,-4655,23,-348,-150,146
5,17228,-6,-3412,-4669,23,-356,-162,132
6,17274,36,-3496,-4654,23,-345,-163,145
7,17234,-14,-3432,-4653,23,-364,-155,152
8,17302,-22,-3348,-4657,23,-332,-166,136
9,17226,62,-3384,-4654,23,-337,-151,140
10,17266,44,-3464,-4654,23,-361,-144,133
11,17250,20,-3468,-4653,23,-338,-152,123
12,17284,-14,-3448,-4657,23,-353,-143,152
13,17286,56,-3476,-4657,23,-333,-157,150
14,17358,58,-3396,-4651,23,-345,-162,132
15,17248,-72,-3276,-4659,23,-361,-144,148
16,17252,-34,-3454,-4653,23,-346,-148,133
17,17296,28,-3272,-4659,23,-340,-153,147
18,17304,8,-3318,-4662,23,-336,-162,132
19,17256,-26,-3454,-4660,23,-337,-142,144
20,17248,4,-3350,-4660,23,-355,-146,141
21,17250,-10,-3296,-4648,23,-364,-171,154
22,17260,-22,-3428,-4658,23,-351,-145,160
23,17272,102,-3468,-4667,23,-337,-140,136
24,17284,-36,-3448,-4652,23,-365,-152,138
25,17236,44,-3490,-4646,23,-339,-149,140
26,17174,-76,-3412,-4653,23,-354,-160,135
27,17268,24,-3382,-4660,23,-351,-158,132
28,17240,8,-3360,-4651,23,-329,-150,140
29,17298,16,-3382,-4650,23,-365,-159,129
30,17176,32,-3236,-4647,23,-354,-145,156
31,17202,-80,-3430,-4661,23,-348,-142,135
32,17220,-54,-3324,-4644,23,-352,-151,132
33,17274,42,-3326,-4652,23,-349,-160,153
34,17280,-6,-3380,-4661,23,-355,-155,131
35,17356,-58,-3334,-4645,23,-355,-150,144
36,17324,100,-3546,-4666,23,-348,-152,155
37,17308,-6,-3304,-4653,23,-326,-162,142
38,17192,84,-3296,-4664,23,-345,-166,136
39,17178,40,-3444,-4660,23,-351,-156,140
40,17350,-10,-3352,-4648,23,-332,-155,136
41,17290,2,-3400,-4651,23,-363,-165,137
42,17304,30,-3346,-4656,23,-354,-159,158
43,17304,52,-3458,-4668,23,-353,-163,145
44,17266,24,-3296,-4662,23,-341,-165,136
45,17266,-28,-3334,-4668,23,-354,-159,137
46,17268,46,-3416,-4654,23,-353,-161,139
47,17306,88,-3438,-4652,23,-350,-154,144
48,17298,-34,-3452,-4655,23,-344,-150,140
49,17358,-44,-3410,-4671,23,-353,-172,140
50,17266,-26,-3410,-4654,23,-350,-160,140
51,17274,26,-3316,-4667,23,-343,-166,137
52,17282,76,-3352,-4660,23,-355,-171,137
53,17328,12,-3382,-4652,23,-347,-147,144
54,17240,18,-3502,-4647,23,-358,-158,143
55,17216,58,-3408,-4654,23,-342,-150,130
56,17302,6,-3388,-4657,23,-351,-143,138
57,17242,22,-3402,-4656,23,-349,-136,141
58,17198,-10,-3402,-4661,23,-347,-149,135
59,17296,58,-3522,-4661,23,-338,-157,143
60,17286,-18,-3434,-4657,23,-336,-162,134
61,17350,16,-3426,-4650,23,-352,-144,142
62,17300,32,-3298,-4655,23,-348,-146,137
63,17278,64,-3494,-4663,23,-341,-141,122
64,17292,-22,-3402,-4653,23,-339,-172,142
65,17340,32,-3348,-4663,23,-351,-161,139
66,17260,30,-3360,-4661,23,-352,-169,141
67,17312,40,-3406,-4648,23,-357,-165,141
68,17328,10,-3456,-4665,23,-349,-151,128
69,17304,46,-3346,-4666,23,-349,-166,137
70,17246,-36,-3432,-4669,23,-357,-137,141
71,17278,12,-3292,-4658,23,-355,-156,135
72,17300,-30,-3436,-4670,23,-350,-165,155
73,17332,-38,-3460,-4652,23,-353,-136,148
74,17246,-42,-3578,-4651,23,-353,-146,129
75,17330,60,-3362,-4650,23,-362,-160,154
76,17268,-96,-3290,-4680,23,-339,-143,126
77,17230,-28,-3378,-4664,23,-350,-134,142
78,17300,-10,-3332,-4660,23,-357,-149,124
79,17282,-42,-3444,-4664,23,-340,-147,145
80,17190,-26,-3272,-4658,23,-329,-151,131
81,17292,8,-3342,-4653,23,-334,-164,142
82,17252,-88,-3282,-4647,23,-354,-149,148
83,17296,30,-3332,-4668,23,-340,-140,136
84,17320,-12,-3342,-4659,23,-347,-161,130
85,17196,8,-3342,-4660,23,-357,-153,139
86,17302,44,-3444,-4660,23,-362,-164,147
87,17274,-10,-3364,-4645,23,-355,-162,135
88,17392,56,-3268,-4651,23,-345,-150,145
89,17268,-2,-3386,-4643,23,-339,-157,135
90,17250,30,-3386,-4659,23,-355,-142,153
91,17266,-66,-3352,-4657,23,-336,-144,152
92,17260,38,-3406,-4661,23,-339,-162,137
93,17306,44,-3438,-4657,23,-361,-136,140
94,17332,0,-3382,-4666,23,-340,-151,142
95,17258,94,-3280,-4651,23,-344,-151,141
96,17286,-68,-3346,-4662,23,-341,-166,144
97,17318,78,-3396,-4660,23,-342,-160,155
98,17238,-22,-3324,-4657,23,-338,-151,129
99,17290,32,-3488,-4663,23,-346,-156,137
100,17278,-46,-3372,-4659,23,-360,-146,121
101,17226,92,-3424,-4660,23,-338,-163,128
102,17296,12,-3432,-4666,23,-357,-140,148
103,17314,-26,-3430,-4666,23,-338,-144,148
104,17272,44,-3404,-4665,23,-344,-150,153
105,17202,-50,-3362,-4676,23,-344,-134,147
106,17310,-8,-3300,-4654,23,-334,-151,127
107,17234,2,-3380,-4657,23,-353,-153,125
108,17230,40,-3498,-4648,23,-334,-155,134
109,17278,22,-3348,-4670,23,-351,-150,144
110,17370,52,-3282,-4660,23,-341,-172,139
111,17224,0,-3410,-4668,23,-350,-160,150
112,17334,24,-3328,-4663,23,-348,-170,133
113,17260,-32,-3466,-4660,23,-343,-137,145
114,17308,8,-3434,-4661,23,-347,-151,130
115,17236,4,-3416,-4653,23,-362,-155,146
116,17222,6,-3278,-4667,23,-356,-138,116
117,17282,8,-3318,-4661,23,-338,-161,154
118,17324,30,-3346,-4656,23,-356,-147,130
119,17246,-12,-3314,-4649,23,-355,-158,144
120,17338,2,-3322,-4661,23,-351,-140,135
121,17264,-8,-3458,-4660,23,-362,-143,145
122,17278,-32,-3388,-4658,23,-341,-171,145
123,17422,-72,-3476,-4659,23,-333,-158,133
124,17366,0,-3422,-4660,23,-341,-155,147
125,17236,-50,-3396,-4651,23,-358,-142,141
126,17310,-34,-3334,-4668,23,-348,-151,140
127,17270,-36,-3366,-4664,23,-360,-153,134
128,17248,14,-3424,-4650,23,-334,-150,141
129,17230,-2,-3306,-4656,23,-345,-153,137
130,17242,14,-3314,-4664,23,-351,-144,154
131,17354,62,-3406,-4643,23,-355,-143,139
132,17278,-20,-3292,-4657,23,-342,-162,141
133,17324,72,-3316,-4657,23,-341,-162,146
134,17278,54,-3390,-4670,23,-362,-159,137
135,17236,80,-3370,-4655,23,-350,-148,137
136,17284,58,-3296,-4653,23,-358,-149,135
137,17290,48,-3440,-4660,23,-353,-157,151
138,17332,24,-3404,-4658,23,-342,-160,146
139,17290,76,-3394,-4649,23,-339,-156,133
140,17300,-20,-3342,-4665,23,-341,-150,154
141,17258,-2,-3390,-4651,23,-346,-135,148
142,17254,32,-3318,-4660,23,-344,-154,138
143,17298,-10,-3444,-4663,23,-359,-148,139
144,17264,-32,-3308,-4647,23,-342,-154,136
145,17240,32,-3524,-4657,23,-352,-144,145
146,17280,-26,-3314,-4652,23,-341,-143,138
147,17272,-8,-3412,-4654,23,-346,-153,126
148,17276,10,-3484,-4644,23,-357,-150,132
149,17316,64,-3502,-4666,23,-358,-148,142
150,17332,30,-3408,-4669,23,-354,-157,160
151,17286,28,-3458,-4656,23,-349,-146,135
152,17234,94,-3246,-4650,23,-333,-146,144
153,17328,20,-3404,-4647,23,-357,-139,132
154,17238,-8,-3396,-4671,23,-323,-163,130
155,17304,-66,-3334,-4661,23,-345,-154,135
156,17200,-4,-3454,-4675,23,-364,-150,143
157,17320,68,-3524,-4657,23,-342,-153,146
158,17206,74,-3364,-4660,23,-336,-158,142
159,17186,42,-3422,-4657,23,-334,-172,137
160,17208,2,-3426,-4659,23,-348,-152,145
161,17298,-76,-3374,-4661,23,-356,-126,139
162,17338,-30,-3362,-4667,23,-354,-159,130
163,17350,-34,-3302,-4658,23,-341,-147,140
164,17222,0,-3490,-4670,23,-359,-163,143
165,17296,-72,-3394,-4667,23,-342,-157,141
166,17296,26,-3430,-4660,23,-333,-160,140
167,17226,-4,-3480,-4667,23,-328,-159,147
168,17296,80,-3422,-4649,23,-346,-157,140
169,17258,-30,-3524,-4645,23,-340,-151,135
170,17232,-2,-3424,-4661,23,-351,-146,144
171,17322,-28,-3328,-4666,23,-342,-161,132
172,17290,44,-3276,-4648,23,-341,-147,136
173,17252,-10,-3462,-4649,23,-342,-151,135
174,17348,18,-3392,-4654,23,-348,-140,133
175,17260,-110,-3408,-4665,23,-350,-146,141
176,17244,-36,-3418,-4667,23,-357,-136,138
177,17268,-10,-3374,-4645,23,-347,-157,146
178,17250,-46,-3440,-4664,23,-345,-155,151
179,17338,32,-3434,-4646,23,-349,-158,132
180,17182,-10,-3550,-4644,23,-353,-172,134
181,17270,42,-3394,-4658,23,-359,-169,151
182,17218,68,-3480,-4658,23,-355,-136,141
183,17226,54,-3458,-4650,23,-346,-149,140
184,17290,12,-3410,-4667,23,-343,-135,153
185,17260,-20,-3296,-4648,23,-353,-173,148
186,17282,-54,-3400,-4646,23,-344,-161,141
187,17220,8,-3378,-4659,23,-353,-143,155
188,17292,-86,-3370,-4656,23,-340,-168,144
189,17218,40,-3266,-4645,23,-329,-158,126
190,17194,58,-3420,-4657,23,-353,-160,144
191,17350,30,-3414,-4657,23,-365,-148,137
192,17318,26,-3452,-4653,23,-350,-133,129
193,17296,6,-3442,-4651,23,-357,-155,138
194,17324,6,-3446,-4673,23,-328,-144,146
195,17288,54,-3330,-4647,23,-346,-156,145
196,17238,56,-3384,-4653,23,-359,-147,121
197,17318,-12,-3360,-4660,23,-333,-147,141
198,17366,-50,-3322,-4654,23,-354,-161,133
199,17282,-22,-3312,-4675,23,-343,-143,141
200,17284,-24,-3314,-4659,23,-333,-143,145
201,17256,28,-3416,-4661,23,-338,-149,142
202,17332,32,-3404,-4664,23,-350,-155,150
203,17270,-90,-3530,-4655,23,-346,-152,135
204,17284,0,-3406,-4644,23,-362,-154,142
205,17286,-46,-3426,-4650,23,-336,-130,147
206,17268,42,-3502,-4655,23,-340,-152,143
207,17290,-4,-3436,-4657,23,-330,-162,139
208,17248,-10,-3312,-4662,23,-354,-156,134
209,17330,36,-3392,-4664,23,-356,-155,145
210,17274,-12,-3406,-4655,23,-352,-157,140
211,17298,-38,-3430,-4657,23,-344,-165,117
212,17280,-76,-3400,-4656,23,-371,-144,119
213,17190,4,-3296,-4653,23,-341,-158,141
214,17222,-52,-3422,-4660,23,-354,-154,135
215,17260,4,-3388,-4642,23,-341,-165,145
216,17236,-64,-3362,-4657,23,-353,-140,124
217,17270,76,-3428,-4652,23,-356,-152,136
218,17196,8,-3426,-4652,23,-343,-151,145
219,17310,26,-3394,-4668,23,-357,-151,132
220,17304,118,-3380,-4668,23,-348,-147,149
221,17274,48,-3466,-4655,23,-344,-160,150
222,17276,108,-3418,-4646,23,-351,-152,141
223,17334,48,-3300,-4656,23,-354,-157,124
224,17264,-4,-3320,-4663,23,-325,-138,121
225,17306,72,-3506,-4648,23,-331,-131,139
226,17266,24,-3490,-4649,23,-362,-153,137
227,17190,88,-3362,-4648,23,-343,-152,134
228,17280,8,-3464,-4661,23,-353,-149,141
229,17308,-80,-3304,-4663,23,-348,-140,158
230,17344,62,-3312,-4659,23,-335,-160,149
231,17258,-14,-3392,-4659,23,-347,-159,137
232,17322,-34,-3320,-4656,23,-344,-153,134
233,17266,-28,-3398,-4666,23,-329,-145,150
234,17266,20,-3458,-4654,23,-357,-131,133
235,17344,-22,-3390,-4640,23,-353,-131,147
236,17268,-10,-3436,-4654,23,-346,-136,127
237,17276,12,-3318,-4656,23,-340,-138,140
238,17286,34,-3340,-4661,23,-341,-150,141
239,17248,-38,-3352,-4672,23,-351,-162,152
240,17344,-22,-3494,-4647,23,-339,-141,134
241,17314,-46,-3366,-4658,23,-338,-165,137
242,17304,-28,-3422,-4656,23,-349,-136,139
243,17168,2,-3434,-4661,23,-355,-161,133
244,17314,-6,-3346,-4652,23,-357,-161,120
245,17306,-10,-3434,-4663,23,-344,-156,146
246,17238,-12,-3436,-4658,23,-344,-152,153
247,17354,90,-3316,-4660,23,-355,-162,131
248,17262,-2,-3406,-4651,23,-348,-148,141
249,17238,22,-3492,-4652,23,-346,-157,142
250,17316,12,-3358,-4669,23,-339,-141,131
251,17232,-24,-3430,-4654,23,-344,-140,135
252,17298,-72,-3470,-4656,23,-336,-147,154
253,17248,4,-3470,-4648,23,-341,-134,151
254,17304,10,-3444,-4645,23,-367,-135,146
255,17334,-2,-3530,-4652,23,-344,-169,153
256,17274,-48,-3470,-4668,23,-362,-151,134
257,17268,-20,-3378,-4670,23,-328,-155,139
258,17328,4,-3320,-4657,23,-356,-156,132
259,17246,28,-3478,-4652,23,-337,-159,143
260,17308,-70,-3356,-4661,23,-340,-143,150
261,17220,-6,-3392,-4656,23,-352,-151,143
262,17250,6,-3484,-4659,23,-349,-138,139
263,17336,-50,-3444,-4659,23,-362,-161,162
264,17246,-4,-3378,-4647,23,-350,-135,149
265,17354,60,-3436,-4643,23,-350,-158,130
266,17248,116,-3338,-4644,23,-342,-145,132
267,17278,-2,-3352,-4645,23,-367,-140,138
268,17272,22,-3414,-4647,23,-345,-150,137
269,17304,-8,-3394,-4646,23,-361,-172,139
270,17320,-44,-3426,-4656,23,-344,-155,140
271,17338,-38,-3400,-4649,23,-336,-148,134
272,17312,26,-3288,-4639,23,-346,-134,155
273,17242,74,-3300,-4652,23,-339,-160,148
274,17184,48,-3410,-4642,23,-354,-153,144
275,17248,-72,-3442,-4645,23,-362,-146,141
276,17226,-46,-3328,-4656,23,-334,-147,129
277,17252,26,-3338,-4653,23,-339,-146,123
278,17288,12,-3352,-4652,23,-343,-150,155
279,17312,-24,-3434,-4643,23,-350,-142,149
280,17256,76,-3374,-4664,23,-344,-144,150
281,17234,-56,-3476,-4658,23,-362,-161,135
282,17274,38,-3478,-4654,23,-354,-145,135
283,17384,22,-3482,-4648,23,-342,-141,149
284,17268,2,-3378,-4648,23,-357,-141,127
285,17344,-32,-3302,-4656,23,-352,-160,132
286,17244,52,-3426,-4650,23,-359,-141,128
287,17312,-4,-3412,-4640,23,-356,-142,155
288,17346,72,-3322,-4657,23,-351,-156,133
289,17354,42,-3358,-4648,23,-341,-145,146
290,17260,-52,-3430,-4655,23,-349,-150,159
291,17342,-70,-3482,-4652,23,-353,-141,142
292,17290,8,-3266,-4653,23,-337,-167,155
293,17162,52,-3446,-4665,23,-356,-172,137
294,17280,56,-3344,-4652,23,-351,-148,148
295,17280,12,-3454,-4651,23,-340,-146,135
296,17254,-14,-3376,-4647,23,-336,-153,143
297,17352,66,-3358,-4650,23,-352,-154,141
298,17180,64,-3362,-4650,23,-358,-150,142
299,17312,26,-3562,-4660,23,-335,-154,143
300,17298,-62,-3416,-4651,23,-355,-147,122
301,17268,44,-3414,-4670,23,-351,-160,148
302,17224,2,-3250,-4657,23,-349,-149,141
303,17246,-4,-3324,-4657,23,-340,-148,138
304,17290,-62,-3440,-4659,23,-350,-161,147
305,17322,96,-3396,-4666,23,-361,-139,137
306,17300,2,-3388,-4668,23,-340,-149,152
307,17236,-26,-3450,-4666,23,-348,-147,148
308,17280,-14,-3408,-4663,23,-342,-141,162
309,17352,28,-3412,-4654,23,-350,-144,123
310,17318,124,-3360,-4666,23,-364,-150,148
311,17300,2,-3390,-4653,23,-332,-153,152
312,17330,-56,-3416,-4662,23,-352,-151,133
313,17272,-52,-3396,-4661,23,-348,-138,144
314,17248,-8,-3442,-4643,23,-329,-152,151
315,17268,-2,-3408,-4659,23,-358,-166,129
316,17356,-16,-3332,-4662,23,-338,-168,139
317,17236,4,-3460,-4648,23,-352,-156,142
318,17230,44,-3432,-4657,23,-341,-139,130
319,17258,12,-3372,-4659,23,-352,-144,140
320,17252,6,-3376,-4646,23,-344,-156,142
321,17268,44,-3326,-4657,23,-349,-160,136
322,17250,-22,-3350,-4650,23,-350,-141,141
323,17246,2,-3340,-4654,23,-357,-140,115
324,17252,42,-3496,-4650,23,-340,-149,132
325,17306,50,-3476,-4654,23,-358,-161,149
326,17272,72,-3408,-4656,23,-353,-155,142
327,17318,36,-3282,-4665,23,-335,-158,135
328,17274,-10,-3256,-4650,23,-334,-132,144
329,17238,18,-3418,-4653,23,-349,-150,127
330,17302,-10,-3452,-4656,23,-332,-162,139
331,17274,48,-3394,-4646,23,-350,-147,130
332,17248,22,-3336,-4660,23,-354,-169,151
333,17322,-14,-3358,-4655,23,-327,-147,142
334,17278,38,-3282,-4665,23,-335,-139,129
335,17284,30,-3348,-4639,23,-349,-154,136
336,17274,-8,-3424,-4655,23,-355,-141,150
337,17258,-64,-3414,-4654,23,-358,-161,146
338,17288,60,-3406,-4656,23,-346,-145,137
339,17280,60,-3316,-4660,23,-370,-151,128
340,17314,100,-3364,-4653,23,-320,-155,140
341,17308,68,-3464,-4645,23,-358,-175,137
342,17338,-20,-3422,-4658,23,-353,-161,157
343,17310,88,-3454,-4643,23,-349,-161,134
344,17222,98,-3440,-4664,23,-347,-145,132
345,17274,-30,-3408,-4658,23,-336,-167,143
346,17288,46,-3330,-4658,23,-339,-158,140
347,17282,42,-3298,-4659,23,-332,-144,140
348,17254,12,-3398,-4663,23,-342,-156,161
349,17192,-32,-3604,-4653,23,-335,-149,139
350,17274,110,-3378,-4654,23,-347,-154,151
351,17298,44,-3496,-4661,23,-337,-149,150
352,17282,-34,-3400,-4659,23,-343,-136,141
353,17290,-2,-3376,-4660,23,-341,-157,149
354,17246,118,-3406,-4644,23,-344,-132,126
355,17232,-18,-3384,-4655,23,-338,-158,145
356,17322,-76,-3248,-4649,23,-346,-170,121
357,17244,-28,-3452,-4661,23,-357,-155,135
358,17270,18,-3536,-4667,23,-360,-157,130
359,17288,24,-3422,-4656,23,-351,-168,145
360,17252,60,-3288,-4658,23,-352,-153,144
361,17274,-64,-3400,-4659,23,-356,-147,148
362,17290,42,-3260,-4654,23,-346,-162,148
363,17264,-8,-3402,-4655,23,-340,-135,139
364,17230,-6,-3506,-4660,23,-343,-148,149
365,17268,34,-3328,-4665,23,-351,-146,136
366,17278,8,-3462,-4651,23,-351,-147,134
367,17242,-6,-3516,-4663,23,-357,-157,142
368,17310,24,-3348,-4658,23,-366,-163,149
369,17342,-30,-3396,-4651,23,-356,-145,145
370,17182,20,-3388,-4645,23,-371,-136,135
371,17324,96,-3408,-4644,23,-352,-164,141
372,17258,38,-3446,-4664,23,-356,-146,135
373,17372,-60,-3460,-4655,23,-354,-151,133
374,17232,42,-3472,-4658,23,-339,-152,130
375,17284,74,-3420,-4663,23,-353,-169,143
376,17328,2,-3228,-4644,23,-361,-159,156
377,17228,34,-3450,-4649,23,-336,-152,129
378,17220,-56,-3474,-4630,23,-341,-139,160
379,17310,74,-3400,-4654,23,-342,-151,148
380,17286,86,-3402,-4657,23,-361,-150,150
381,17252,-48,-3452,-4659,23,-347,-158,127
382,17332,-16,-3470,-4650,23,-339,-161,146
383,17270,28,-3406,-4655,23,-339,-153,134
384,17308,26,-3376,-4646,23,-340,-145,147
385,17272,-4,-3424,-4658,23,-348,-153,141
386,17300,22,-3432,-4644,23,-365,-149,136
387,17288,18,-3346,-4655,23,-342,-144,142
388,17294,82,-3314,-4667,23,-365,-173,140
389,17268,14,-3398,-4650,23,-343,-150,142
390,17356,4,-3296,-4651,23,-353,-180,140
391,17284,40,-3410,-4657,23,-335,-171,124
392,17360,-32,-3510,-4660,23,-340,-155,144
393,17318,-28,-3382,-4650,23,-334,-157,132
394,17214,42,-3440,-4657,23,-342,-142,134
395,17294,22,-3330,-4652,23,-352,-148,138
396,17318,-4,-3410,-4652,23,-345,-159,135
397,17174,-36,-3340,-4656,23,-361,-165,129
398,17266,4,-3436,-4653,23,-324,-148,153
399,17260,42,-3404,-4638,23,-341,-159,133
400,17282,42,-3426,-4654,23,-335,-154,143
401,17344,42,-3284,-4652,23,-339,-155,152
402,17322,10,-3360,-4660,23,-343,-167,158
403,17260,2,-3368,-4659,23,-344,-160,134
404,17290,64,-3384,-4658,23,-355,-151,139
405,17250,14,-3418,-4636,23,-366,-167,149
406,17304,-22,-3442,-4650,23,-342,-165,138
407,17282,6,-3368,-4656,23,-351,-156,145
408,17312,64,-3390,-4651,23,-353,-139,145
409,17262,-16,-3416,-4646,23,-353,-150,140
410,17258,20,-3518,-4660,23,-365,-137,136
411,17250,-40,-3464,-4656,23,-350,-151,133
412,17210,-8,-3430,-4667,23,-343,-147,137
413,17240,44,-3212,-4651,23,-347,-160,141
414,17314,0,-3360,-4656,23,-351,-142,145
415,17290,0,-3308,-4659,23,-345,-149,141
416,17244,-12,-3440,-4648,23,-346,-163,148
417,17282,-22,-3362,-4645,23,-355,-173,150
418,17282,-24,-3414,-4648,23,-353,-155,143
419,17250,-42,-3368,-4656,23,-343,-151,137
420,17332,-36,-3430,-4653,23,-342,-136,155
421,17312,-26,-3436,-4645,23,-347,-150,156
422,17318,36,-3360,-4658,23,-345,-170,117
423,17300,0,-3274,-4642,23,-346,-137,141
424,17230,6,-3354,-4659,23,-351,-147,134
425,17292,50,-3310,-4638,23,-358,-164,137
426,17308,30,-3374,-4661,23,-359,-143,162
427,17260,30,-3306,-4662,23,-353,-138,145
428,17326,-38,-3332,-4653,23,-339,-140,152
429,17280,100,-3374,-4647,23,-327,-150,139
430,17246,70,-3470,-4662,23,-347,-155,140
431,17268,-16,-3376,-4663,23,-333,-147,143
432,17344,44,-3394,-4640,23,-347,-152,138
433,17314,26,-3480,-4648,23,-340,-160,148
434,17230,-6,-3416,-4645,23,-348,-152,145
435,17332,-40,-3470,-4645,23,-338,-149,137
436,17232,60,-3384,-4656,23,-326,-159,138
437,17278,-66,-3384,-4658,23,-345,-145,155
438,17248,68,-3362,-4659,23,-334,-164,154
439,17194,8,-3386,-4651,23,-343,-147,128
440,17278,-30,-3382,-4655,23,-362,-166,146
441,17294,46,-3476,-4656,23,-359,-154,128
442,17216,78,-3202,-4667,23,-333,-147,147
443,17322,68,-3360,-4642,23,-351,-163,147
444,17218,-30,-3426,-4656,23,-333,-146,139
445,17232,6,-3362,-4643,23,-343,-150,147
446,17280,20,-3328,-4638,23,-339,-167,125
447,17292,-42,-3398,-4652,23,-355,-175,143
448,17310,34,-3452,-4640,23,-351,-147,124
449,17348,-24,-3416,-4668,23,-347,-146,140
450,17284,46,-3392,-4652,23,-359,-143,124
451,17316,12,-3252,-4655,23,-333,-163,131
452,17320,-58,-3412,-4655,23,-348,-142,142
453,17300,2,-3322,-4655,23,-340,-151,131
454,17282,-24,-3334,-4656,23,-357,-168,138
455,17232,28,-3334,-4648,23,-348,-148,139
456,17326,-56,-3464,-4657,23,-341,-148,127
457,17188,0,-3462,-4659,23,-363,-159,137
458,17318,-24,-3348,-4650,23,-345,-173,135
459,17312,60,-3386,-4650,23,-354,-146,125
460,17222,-24,-3336,-4651,23,-349,-173,148
461,17246,-84,-3474,-4665,23,-342,-152,156
462,17254,38,-3394,-4665,23,-348,-154,147
463,17304,-54,-3442,-4654,23,-345,-141,126
464,17268,24,-3348,-4646,23,-353,-137,138
465,17242,-46,-3390,-4654,23,-341,-159,140
466,17244,10,-3308,-4641,23,-350,-151,157
467,17292,-20,-3292,-4661,23,-340,-158,149
468,17292,-10,-3388,-4660,23,-351,-144,142
469,17250,20,-3510,-4655,23,-355,-150,131
470,17270,6,-3480,-4661,23,-360,-145,148
471,17342,72,-3320,-4654,23,-351,-153,153
472,17294,-58,-3340,-4647,23,-361,-159,147
473,17186,8,-3450,-4657,23,-356,-144,137
474,17252,22,-3332,-4640,23,-354,-159,140
475,17294,46,-3226,-4654,23,-339,-145,138
476,17326,-38,-3372,-4648,23,-337,-154,156
477,17300,68,-3368,-4648,23,-358,-161,154
478,17296,46,-3428,-4663,23,-350,-156,145
479,17270,118,-3428,-4661,23,-356,-137,144
480,17268,-16,-3382,-4668,23,-349,-142,145
481,17306,8,-3450,-4647,23,-339,-153,140
482,17270,-18,-3266,-4646,23,-356,-154,132
483,17266,-18,-3404,-4667,23,-335,-147,130
484,17262,6,-3310,-4648,23,-348,-157,142
485,17298,-40,-3302,-4661,23,-346,-157,132
486,17248,8,-3380,-4650,23,-346,-144,144
487,17322,-8,-3334,-4655,23,-361,-146,139
488,17176,34,-3348,-4668,23,-349,-145,144
489,17242,30,-3416,-4656,23,-351,-144,128
490,17284,56,-3316,-4649,23,-338,-127,125
491,17266,-66,-3438,-4650,23,-369,-153,144
492,17182,42,-3280,-4658,23,-366,-150,132
493,17308,62,-3414,-4647,23,-345,-154,147
494,17196,10,-3434,-4654,23,-364,-146,137
495,17258,58,-3444,-4638,23,-350,-156,159
496,17248,18,-3328,-4652,23,-346,-143,142
497,17234,-42,-3460,-4652,23,-350,-167,147
498,17244,-4,-3386,-4663,23,-339,-156,144
499,17302,-12,-3462,-4646,23,-350,-152,148
500,17254,-30,-3390,-4648,23,-339,-154,147
501,17270,-118,-3466,-4647,23,-343,-164,141
502,17278,-32,-3322,-4661,23,-364,-172,138
503,17346,-44,-3358,-4653,23,-358,-131,149
504,17352,30,-3524,-4664,23,-337,-136,130
505,17256,8,-3410,-4655,23,-346,-167,139
506,17266,-22,-3394,-4657,23,-352,-148,139
507,17324,16,-3338,-4651,23,-339,-165,153
508,17296,-124,-3464,-4643,23,-357,-149,140
509,17306,-8,-3416,-4658,23,-353,-149,156
510,17310,4,-3452,-4652,23,-350,-155,144
511,17254,108,-3390,-4648,23,-346,-142,140
512,17200,-34,-3364,-4649,23,-350,-152,166
513,17286,36,-3490,-4653,23,-344,-142,120
514,17296,2,-3402,-4659,23,-348,-154,142
515,17242,30,-3388,-4661,23,-348,-177,145
516,17296,12,-3400,-4643,23,-345,-140,148
517,17320,46,-3410,-4650,23,-341,-156,141
518,17172,24,-3308,-4653,23,-330,-138,139
519,17306,18,-3364,-4661,23,-360,-143,131
520,17298,80,-3408,-4653,23,-351,-146,148
521,17224,-48,-3368,-4650,23,-334,-155,147
522,17312,4,-3308,-4647,23,-346,-152,148
523,17314,-34,-3294,-4658,23,-341,-142,140
524,17294,18,-3370,-4637,23,-363,-146,145
525,17206,-10,-3312,-4649,23,-362,-155,122
526,17202,0,-3424,-4658,23,-354,-143,141
527,17212,-54,-3478,-4657,23,-360,-145,129
528,17266,80,-3404,-4668,23,-349,-156,154
529,17260,64,-3516,-4647,23,-350,-146,137
530,17326,-42,-3492,-4659,23,-345,-142,150
531,17270,-18,-3464,-4654,23,-339,-125,146
532,17290,-44,-3488,-4634,23,-342,-149,162
533,17288,50,-3392,-4657,23,-337,-150,139
534,17284,-12,-3250,-4641,23,-347,-138,138
535,17262,-30,-3474,-4648,23,-347,-144,142
536,17298,44,-3406,-4658,23,-351,-142,131
537,17262,-30,-3416,-4655,23,-346,-158,146
538,17338,-42,-3282,-4642,23,-349,-162,137
539,17208,-52,-3414,-4655,23,-357,-142,146
540,17184,18,-3404,-4644,23,-342,-128,145
541,17280,60,-3466,-4670,23,-361,-144,128
542,17324,-32,-3474,-4645,23,-341,-169,137
543,17230,48,-3338,-4649,23,-337,-144,147
544,17218,-10,-3418,-4654,23,-342,-157,148
545,17222,-54,-3282,-4651,23,-366,-152,140
546,17242,88,-3482,-4663,23,-334,-154,139
547,17282,-18,-3426,-4658,23,-361,-146,126
548,17202,-40,-3378,-4654,23,-351,-158,134
549,17252,30,-3418,-4647,23,-348,-159,140
550,17278,-34,-3360,-4655,23,-358,-149,140
551,17264,-20,-3402,-4644,23,-353,-145,137
552,17278,26,-3364,-4649,23,-338,-151,149
553,17296,-36,-3410,-4648,23,-343,-149,127
554,17260,16,-3274,-4660,23,-341,-157,142
555,17276,10,-3278,-4647,23,-342,-148,137
556,17292,-44,-3446,-4659,23,-327,-147,133
557,17210,-28,-3274,-4645,23,-350,-150,132
558,17232,-38,-3380,-4652,23,-324,-144,129
559,17360,48,-3396,-4643,23,-344,-151,158
560,17266,20,-3448,-4656,23,-321,-142,130
561,17320,46,-3534,-4654,23,-341,-153,137
562,17226,2,-3244,-4643,23,-356,-140,142
563,17358,-68,-3394,-4647,23,-331,-150,120
564,17324,40,-3254,-4644,23,-352,-137,124
565,17318,0,-3346,-4635,23,-329,-151,129
566,17268,18,-3220,-4641,23,-341,-152,130
567,17282,24,-3352,-4658,23,-360,-150,150
568,17218,14,-3406,-4652,23,-367,-176,132
569,17304,-28,-3460,-4645,23,-352,-160,145
570,17302,-8,-3494,-4655,23,-341,-146,122
571,17332,22,-3422,-4668,23,-353,-152,134
572,17238,-28,-3410,-4652,23,-344,-145,142
573,17262,-54,-3324,-4640,23,-348,-162,137
574,17314,-22,-3396,-4651,23,-353,-145,146
575,17228,-6,-3346,-4659,23,-353,-141,143
576,17258,24,-3500,-4652,23,-348,-141,147
577,17326,4,-3460,-4641,23,-349,-159,158
578,17218,-74,-3462,-4651,23,-346,-156,143
579,17274,52,-3280,-4651,23,-335,-140,150
580,17404,-42,-3404,-4632,23,-370,-145,136
581,17304,50,-3468,-4647,23,-347,-153,141
582,17292,48,-3392,-4654,23,-341,-164,141
583,17266,24,-3468,-4658,23,-347,-149,142
584,17320,-26,-3430,-4658,23,-351,-164,142
585,17292,14,-3394,-4645,23,-359,-158,140
586,17262,22,-3214,-4659,23,-343,-150,126
587,17338,34,-3358,-4654,23,-335,-154,155
588,17336,-2,-3398,-4650,23,-336,-159,143
589,17260,-36,-3446,-4656,23,-344,-148,134
590,17266,-12,-3332,-4660,23,-345,-161,133
591,17350,42,-3288,-4657,23,-322,-151,141
592,17238,30,-3430,-4661,23,-356,-142,147
593,17334,-40,-3456,-4671,23,-344,-147,135
594,17310,-6,-3344,-4649,23,-345,-161,134
595,17286,12,-3376,-4644,23,-352,-168,135
596,17240,-38,-3450,-4653,23,-351,-130,143
597,17240,8,-3346,-4651,23,-366,-170,152
598,17336,44,-3306,-4651,23,-362,-131,149
599,17346,-26,-3406,-4655,23,-353,-148,145
600,17206,54,-3454,-4648,23,-359,-161,141
601,17260,-40,-3390,-4647,23,-332,-145,145
602,17270,44,-3446,-4659,23,-341,-144,156
603,17256,82,-3346,-4654,23,-352,-165,159
604,17190,-26,-3432,-4648,23,-372,-144,150
605,17232,18,-3354,-4652,23,-340,-175,139
606,17276,32,-3442,-4649,23,-342,-147,119
607,17330,-10,-3440,-4658,23,-341,-161,156
608,17244,-32,-3588,-4643,23,-337,-139,136
609,17268,-40,-3384,-4647,23,-341,-135,136
610,17284,22,-3390,-4655,23,-355,-145,145
611,17234,-28,-3408,-4654,23,-344,-155,131
612,17248,-42,-3418,-4641,23,-353,-143,143
613,17260,50,-3400,-4653,23,-359,-146,151
614,17304,86,-3410,-4644,23,-332,-138,141
615,17258,34,-3462,-4657,23,-364,-159,128
616,17272,-30,-3252,-4659,23,-349,-152,137
617,17222,-32,-3400,-4643,23,-360,-144,140
618,17322,18,-3386,-4650,23,-339,-154,132
619,17230,60,-3288,-4652,23,-361,-148,135
620,17208,12,-3434,-4656,23,-348,-147,131
621,17312,8,-3392,-4651,23,-344,-151,134
622,17250,-18,-3336,-4652,23,-344,-148,139
623,17312,28,-3334,-4639,23,-347,-146,126
624,17236,-18,-3406,-4656,23,-362,-157,146
625,17284,-44,-3386,-4657,23,-348,-159,129
626,17234,28,-3374,-4646,23,-346,-153,136
627,17318,-38,-3388,-4644,23,-361,-155,143
628,17296,22,-3376,-4652,23,-347,-152,137
629,17324,-32,-3464,-4646,23,-352,-153,137
630,17244,10,-3346,-4647,23,-350,-168,156
631,17282,28,-3474,-4658,23,-347,-154,142
632,17324,-4,-3318,-4652,23,-356,-160,139
633,17272,54,-3466,-4657,23,-349,-159,146
634,17284,122,-3402,-4642,23,-341,-155,142
635,17256,124,-3340,-4641,23,-367,-145,139
636,17290,12,-3368,-4640,23,-366,-144,130
637,17236,6,-3388,-4665,23,-369,-165,136
638,17224,66,-3344,-4665,23,-350,-163,135
639,17288,-10,-3378,-4639,23,-353,-152,120
640,17292,-8,-3382,-4657,23,-342,-143,133
641,17294,32,-3346,-4649,23,-347,-160,123
642,17212,8,-3282,-4656,23,-335,-149,132
643,17236,80,-3346,-4655,23,-365,-159,140
644,17248,-30,-3464,-4648,23,-338,-161,135
645,17200,26,-3388,-4646,23,-351,-148,158
646,17218,12,-3478,-4646,23,-351,-135,142
647,17234,88,-3496,-4659,23,-350,-135,152
648,17250,10,-3342,-4646,23,-354,-148,135
649,17268,-32,-3380,-4649,23,-357,-136,123
650,17228,20,-3456,-4647,23,-340,-165,140
651,17236,28,-3554,-4646,23,-322,-141,131
652,17286,86,-3410,-4658,23,-352,-171,154
653,17266,-8,-3440,-4642,23,-329,-136,135
654,17270,36,-3464,-4653,23,-351,-172,157
655,17266,-36,-3356,-4648,23,-337,-146,134
656,17306,10,-3450,-4655,23,-338,-140,146
657,17288,4,-3290,-4645,23,-350,-158,147
658,17260,10,-3296,-4658,23,-344,-147,137
659,17212,60,-3508,-4640,23,-348,-147,156
660,17244,42,-3316,-4657,23,-337,-151,142
661,17286,-80,-3558,-4657,23,-354,-157,142
662,17252,18,-3442,-4651,23,-337,-151,149
663,17300,74,-3382,-4648,23,-362,-138,133
664,17254,-28,-3340,-4660,23,-346,-137,135
665,17264,74,-3420,-4650,23,-344,-138,146
666,17256,-28,-3340,-4652,23,-335,-156,149
667,17234,32,-3440,-4653,23,-337,-142,139
668,17302,-28,-3278,-4647,23,-335,-140,125
669,17306,6,-3222,-4650,23,-372,-143,148
670,17312,30,-3426,-4657,23,-344,-144,135
671,17312,52,-3428,-4638,23,-350,-159,126
672,17352,8,-3472,-4662,23,-341,-148,141
673,17272,50,-3404,-4638,23,-348,-143,129
674,17338,18,-3506,-4643,23,-332,-156,141
675,17248,-10,-3368,-4650,23,-343,-154,133
676,17292,80,-3388,-4662,23,-339,-144,137
677,17264,118,-3336,-4661,23,-354,-160,153
678,17202,86,-3378,-4642,23,-346,-173,135
679,17324,-14,-3432,-4634,23,-359,-154,149
680,17212,-34,-3430,-4657,23,-346,-167,127
681,17238,10,-3410,-4650,23,-345,-147,138
682,17256,-16,-3334,-4647,23,-347,-146,159
683,17178,74,-3374,-4661,23,-351,-138,150
684,17296,98,-3326,-4645,23,-334,-158,141
685,17276,6,-3340,-4646,23,-358,-151,138
686,17278,-62,-3358,-4640,23,-341,-147,148
687,17238,40,-3462,-4656,23,-334,-131,148
688,17290,-58,-3424,-4641,23,-346,-151,147
689,17290,-8,-3414,-4642,23,-347,-143,156
690,17326,-48,-3426,-4648,23,-348,-160,132
691,17272,-28,-3352,-4653,23,-338,-146,136
692,17208,-88,-3396,-4638,23,-349,-138,132
693,17290,0,-3380,-4646,23,-344,-138,133
694,17336,64,-3334,-4649,23,-336,-172,147
695,17270,-56,-3280,-4649,23,-344,-161,129
696,17330,-12,-3388,-4655,23,-344,-139,141
697,17328,-26,-3298,-4652,23,-357,-141,140
698,17268,18,-3350,-4643,23,-349,-160,126
699,17204,10,-3508,-4653,23,-331,-156,149
700,17316,-4,-3466,-4653,23,-352,-152,145
701,17234,-82,-3474,-4649,23,-336,-142,135
702,17264,12,-3436,-4647,23,-342,-150,143
703,17262,-76,-3388,-4635,23,-350,-169,135
704,17262,20,-3388,-4655,23,-353,-158,140
705,17260,38,-3392,-4650,23,-346,-153,138
706,17304,-54,-3454,-4639,23,-353,-136,143
707,17294,22,-3460,-4646,23,-355,-139,134
708,17304,8,-3464,-4635,23,-349,-167,151
709,17242,-50,-3390,-4645,23,-338,-138,127
710,17182,8,-3358,-4640,23,-344,-145,134
711,17228,-52,-3460,-4635,23,-362,-166,125
712,17320,-16,-3462,-4642,23,-336,-130,134
713,17352,-16,-3386,-4657,23,-333,-168,137
714,17252,-30,-3430,-4650,23,-336,-155,146
715,17276,66,-3332,-4657,23,-354,-155,126
716,17192,-52,-3348,-4649,23,-346,-151,147
717,17344,54,-3476,-4653,23,-355,-165,125
718,17262,-78,-3376,-4643,23,-353,-154,147
719,17344,28,-3376,-4646,23,-333,-162,140
720,17364,-46,-3356,-4651,23,-335,-154,142
721,17276,-68,-3376,-4659,23,-334,-137,137
722,17318,86,-3392,-4668,23,-330,-143,144
723,17324,16,-3282,-4644,23,-344,-154,128
724,17210,24,-3432,-4651,23,-354,-145,126
725,17228,-46,-3352,-4648,23,-333,-153,140
726,17214,-2,-3412,-4659,23,-333,-141,134
727,17286,54,-3386,-4662,23,-326,-150,149
728,17342,-20,-3420,-4647,23,-348,-134,137
729,17266,26,-3378,-4658,23,-350,-149,146
730,17300,-56,-3328,-4656,23,-345,-157,165
731,17272,72,-3398,-4642,23,-348,-143,149
732,17304,26,-3408,-4657,23,-349,-164,132
733,17264,20,-3400,-4647,23,-322,-157,138
734,17316,14,-3430,-4650,23,-344,-147,147
735,17262,4,-3336,-4653,23,-331,-145,154
736,17298,36,-3420,-4646,23,-336,-163,127
737,17278,70,-3476,-4630,23,-348,-152,138
738,17234,30,-3464,-4649,23,-344,-148,140
739,17286,86,-3472,-4657,23,-350,-132,144
740,17274,16,-3422,-4649,23,-354,-157,137
741,17270,56,-3368,-4640,23,-343,-148,142
742,17248,18,-3396,-4649,23,-335,-124,147
743,17204,-6,-3432,-4656,23,-354,-149,138
744,17242,56,-3348,-4656,23,-336,-153,146
745,17286,32,-3452,-4658,23,-340,-139,154
746,17234,-34,-3382,-4644,23,-337,-137,125
747,17294,44,-3378,-4643,23,-364,-166,129
748,17268,-44,-3306,-4650,23,-350,-156,135
749,17286,-80,-3390,-4655,23,-339,-170,123
750,17222,68,-3432,-4642,23,-339,-162,158
751,17284,48,-3322,-4636,23,-340,-150,138
752,17258,-16,-3268,-4641,23,-341,-158,131
753,17348,-16,-3326,-4661,23,-351,-148,145
754,17270,-12,-3374,-4646,23,-341,-150,140
755,17306,14,-3370,-4642,23,-346,-163,139
756,17314,38,-3370,-4661,23,-346,-154,151
757,17292,16,-3390,-4650,23,-354,-164,146
758,17262,36,-3366,-4628,23,-337,-140,149
759,17236,26,-3370,-4642,23,-333,-145,137
760,17288,24,-3416,-4654,23,-344,-127,140
761,17190,6,-3378,-4642,23,-338,-178,136
762,17200,42,-3390,-4652,23,-357,-166,138
763,17328,70,-3514,-4635,23,-354,-164,147
764,17230,42,-3300,-4654,23,-342,-158,144
765,17248,-14,-3554,-4649,23,-333,-157,152
766,17284,2,-3434,-4655,23,-357,-130,155
767,17264,44,-3464,-4652,23,-345,-137,143
768,17266,10,-3362,-4646,23,-356,-151,132
769,17264,42,-3532,-4632,23,-334,-154,143
770,17292,26,-3282,-4643,23,-343,-170,123
771,17334,24,-3492,-4649,23,-350,-156,134
772,17278,92,-3336,-4647,23,-359,-146,135
773,17264,48,-3418,-4656,23,-345,-145,138
774,17224,52,-3358,-4642,23,-347,-169,134
775,17332,86,-3460,-4639,23,-343,-169,149
776,17230,-14,-3364,-4642,23,-352,-160,135
777,17320,-54,-3344,-4653,23,-343,-169,148
778,17284,18,-3422,-4654,23,-359,-149,148
779,17224,26,-3378,-4636,23,-370,-156,137
780,17256,-8,-3284,-4649,23,-338,-141,129
781,17248,-18,-3408,-4652,23,-352,-158,147
782,17284,-42,-3434,-4659,23,-349,-159,141
783,17304,16,-3406,-4652,23,-337,-156,142
784,17336,72,-3336,-4649,23,-330,-172,149
785,17306,56,-3410,-4640,23,-360,-165,159
786,17266,36,-3356,-4647,23,-337,-152,148
787,17264,14,-3412,-4651,23,-359,-166,127
788,17248,-34,-3392,-4651,23,-339,-168,149
789,17270,-24,-3202,-4647,23,-352,-156,129
790,17274,62,-3426,-4641,23,-337,-130,136
791,17348,2,-3462,-4645,23,-334,-154,135
792,17252,-10,-3436,-4654,23,-364,-155,136
793,17354,36,-3378,-4625,23,-346,-169,146
794,17274,-18,-3404,-4648,23,-349,-164,144
795,17336,84,-3432,-4641,23,-350,-155,139
796,17250,-26,-3314,-4643,23,-363,-150,146
797,17170,-28,-3334,-4647,23,-356,-149,134
798,17362,14,-3316,-4644,23,-358,-149,143
799,17188,-2,-3546,-4633,23,-352,-172,145
800,17328,4,-3528,-4646,23,-354,-145,148
801,17284,38,-3356,-4641,23,-338,-125,132
802,17256,56,-3358,-4631,23,-341,-141,144
803,17342,56,-3382,-4654,23,-346,-149,162
804,17226,78,-3344,-4650,23,-340,-149,133
805,17266,112,-3420,-4660,23,-328,-144,144
806,17240,14,-3280,-4641,23,-337,-149,161
807,17206,-32,-3332,-4650,23,-345,-160,126
808,17254,-10,-3534,-4652,23,-356,-145,136
809,17218,-18,-3390,-4645,23,-341,-148,139
810,17182,-30,-3466,-4655,23,-334,-171,128
811,17240,-30,-3324,-4652,23,-348,-140,113
812,17176,12,-3444,-4642,23,-361,-133,150
813,17244,82,-3452,-4645,23,-335,-137,147
814,17254,28,-3372,-4647,23,-369,-149,146
815,17258,102,-3440,-4645,23,-358,-151,142
816,17286,26,-3396,-4656,23,-339,-154,145
817,17262,60,-3292,-4638,23,-367,-141,135
818,17240,-2,-3450,-4647,23,-354,-155,122
819,17284,12,-3420,-4667,23,-340,-154,140
820,17304,16,-3280,-4656,23,-353,-148,140
821,17240,-8,-3394,-4637,23,-362,-157,157
822,17304,42,-3426,-4658,23,-338,-140,135
823,17278,-62,-3414,-4637,23,-349,-145,144
824,17330,12,-3472,-4648,23,-366,-161,150
825,17364,-22,-3360,-4653,23,-353,-139,134
826,17320,34,-3304,-4649,23,-333,-159,149
827,17264,0,-3562,-4646,23,-345,-141,143
828,17238,-16,-3366,-4647,23,-356,-152,150
829,17232,0,-3330,-4647,23,-350,-178,134
830,17268,36,-3352,-4668,23,-343,-168,145
831,17208,46,-3362,-4637,23,-342,-156,132
832,17240,0,-3372,-4656,23,-357,-157,129
833,17252,-44,-3320,-4641,23,-337,-155,140
834,17228,34,-3362,-4649,23,-348,-157,140
835,17290,98,-3486,-4642,23,-335,-145,149
836,17240,24,-3450,-4657,23,-357,-139,146
837,17206,-36,-3414,-4640,23,-350,-131,133
838,17312,0,-3412,-4660,23,-359,-147,145
839,17264,12,-3446,-4654,23,-360,-139,130
840,17296,44,-3440,-4646,23,-346,-137,147
841,17244,10,-3474,-4638,23,-341,-134,140
842,17274,-4,-3464,-4646,23,-351,-163,137
843,17254,42,-3346,-4646,23,-339,-150,147
844,17258,-2,-3392,-4637,23,-329,-144,142
845,17274,56,-3422,-4647,23,-349,-162,145
846,17228,-28,-3346,-4646,23,-347,-161,165
847,17290,-10,-3450,-4645,23,-353,-151,147
848,17292,2,-3434,-4640,23,-348,-158,149
849,17290,2,-3372,-4650,23,-346,-158,153
850,17226,18,-3436,-4641,23,-362,-165,146
851,17336,52,-3294,-4658,23,-347,-140,139
852,17320,68,-3404,-4657,23,-344,-148,142
853,17222,74,-3440,-4650,23,-326,-148,139
854,17306,62,-3296,-4656,23,-358,-157,147
855,17282,86,-3414,-4648,23,-330,-140,149
856,17248,-40,-3478,-4649,23,-337,-148,136
857,17226,44,-3486,-4653,23,-343,-151,139
858,17300,4,-3312,-4640,23,-349,-142,152
859,17278,-6,-3342,-4634,23,-351,-151,144
860,17228,-10,-3396,-4647,23,-340,-138,141
861,17296,52,-3410,-4660,23,-360,-128,142
862,17268,-6,-3446,-4651,23,-363,-142,154
863,17214,-22,-3470,-4635,23,-358,-146,151
864,17228,-62,-3240,-4659,23,-353,-134,150
865,17232,-54,-3542,-4644,23,-338,-164,137
866,17250,28,-3390,-4645,23,-348,-148,136
867,17324,38,-3420,-4647,23,-351,-150,129
868,17306,30,-3332,-4646,23,-344,-131,148
869,17262,50,-3520,-4646,23,-351,-153,144
870,17284,-42,-3266,-4634,23,-355,-145,164
871,17224,-6,-3354,-4642,23,-359,-159,130
872,17270,124,-3440,-4654,23,-361,-153,157
873,17236,-28,-3318,-4651,23,-351,-153,145
874,17340,4,-3430,-4649,23,-352,-158,144
875,17322,24,-3386,-4659,23,-335,-154,126
876,17230,-40,-3296,-4647,23,-343,-144,152
877,17230,-56,-3396,-4645,23,-362,-144,129
878,17284,-18,-3446,-4646,23,-349,-149,150
879,17304,62,-3450,-4643,23,-357,-150,138
880,17312,24,-3346,-4652,23,-357,-154,140
881,17220,-36,-3418,-4629,23,-352,-153,116
882,17308,28,-3382,-4654,23,-340,-157,143
883,17296,28,-3418,-4654,23,-344,-138,132
884,17212,54,-3352,-4641,23,-348,-141,145
885,17336,88,-3438,-4648,23,-351,-155,140
886,17280,10,-3426,-4663,23,-338,-170,143
887,17268,114,-3418,-4653,23,-354,-150,158
888,17260,-6,-3364,-4652,23,-334,-147,139
889,17272,-12,-3254,-4651,23,-348,-144,135
890,17296,14,-3440,-4649,23,-336,-135,147
891,17278,0,-3368,-4644,23,-343,-155,143
892,17294,50,-3390,-4644,23,-335,-150,137
893,17356,22,-3416,-4643,23,-350,-145,146
894,17346,-26,-3404,-4646,23,-348,-154,143
895,17360,-76,-3400,-4648,23,-337,-148,131
896,17300,-40,-3466,-4648,23,-358,-149,141
897,17368,-26,-3408,-4637,23,-366,-152,143
898,17292,-32,-3348,-4647,23,-344,-159,143
899,17242,98,-3482,-4649,23,-344,-160,149
900,17210,-24,-3514,-4656,23,-357,-143,123
901,17224,-12,-3472,-4643,23,-360,-140,150
902,17256,8,-3250,-4660,23,-342,-130,131
903,17308,44,-3476,-4638,23,-336,-143,129
904,17330,2,-3472,-4645,23,-344,-166,144
905,17282,10,-3376,-4660,23,-355,-147,151
906,17236,-68,-3394,-4649,23,-351,-155,133
907,17266,4,-3444,-4651,23,-336,-159,152
908,17332,-38,-3538,-4644,23,-346,-158,137
909,17242,18,-3202,-4645,23,-348,-137,122
910,17322,-24,-3434,-4649,23,-352,-158,135
911,17344,-28,-3468,-4647,23,-333,-159,157
912,17264,-70,-3456,-4645,23,-345,-129,143
913,17318,-44,-3300,-4648,23,-339,-160,146
914,17260,-12,-3398,-4642,23,-355,-159,136
915,17304,30,-3450,-4641,23,-339,-163,151
916,17294,122,-3384,-4645,23,-344,-156,137
917,17186,14,-3446,-4657,23,-346,-149,141
918,17280,26,-3296,-4643,23,-359,-157,147
919,17300,-52,-3354,-4632,23,-345,-162,123
920,17302,-10,-3384,-4642,23,-338,-164,137
921,17308,-88,-3484,-4645,23,-336,-148,135
922,17290,-32,-3378,-4649,23,-331,-150,139
923,17286,-30,-3430,-4643,23,-361,-146,127
924,17262,12,-3392,-4640,23,-343,-142,149
925,17328,-48,-3382,-4642,23,-354,-151,122
926,17302,60,-3462,-4638,23,-365,-168,130
927,17358,0,-3312,-4638,23,-343,-144,128
928,17264,58,-3376,-4651,23,-345,-141,126
929,17296,10,-3424,-4640,23,-341,-140,144
930,17294,-34,-3366,-4642,23,-348,-142,127
931,17356,-12,-3432,-4641,23,-355,-150,156
932,17240,46,-3340,-4643,23,-348,-129,126
933,17244,16,-3408,-4637,23,-342,-149,138
934,17296,40,-3406,-4653,23,-346,-152,136
935,17292,16,-3384,-4648,23,-361,-168,135
936,17264,14,-3354,-4648,23,-351,-154,139
937,17298,-14,-3436,-4645,23,-357,-171,130
938,17340,52,-3340,-4645,23,-347,-142,135
939,17316,-40,-3474,-4656,23,-363,-159,139
940,17228,-50,-3338,-4648,23,-321,-171,143
941,17294,-6,-3402,-4638,23,-356,-157,146
942,17240,10,-3430,-4648,23,-344,-144,140
943,17326,-6,-3352,-4641,23,-346,-169,131
944,17280,34,-3436,-4632,23,-351,-144,145
945,17288,-76,-3536,-4637,23,-362,-139,140
946,17202,50,-3442,-4644,23,-333,-149,136
947,17314,64,-3402,-4652,23,-346,-138,156
948,17268,-20,-3408,-4643,23,-324,-156,136
949,17258,72,-3392,-4649,23,-335,-143,144
950,17278,76,-3428,-4661,23,-346,-152,138
951,17330,-10,-3464,-4656,23,-368,-145,144
952,17262,32,-3310,-4659,23,-355,-161,148
953,17318,-6,-3364,-4640,23,-355,-155,144
954,17312,80,-3354,-4643,23,-334,-146,154
955,17234,20,-3494,-4652,23,-342,-138,114
956,17174,-2,-3468,-4642,23,-332,-159,136
957,17238,36,-3318,-4646,23,-331,-139,135
958,17280,94,-3316,-4637,23,-371,-137,159
959,17260,-14,-3338,-4647,23,-362,-145,155
960,17314,10,-3500,-4656,23,-346,-142,118
961,17234,-10,-3438,-4642,23,-349,-146,140
962,17228,44,-3448,-4647,23,-355,-159,143
963,17288,52,-3304,-4649,23,-339,-155,129
964,17316,40,-3448,-4675,23,-337,-144,130
965,17330,-10,-3348,-4647,23,-363,-153,133
966,17312,-16,-3446,-4637,23,-349,-153,135
967,17234,12,-3422,-4650,23,-344,-131,148
968,17238,-18,-3376,-4644,23,-350,-130,140
969,17288,-12,-3390,-4643,23,-348,-165,141
970,17310,6,-3458,-4646,23,-354,-160,149
971,17284,-20,-3298,-4644,23,-368,-140,140
972,17316,-8,-3438,-4659,23,-344,-138,136
973,17290,46,-3370,-4645,23,-351,-154,144
974,17274,-10,-3400,-4648,23,-344,-132,132
975,17298,32,-3418,-4652,23,-348,-186,132
976,17232,4,-3320,-4655,23,-340,-158,146
977,17226,10,-3408,-4646,23,-347,-142,123
978,17406,32,-3520,-4641,23,-338,-152,143
979,17248,32,-3396,-4643,23,-349,-142,132
980,17258,16,-3302,-4651,23,-349,-151,126
981,17358,-34,-3392,-4646,23,-341,-166,120
982,17306,-14,-3352,-4657,23,-352,-164,144
983,17148,-20,-3452,-4641,23,-346,-153,138
984,17296,58,-3448,-4636,23,-341,-156,155
985,17328,-8,-3396,-4638,23,-320,-165,140
986,17296,-28,-3442,-4644,23,-364,-171,140
987,17240,46,-3376,-4626,23,-356,-174,132
988,17314,8,-3420,-4650,23,-353,-160,147
989,17344,28,-3396,-4638,23,-345,-142,142
990,17218,30,-3440,-4648,23,-351,-172,141
991,17238,18,-3388,-4648,23,-350,-158,128
992,17332,8,-3296,-4639,23,-342,-147,151
993,17320,46,-3342,-4634,23,-342,-148,152
994,17344,2,-3426,-4642,23,-344,-162,147
995,17228,-40,-3484,-4649,23,-344,-165,124
996,17232,44,-3424,-4644,23,-365,-164,133
997,17206,-30,-3466,-4636,23,-357,-164,155
998,17256,6,-3418,-4647,23,-335,-143,139
