,acc_X,acc_Y,acc_Z,temp,tempC,gyr_X,gyr_Y,gyr_Z
0,17342,50,-3320,-4681,23,-44,-19,16
1,17270,94,-3446,-4674,23,-42,-18,18
2,17298,-12,-3352,-4686,23,-44,-21,16
3,17262,40,-3342,-4688,23,-43,-17,18
4,17412,28,-3500,-4675,23,-45,-19,18
5,17186,-14,-3462,-4672,23,-44,-20,16
6,17254,10,-3412,-4670,23,-43,-17,16
7,17264,118,-3360,-4670,23,-43,-19,17
8,17336,-2,-3284,-4666,23,-43,-16,16
9,17280,68,-3362,-4676,23,-45,-21,15
10,17326,-26,-3468,-4664,23,-44,-20,16
11,17286,-62,-3332,-4678,23,-42,-18,17
12,17308,54,-3412,-4677,23,-44,-20,19
13,17358,62,-3310,-4676,23,-43,-20,18
14,17250,14,-3504,-4676,23,-44,-22,18
15,17278,-36,-3548,-4678,23,-46,-18,18
16,17318,0,-3472,-4670,23,-44,-18,18
17,17340,-78,-3478,-4676,23,-45,-18,16
18,17248,20,-3378,-4676,23,-44,-19,16
19,17322,-48,-3478,-4681,23,-45,-17,18
20,17254,-22,-3308,-4664,23,-43,-17,16
21,17358,-4,-3416,-4676,23,-44,-21,17
22,17222,-10,-3498,-4666,23,-43,-21,17
23,17310,92,-3414,-4669,23,-43,-20,17
24,17332,-2,-3460,-4688,23,-43,-19,19
25,17304,-14,-3358,-4672,23,-46,-20,16
26,17276,-4,-3366,-4677,23,-44,-19,17
27,17302,6,-3372,-4681,23,-46,-19,16
28,17354,-60,-3462,-4673,23,-45,-17,16
29,17222,-78,-3474,-4661,23,-46,-18,18
30,17288,52,-3326,-4671,23,-44,-21,16
31,17242,-34,-3318,-4674,23,-42,-19,18
32,17256,22,-3346,-4674,23,-45,-18,17
33,17264,14,-3370,-4681,23,-45,-19,15
34,17328,44,-3468,-4682,23,-45,-17,19
35,17296,28,-3420,-4676,23,-45,-19,18
36,17286,48,-3468,-4680,23,-45,-18,20
37,17258,68,-3436,-4690,23,-43,-19,16
38,17248,58,-3282,-4674,23,-44,-20,16
39,17260,10,-3412,-4677,23,-43,-17,18
40,17290,6,-3330,-4668,23,-44,-18,17
41,17236,4,-3390,-4670,23,-45,-21,18
42,17278,-38,-3438,-4660,23,-44,-19,18
43,17248,-6,-3428,-4673,23,-45,-18,17
44,17222,62,-3328,-4674,23,-45,-20,16
45,17258,0,-3404,-4664,23,-41,-19,18
46,17304,-74,-3376,-4666,23,-42,-18,17
47,17244,-2,-3458,-4681,23,-44,-18,17
48,17270,32,-3400,-4664,23,-44,-20,17
49,17226,-42,-3368,-4663,23,-43,-21,15
50,17406,92,-3330,-4663,23,-45,-16,17
51,17264,-106,-3308,-4674,23,-45,-17,16
52,17296,-40,-3404,-4667,23,-45,-20,17
53,17252,100,-3282,-4670,23,-43,-21,15
54,17192,56,-3384,-4657,23,-45,-19,16
55,17324,-56,-3414,-4673,23,-45,-18,19
56,17200,84,-3478,-4678,23,-44,-17,17
57,17308,-10,-3344,-4659,23,-44,-19,17
58,17292,38,-3326,-4671,23,-43,-23,17
59,17312,-10,-3540,-4670,23,-43,-20,17
60,17288,16,-3376,-4685,23,-43,-20,18
61,17316,0,-3490,-4674,23,-43,-19,17
62,17318,-10,-3410,-4677,23,-43,-17,16
63,17326,24,-3412,-4676,23,-45,-20,16
64,17264,20,-3400,-4681,23,-43,-21,17
65,17198,10,-3374,-4678,23,-45,-19,15
66,17338,42,-3230,-4675,23,-45,-20,16
67,17272,50,-3530,-4683,23,-43,-18,18
68,17276,12,-3418,-4678,23,-43,-21,17
69,17266,10,-3372,-4671,23,-45,-20,18
70,17314,30,-3566,-4684,23,-43,-17,16
71,17328,18,-3272,-4677,23,-45,-19,16
72,17308,36,-3316,-4656,23,-44,-19,18
73,17286,-2,-3358,-4677,23,-43,-17,16
74,17266,32,-3410,-4663,23,-43,-19,17
75,17354,-30,-3424,-4674,23,-43,-20,18
76,17250,4,-3366,-4677,23,-40,-19,17
77,17214,16,-3300,-4678,23,-43,-18,17
78,17316,20,-3372,-4672,23,-43,-19,17
79,17302,-40,-3342,-4673,23,-44,-18,19
80,17242,8,-3294,-4676,23,-42,-17,18
81,17284,-30,-3404,-4673,23,-44,-19,16
82,17250,26,-3306,-4681,23,-43,-18,17
83,17294,-8,-3326,-4660,23,-46,-19,17
84,17244,20,-3448,-4678,23,-48,-17,18
85,17304,-62,-3438,-4686,23,-46,-20,16
86,17288,28,-3460,-4668,23,-46,-18,17
87,17356,-54,-3394,-4681,23,-44,-18,16
88,17280,-56,-3330,-4669,23,-42,-21,18
89,17316,-16,-3380,-4666,23,-45,-17,15
90,17346,-28,-3384,-4667,23,-43,-21,18
91,17216,22,-3352,-4674,23,-43,-19,18
92,17256,4,-3442,-4667,23,-43,-19,16
93,17216,-28,-3296,-4658,23,-44,-21,18
94,17222,64,-3408,-4668,23,-45,-20,17
95,17222,48,-3234,-4683,23,-42,-21,18
96,17236,-68,-3352,-4693,23,-44,-20,16
97,17308,0,-3382,-4668,23,-41,-17,20
98,17244,56,-3486,-4673,23,-44,-17,17
99,17286,20,-3490,-4677,23,-42,-20,19
100,17236,-4,-3314,-4673,23,-46,-17,18
101,17224,44,-3484,-4678,23,-44,-20,16
102,17310,38,-3420,-4670,23,-43,-16,17
103,17264,64,-3272,-4665,23,-45,-20,16
104,17362,82,-3534,-4683,23,-43,-22,17
105,17332,80,-3384,-4661,23,-45,-19,18
106,17326,4,-3374,-4666,23,-45,-18,18
107,17304,-74,-3402,-4671,23,-41,-20,17
108,17238,2,-3254,-4668,23,-43,-19,18
109,17242,-34,-3378,-4678,23,-42,-18,16
110,17304,-30,-3332,-4674,23,-42,-20,18
111,17286,18,-3430,-4674,23,-44,-18,16
112,17224,0,-3332,-4667,23,-44,-19,16
113,17288,110,-3356,-4671,23,-43,-18,18
114,17214,-60,-3354,-4677,23,-45,-19,15
115,17080,-16,-3270,-4671,23,-43,-20,16
116,17346,70,-3340,-4673,23,-46,-20,17
117,17240,66,-3404,-4676,23,-44,-19,17
118,17300,110,-3470,-4664,23,-44,-19,19
119,17290,80,-3398,-4677,23,-43,-16,16
120,17282,76,-3430,-4673,23,-45,-17,18
121,17232,24,-3418,-4656,23,-44,-20,17
122,17248,100,-3288,-4669,23,-44,-22,18
123,17228,36,-3580,-4667,23,-44,-20,17
124,17230,-4,-3388,-4675,23,-44,-18,18
125,17234,26,-3428,-4671,23,-46,-17,18
126,17322,10,-3386,-4670,23,-42,-18,19
127,17374,58,-3316,-4676,23,-43,-17,16
128,17312,-54,-3382,-4669,23,-43,-19,19
129,17264,-72,-3394,-4665,23,-45,-19,17
130,17356,14,-3384,-4673,23,-46,-19,16
131,17384,46,-3408,-4670,23,-46,-19,17
132,17358,86,-3388,-4652,23,-42,-18,18
133,17302,-14,-3370,-4661,23,-42,-18,18
134,17284,-32,-3478,-4672,23,-43,-20,16
135,17212,-30,-3360,-4671,23,-45,-19,16
136,17292,18,-3388,-4678,23,-43,-22,19
137,17322,56,-3350,-4685,23,-46,-20,17
138,17320,2,-3374,-4665,23,-43,-20,18
139,17332,12,-3450,-4664,23,-48,-19,16
140,17384,20,-3396,-4680,23,-43,-19,17
141,17254,-26,-3390,-4665,23,-43,-20,16
142,17350,88,-3280,-4665,23,-45,-19,16
143,17228,20,-3340,-4680,23,-44,-17,15
144,17364,94,-3394,-4665,23,-43,-19,17
145,17292,-108,-3300,-4669,23,-43,-16,17
146,17260,-38,-3406,-4675,23,-42,-19,16
147,17236,32,-3358,-4677,23,-43,-19,16
148,17212,-58,-3424,-4677,23,-44,-20,15
149,17358,38,-3382,-4670,23,-43,-19,16
150,17260,-42,-3462,-4662,23,-46,-18,18
151,17340,24,-3456,-4668,23,-44,-21,17
152,17270,6,-3522,-4678,23,-42,-19,17
153,17288,24,-3430,-4660,23,-45,-20,18
154,17226,-4,-3280,-4676,23,-43,-20,19
155,17314,-34,-3328,-4668,23,-44,-20,15
156,17218,16,-3482,-4659,23,-47,-20,17
157,17138,-26,-3484,-4672,23,-44,-19,16
158,17170,50,-3388,-4673,23,-45,-19,15
159,17258,38,-3380,-4662,23,-43,-19,17
160,17308,-6,-3272,-4668,23,-46,-20,17
161,17314,64,-3354,-4673,23,-43,-19,17
162,17270,-42,-3398,-4680,23,-43,-21,18
163,17284,-90,-3382,-4680,23,-43,-21,18
164,17232,30,-3504,-4665,23,-46,-20,19
165,17310,8,-3418,-4672,23,-44,-20,16
166,17300,48,-3380,-4665,23,-44,-19,16
167,17312,24,-3488,-4667,23,-46,-17,18
168,17266,4,-3388,-4673,23,-43,-19,19
169,17288,20,-3366,-4666,23,-44,-20,17
170,17270,-26,-3346,-4662,23,-44,-19,17
171,17342,-8,-3368,-4671,23,-45,-19,17
172,17352,-114,-3304,-4668,23,-43,-18,17
173,17312,12,-3444,-4674,23,-43,-21,19
174,17274,38,-3442,-4663,23,-45,-20,16
175,17328,-40,-3454,-4677,23,-46,-20,16
176,17336,14,-3350,-4676,23,-45,-19,17
177,17182,80,-3382,-4672,23,-44,-21,18
178,17240,28,-3292,-4666,23,-43,-16,16
179,17260,-4,-3342,-4675,23,-43,-18,17
180,17254,48,-3372,-4663,23,-43,-20,14
181,17238,10,-3462,-4665,23,-44,-19,18
182,17276,-28,-3330,-4667,23,-42,-20,16
183,17386,-38,-3330,-4667,23,-42,-18,15
184,17282,50,-3304,-4672,23,-43,-19,18
185,17282,-38,-3388,-4681,23,-44,-19,18
186,17372,-10,-3304,-4668,23,-46,-19,17
187,17274,-42,-3388,-4663,23,-46,-20,17
188,17278,-22,-3328,-4670,23,-44,-20,16
189,17240,30,-3586,-4671,23,-43,-20,16
190,17346,56,-3322,-4667,23,-43,-19,18
191,17446,-56,-3580,-4655,23,-43,-17,17
192,17250,-90,-3470,-4665,23,-44,-19,16
193,17346,20,-3348,-4670,23,-43,-19,18
194,17278,16,-3270,-4667,23,-44,-18,18
195,17290,-50,-3556,-4671,23,-44,-21,15
196,17244,-52,-3326,-4667,23,-42,-19,17
197,17306,18,-3404,-4666,23,-45,-21,16
198,17312,-12,-3422,-4660,23,-43,-19,18
199,17264,22,-3370,-4665,23,-43,-22,16
200,17264,16,-3438,-4662,23,-45,-21,16
201,17240,78,-3432,-4669,23,-44,-19,16
202,17268,18,-3396,-4665,23,-44,-17,17
203,17262,-10,-3420,-4668,23,-44,-18,17
204,17288,98,-3406,-4677,23,-44,-21,16
205,17208,2,-3330,-4665,23,-43,-21,16
206,17274,18,-3322,-4676,23,-44,-20,17
207,17300,-22,-3364,-4653,23,-45,-20,17
208,17318,-40,-3362,-4677,23,-44,-22,19
209,17298,88,-3342,-4659,23,-43,-20,17
210,17346,-34,-3454,-4656,23,-40,-19,16
211,17234,-38,-3362,-4665,23,-43,-20,18
212,17222,-54,-3500,-4668,23,-46,-19,16
213,17276,34,-3516,-4682,23,-44,-19,16
214,17282,-28,-3298,-4667,23,-45,-19,19
215,17312,-6,-3342,-4666,23,-45,-20,16
216,17312,86,-3360,-4666,23,-46,-18,16
217,17286,22,-3272,-4662,23,-46,-20,18
218,17246,14,-3392,-4662,23,-42,-18,18
219,17232,-24,-3462,-4670,23,-43,-21,15
220,17192,-20,-3374,-4666,23,-45,-17,17
221,17216,70,-3372,-4664,23,-44,-21,18
222,17260,12,-3444,-4674,23,-43,-20,17
223,17328,24,-3342,-4665,23,-43,-21,17
224,17254,4,-3438,-4662,23,-43,-18,16
225,17236,-18,-3300,-4670,23,-45,-19,18
226,17232,22,-3370,-4660,23,-45,-18,17
227,17280,38,-3328,-4658,23,-45,-20,18
228,17260,50,-3466,-4675,23,-44,-19,16
229,17308,68,-3390,-4667,23,-45,-21,17
230,17244,4,-3414,-4663,23,-43,-19,17
231,17284,28,-3406,-4671,23,-46,-18,18
232,17334,-18,-3382,-4666,23,-43,-18,16
233,17214,-42,-3398,-4671,23,-44,-19,16
234,17332,14,-3388,-4663,23,-44,-18,17
235,17322,52,-3394,-4649,23,-45,-20,17
236,17208,-28,-3526,-4660,23,-46,-20,16
237,17204,24,-3432,-4670,23,-44,-21,16
238,17218,24,-3326,-4671,23,-42,-19,15
239,17340,8,-3334,-4655,23,-44,-18,18
240,17224,30,-3334,-4670,23,-42,-19,14
241,17292,62,-3292,-4662,23,-44,-19,18
242,17312,4,-3432,-4665,23,-44,-19,18
243,17218,-4,-3408,-4665,23,-43,-20,17
244,17388,-178,-3334,-4657,23,-46,-19,18
245,17328,-52,-3378,-4656,23,-43,-17,16
246,17298,26,-3410,-4677,23,-43,-25,17
247,17248,-16,-3324,-4672,23,-42,-17,18
248,17274,60,-3386,-4673,23,-43,-19,15
249,17306,32,-3466,-4662,23,-44,-19,16
250,17304,12,-3364,-4660,23,-43,-19,17
251,17260,10,-3352,-4657,23,-44,-23,15
252,17312,52,-3354,-4663,23,-44,-19,16
253,17298,10,-3378,-4666,23,-43,-17,17
254,17256,66,-3294,-4661,23,-43,-20,17
255,17252,-22,-3414,-4673,23,-43,-19,16
256,17270,98,-3492,-4674,23,-43,-18,17
257,17306,8,-3466,-4661,23,-45,-17,16
258,17344,6,-3420,-4672,23,-43,-17,18
259,17250,74,-3406,-4679,23,-45,-18,16
260,17266,76,-3322,-4661,23,-44,-17,18
261,17228,8,-3462,-4669,23,-44,-19,16
262,17304,74,-3452,-4673,23,-44,-18,17
263,17210,-42,-3356,-4660,23,-44,-18,19
264,17310,-50,-3384,-4673,23,-44,-17,18
265,17328,22,-3460,-4676,23,-45,-20,17
266,17174,-4,-3368,-4675,23,-45,-19,17
267,17284,30,-3350,-4672,23,-44,-20,16
268,17260,-16,-3380,-4666,23,-42,-20,16
269,17320,-12,-3402,-4668,23,-44,-17,18
270,17254,-12,-3382,-4655,23,-44,-21,16
271,17268,-4,-3374,-4660,23,-43,-19,17
272,17272,46,-3412,-4663,23,-44,-20,16
273,17294,-12,-3358,-4670,23,-44,-21,17
274,17232,18,-3406,-4680,23,-44,-19,17
275,17294,54,-3520,-4657,23,-44,-16,15
276,17226,106,-3498,-4665,23,-44,-16,17
277,17274,70,-3296,-4669,23,-44,-19,18
278,17288,78,-3368,-4661,23,-45,-19,19
279,17292,-22,-3404,-4674,23,-44,-19,17
280,17272,42,-3334,-4651,23,-43,-18,18
281,17260,22,-3466,-4662,23,-46,-16,17
282,17198,-22,-3446,-4665,23,-43,-21,17
283,17266,28,-3410,-4675,23,-43,-20,16
284,17252,30,-3364,-4666,23,-44,-20,18
285,17256,-2,-3414,-4655,23,-45,-21,16
286,17166,30,-3404,-4657,23,-43,-20,16
287,17276,12,-3402,-4678,23,-44,-19,15
288,17298,108,-3462,-4665,23,-41,-19,17
289,17240,54,-3530,-4675,23,-46,-18,16
290,17294,-20,-3482,-4683,23,-44,-19,16
291,17274,22,-3350,-4676,23,-46,-18,16
292,17272,-32,-3414,-4655,23,-45,-18,16
293,17258,-86,-3316,-4673,23,-45,-19,18
294,17270,-2,-3424,-4655,23,-43,-18,17
295,17286,-12,-3366,-4670,23,-45,-20,16
296,17250,56,-3444,-4673,23,-44,-19,18
297,17204,-60,-3310,-4658,23,-45,-18,17
298,17264,8,-3386,-4663,23,-42,-17,19
299,17280,12,-3364,-4677,23,-42,-18,16
300,17274,-42,-3352,-4660,23,-43,-20,16
301,17346,-2,-3290,-4669,23,-43,-19,17
302,17292,-2,-3500,-4668,23,-43,-22,15
303,17290,26,-3338,-4656,23,-43,-18,16
304,17348,-18,-3468,-4656,23,-43,-20,16
305,17326,60,-3426,-4655,23,-47,-18,18
306,17222,-10,-3440,-4657,23,-45,-21,16
307,17264,-16,-3482,-4677,23,-44,-18,17
308,17214,14,-3346,-4681,23,-46,-18,18
309,17282,24,-3434,-4669,23,-42,-19,16
310,17240,50,-3454,-4670,23,-43,-21,17
311,17280,52,-3422,-4667,23,-44,-21,17
312,17270,56,-3296,-4671,23,-45,-17,17
313,17380,-22,-3352,-4669,23,-43,-20,15
314,17214,50,-3412,-4672,23,-44,-21,17
315,17262,-10,-3342,-4663,23,-45,-18,16
316,17342,26,-3298,-4667,23,-43,-21,16
317,17300,32,-3510,-4662,23,-43,-19,17
318,17284,62,-3320,-4664,23,-46,-18,15
319,17272,84,-3402,-4659,23,-45,-22,17
320,17284,60,-3422,-4666,23,-47,-20,17
321,17266,-26,-3380,-4676,23,-44,-19,16
322,17312,62,-3348,-4665,23,-43,-18,19
323,17334,-72,-3456,-4671,23,-43,-19,16
324,17250,32,-3282,-4667,23,-43,-18,17
325,17162,18,-3310,-4659,23,-45,-20,18
326,17354,-30,-3360,-4674,23,-43,-19,18
327,17282,-12,-3322,-4665,23,-47,-18,17
328,17232,-10,-3350,-4667,23,-45,-20,17
329,17318,32,-3388,-4667,23,-45,-20,16
330,17250,24,-3374,-4657,23,-44,-17,15
331,17318,-18,-3456,-4671,23,-43,-18,15
332,17214,-18,-3322,-4669,23,-43,-20,18
333,17242,-28,-3428,-4670,23,-45,-19,19
334,17398,66,-3364,-4662,23,-44,-20,16
335,17326,22,-3396,-4663,23,-43,-19,17
336,17234,0,-3488,-4674,23,-44,-18,17
337,17296,0,-3288,-4668,23,-44,-20,18
338,17316,-22,-3354,-4684,23,-46,-17,16
339,17318,10,-3450,-4673,23,-43,-18,17
340,17194,8,-3370,-4679,23,-43,-19,18
341,17276,-50,-3474,-4665,23,-44,-20,18
342,17334,-4,-3528,-4665,23,-45,-20,17
343,17288,4,-3236,-4668,23,-46,-19,17
344,17324,72,-3406,-4673,23,-44,-20,17
345,17348,6,-3360,-4669,23,-44,-18,19
346,17402,-62,-3208,-4670,23,-46,-19,19
347,17248,8,-3370,-4643,23,-42,-19,18
348,17304,6,-3448,-4661,23,-42,-19,17
349,17334,-8,-3446,-4666,23,-46,-18,18
350,17278,10,-3350,-4666,23,-45,-18,19
351,17262,-68,-3412,-4675,23,-45,-17,19
352,17242,58,-3402,-4676,23,-44,-19,16
353,17206,8,-3430,-4659,23,-45,-19,17
354,17330,-56,-3382,-4656,23,-43,-19,17
355,17338,22,-3352,-4671,23,-44,-21,17
356,17276,108,-3466,-4661,23,-44,-20,16
357,17274,62,-3252,-4667,23,-44,-17,18
358,17262,104,-3466,-4666,23,-43,-18,19
359,17302,-14,-3310,-4666,23,-43,-19,17
360,17190,-66,-3358,-4666,23,-45,-18,17
361,17308,-64,-3410,-4680,23,-44,-18,17
362,17338,46,-3368,-4657,23,-44,-17,18
363,17254,32,-3388,-4666,23,-46,-18,16
364,17292,28,-3436,-4676,23,-42,-20,17
365,17328,-10,-3390,-4663,23,-44,-19,18
366,17316,-14,-3406,-4659,23,-42,-19,17
367,17260,-44,-3348,-4663,23,-43,-19,18
368,17228,14,-3420,-4656,23,-41,-19,17
369,17272,30,-3430,-4656,23,-45,-19,16
370,17288,54,-3442,-4662,23,-44,-20,17
371,17256,92,-3432,-4682,23,-45,-19,17
372,17298,54,-3468,-4662,23,-43,-20,18
373,17272,40,-3416,-4665,23,-42,-19,18
374,17242,-32,-3344,-4666,23,-43,-19,18
375,17280,-2,-3392,-4666,23,-45,-18,18
376,17266,-42,-3328,-4676,23,-44,-21,15
377,17270,12,-3326,-4655,23,-44,-19,18
378,17268,28,-3432,-4668,23,-47,-20,20
379,17228,22,-3434,-4651,23,-44,-20,18
380,17250,38,-3376,-4662,23,-45,-18,17
381,17288,44,-3386,-4674,23,-45,-21,17
382,17262,6,-3410,-4666,23,-46,-18,16
383,17244,16,-3414,-4663,23,-45,-19,17
384,17308,-4,-3332,-4668,23,-43,-22,18
385,17298,12,-3396,-4676,23,-41,-20,17
386,17276,12,-3356,-4662,23,-44,-19,15
387,17270,20,-3386,-4671,23,-43,-20,16
388,17250,86,-3514,-4665,23,-43,-21,17
389,17328,2,-3364,-4671,23,-43,-19,15
390,17256,18,-3340,-4668,23,-43,-18,15
391,17382,18,-3356,-4678,23,-45,-19,16
392,17212,30,-3318,-4658,23,-45,-19,16
393,17306,-16,-3370,-4664,23,-44,-19,18
394,17296,-22,-3346,-4665,23,-44,-19,19
395,17270,-8,-3370,-4669,23,-43,-20,16
396,17272,34,-3456,-4666,23,-43,-19,18
397,17296,98,-3464,-4661,23,-44,-16,17
398,17258,20,-3434,-4657,23,-44,-19,17
399,17216,-78,-3340,-4671,23,-44,-18,17
400,17288,-38,-3406,-4673,23,-44,-20,17
401,17284,-24,-3398,-4659,23,-44,-20,18
402,17312,-26,-3388,-4674,23,-44,-20,19
403,17248,-38,-3356,-4664,23,-42,-20,17
404,17234,18,-3400,-4669,23,-44,-21,17
405,17282,-54,-3402,-4654,23,-45,-19,17
406,17276,66,-3480,-4665,23,-44,-19,18
407,17330,-8,-3448,-4674,23,-43,-17,16
408,17204,36,-3314,-4668,23,-45,-21,18
409,17214,-18,-3324,-4670,23,-43,-21,14
410,17234,4,-3404,-4681,23,-44,-18,16
411,17338,52,-3430,-4661,23,-44,-20,17
412,17298,-32,-3410,-4682,23,-44,-19,18
413,17316,-12,-3464,-4654,23,-43,-18,17
414,17242,-44,-3398,-4673,23,-46,-21,19
415,17278,42,-3416,-4668,23,-45,-19,17
416,17232,52,-3468,-4666,23,-45,-18,17
417,17250,98,-3330,-4674,23,-45,-21,17
418,17260,6,-3338,-4674,23,-44,-20,17
419,17268,28,-3350,-4666,23,-44,-19,18
420,17196,20,-3554,-4681,23,-46,-19,17
421,17212,16,-3378,-4680,23,-45,-18,17
422,17340,70,-3406,-4681,23,-43,-18,19
423,17360,104,-3292,-4681,23,-44,-18,20
424,17186,-14,-3470,-4655,23,-41,-18,17
425,17330,-30,-3382,-4663,23,-44,-18,18
426,17252,6,-3382,-4669,23,-43,-18,16
427,17284,-10,-3354,-4671,23,-42,-21,15
428,17270,-48,-3430,-4668,23,-43,-18,17
429,17296,58,-3340,-4659,23,-45,-22,17
430,17200,44,-3300,-4667,23,-44,-16,17
431,17278,-66,-3294,-4657,23,-43,-19,17
432,17306,18,-3354,-4658,23,-45,-18,17
433,17266,52,-3458,-4660,23,-42,-18,18
434,17228,-36,-3292,-4668,23,-43,-18,17
435,17244,4,-3398,-4663,23,-44,-21,17
436,17278,44,-3240,-4656,23,-45,-19,19
437,17306,18,-3476,-4655,23,-45,-20,16
438,17284,24,-3344,-4668,23,-45,-19,18
439,17268,-4,-3390,-4658,23,-41,-17,17
440,17262,0,-3348,-4664,23,-44,-22,18
441,17246,-62,-3382,-4678,23,-42,-21,16
442,17308,-46,-3468,-4660,23,-46,-20,16
443,17378,78,-3246,-4646,23,-42,-20,18
444,17302,34,-3412,-4670,23,-43,-20,17
445,17266,6,-3526,-4668,23,-43,-20,17
446,17302,2,-3474,-4666,23,-45,-20,16
447,17224,14,-3316,-4660,23,-45,-20,18
448,17262,-24,-3496,-4667,23,-46,-16,17
449,17254,36,-3528,-4676,23,-44,-18,18
450,17276,50,-3370,-4658,23,-45,-16,17
451,17280,-54,-3314,-4666,23,-45,-18,15
452,17338,-10,-3368,-4656,23,-44,-17,15
453,17278,8,-3326,-4657,23,-45,-20,17
454,17284,4,-3294,-4666,23,-43,-18,17
455,17324,-64,-3408,-4657,23,-43,-18,17
456,17314,26,-3256,-4658,23,-43,-22,17
457,17284,0,-3348,-4655,23,-43,-19,16
458,17270,72,-3424,-4655,23,-46,-19,18
459,17250,-44,-3484,-4666,23,-43,-20,17
460,17350,-32,-3458,-4674,23,-42,-19,18
461,17256,40,-3344,-4659,23,-46,-19,19
462,17320,-6,-3388,-4666,23,-43,-19,20
463,17312,-16,-3430,-4669,23,-43,-17,17
464,17254,54,-3494,-4660,23,-46,-20,18
465,17366,14,-3488,-4663,23,-44,-19,18
466,17280,30,-3458,-4665,23,-43,-20,18
467,17230,-50,-3442,-4657,23,-44,-19,16
468,17228,-12,-3374,-4656,23,-43,-18,18
469,17204,-4,-3354,-4664,23,-45,-19,17
470,17226,-40,-3334,-4668,23,-43,-20,17
471,17288,34,-3418,-4659,23,-45,-19,18
472,17286,-18,-3296,-4661,23,-47,-18,17
473,17232,46,-3452,-4649,23,-43,-23,16
474,17230,-4,-3500,-4651,23,-42,-19,16
475,17314,6,-3314,-4664,23,-45,-21,20
476,17238,-34,-3324,-4663,23,-42,-20,19
477,17330,-62,-3406,-4651,23,-43,-19,16
478,17258,-54,-3336,-4654,23,-44,-19,17
479,17318,64,-3378,-4671,23,-44,-20,17
480,17252,-12,-3376,-4660,23,-45,-22,18
481,17388,18,-3508,-4664,23,-44,-21,19
482,17344,28,-3318,-4660,23,-43,-18,18
483,17304,56,-3354,-4659,23,-41,-18,18
484,17224,70,-3432,-4658,23,-43,-19,17
485,17258,4,-3410,-4664,23,-45,-18,15
486,17324,18,-3338,-4660,23,-43,-16,18
487,17288,82,-3362,-4662,23,-45,-18,17
488,17282,36,-3310,-4656,23,-43,-17,19
489,17286,32,-3410,-4664,23,-42,-20,17
490,17210,-2,-3424,-4657,23,-42,-18,16
491,17262,38,-3518,-4671,23,-44,-20,17
492,17282,26,-3296,-4662,23,-43,-17,16
493,17280,-26,-3378,-4669,23,-43,-20,17
494,17356,-20,-3464,-4662,23,-44,-17,18
495,17218,46,-3362,-4661,23,-45,-19,15
496,17356,-4,-3276,-4653,23,-44,-17,17
497,17256,-32,-3476,-4659,23,-44,-19,18
498,17290,4,-3476,-4655,23,-43,-19,17
499,17326,-44,-3408,-4654,23,-47,-19,17
500,17324,8,-3376,-4644,23,-44,-22,17
501,17244,-50,-3466,-4670,23,-46,-18,18
502,17316,-6,-3424,-4660,23,-46,-20,17
503,17256,84,-3360,-4650,23,-45,-20,17
504,17364,-46,-3394,-4667,23,-45,-21,17
505,17254,14,-3304,-4656,23,-44,-17,17
506,17256,26,-3422,-4656,23,-42,-20,16
507,17184,-52,-3434,-4652,23,-45,-21,16
508,17314,2,-3482,-4658,23,-42,-18,17
509,17292,-26,-3500,-4651,23,-43,-18,17
510,17338,32,-3384,-4671,23,-47,-21,20
511,17282,74,-3518,-4658,23,-45,-18,16
512,17320,-62,-3300,-4661,23,-43,-19,16
513,17232,-28,-3396,-4660,23,-41,-18,17
514,17266,8,-3326,-4658,23,-45,-20,16
515,17330,-36,-3446,-4656,23,-44,-19,16
516,17308,52,-3276,-4660,23,-41,-21,18
517,17252,38,-3426,-4665,23,-44,-16,17
518,17236,16,-3432,-4675,23,-46,-20,19
519,17176,-52,-3274,-4666,23,-43,-19,17
520,17286,42,-3416,-4665,23,-41,-19,16
521,17322,-12,-3448,-4655,23,-44,-17,19
522,17354,30,-3234,-4659,23,-44,-19,18
523,17306,-46,-3428,-4674,23,-44,-19,17
524,17292,-30,-3350,-4649,23,-44,-19,16
525,17280,-16,-3508,-4667,23,-46,-21,18
526,17172,56,-3308,-4662,23,-42,-22,16
527,17314,44,-3456,-4653,23,-42,-17,17
528,17264,38,-3446,-4668,23,-45,-18,18
529,17154,-34,-3392,-4663,23,-42,-19,17
530,17352,14,-3406,-4671,23,-45,-20,13
531,17340,48,-3452,-4664,23,-44,-19,18
532,17290,-8,-3354,-4667,23,-44,-20,19
533,17292,16,-3254,-4664,23,-41,-20,16
534,17226,64,-3342,-4648,23,-46,-21,18
535,17352,92,-3448,-4675,23,-43,-21,16
536,17358,-16,-3326,-4660,23,-45,-17,16
537,17308,-26,-3462,-4662,23,-45,-19,16
538,17300,6,-3348,-4644,23,-45,-19,18
539,17274,-4,-3296,-4664,23,-42,-19,16
540,17298,32,-3320,-4669,23,-44,-18,17
541,17334,62,-3340,-4670,23,-44,-19,16
542,17298,6,-3376,-4655,23,-45,-21,17
543,17310,46,-3446,-4653,23,-45,-18,18
544,17282,-52,-3470,-4656,23,-45,-18,18
545,17338,8,-3472,-4662,23,-44,-20,18
546,17338,58,-3434,-4664,23,-46,-17,17
547,17280,-74,-3482,-4661,23,-45,-21,19
548,17334,18,-3352,-4668,23,-43,-19,16
549,17286,-2,-3444,-4655,23,-44,-19,17
550,17330,52,-3290,-4668,23,-45,-18,17
551,17288,-2,-3344,-4660,23,-43,-18,19
552,17352,-46,-3284,-4658,23,-45,-18,17
553,17328,22,-3338,-4676,23,-46,-21,17
554,17304,26,-3298,-4654,23,-45,-20,17
555,17222,52,-3410,-4661,23,-45,-22,19
556,17256,4,-3326,-4666,23,-45,-16,16
557,17342,-6,-3298,-4657,23,-45,-18,17
558,17260,-2,-3414,-4659,23,-44,-20,17
559,17362,20,-3376,-4655,23,-45,-19,19
560,17308,-68,-3372,-4659,23,-45,-18,15
561,17234,48,-3474,-4679,23,-43,-19,16
562,17274,-20,-3360,-4666,23,-44,-19,16
563,17250,16,-3362,-4665,23,-44,-18,17
564,17248,64,-3336,-4659,23,-46,-20,19
565,17278,-16,-3486,-4662,23,-45,-18,16
566,17246,-10,-3376,-4658,23,-43,-21,17
567,17258,-66,-3328,-4649,23,-43,-19,18
568,17282,78,-3424,-4664,23,-42,-18,19
569,17226,-4,-3358,-4658,23,-44,-18,15
570,17294,70,-3354,-4656,23,-44,-19,16
571,17208,-50,-3382,-4670,23,-45,-20,18
572,17400,12,-3432,-4660,23,-44,-20,17
573,17270,50,-3292,-4660,23,-43,-20,17
574,17212,46,-3316,-4651,23,-43,-18,17
575,17336,82,-3368,-4658,23,-44,-20,16
576,17208,30,-3456,-4660,23,-43,-19,18
577,17256,-14,-3298,-4655,23,-45,-22,18
578,17262,82,-3454,-4656,23,-42,-20,16
579,17274,34,-3358,-4654,23,-41,-19,17
580,17218,34,-3502,-4662,23,-43,-21,17
581,17326,30,-3460,-4665,23,-44,-17,15
582,17292,34,-3392,-4677,23,-42,-20,18
583,17352,-28,-3400,-4653,23,-43,-21,18
584,17324,44,-3474,-4660,23,-44,-20,17
585,17390,-6,-3422,-4659,23,-44,-19,16
586,17328,4,-3474,-4652,23,-43,-20,15
587,17250,78,-3350,-4659,23,-42,-20,18
588,17272,38,-3526,-4660,23,-44,-18,19
589,17254,-40,-3306,-4655,23,-42,-15,17
590,17330,-70,-3456,-4656,23,-44,-18,19
591,17240,-28,-3392,-4677,23,-45,-20,19
592,17258,-96,-3406,-4659,23,-42,-17,18
593,17260,32,-3384,-4663,23,-44,-17,17
594,17268,42,-3294,-4664,23,-44,-19,17
595,17238,20,-3286,-4652,23,-43,-19,15
596,17184,12,-3454,-4658,23,-46,-18,17
597,17342,-10,-3392,-4665,23,-47,-19,16
598,17252,38,-3470,-4655,23,-44,-21,16
599,17306,56,-3354,-4656,23,-44,-20,15
600,17320,52,-3290,-4657,23,-43,-20,17
601,17252,-22,-3384,-4652,23,-42,-19,18
602,17240,58,-3404,-4654,23,-43,-20,17
603,17182,-40,-3280,-4655,23,-44,-17,16
604,17224,-14,-3420,-4658,23,-46,-19,17
605,17264,28,-3406,-4665,23,-44,-20,17
606,17300,20,-3374,-4674,23,-43,-18,17
607,17312,60,-3350,-4670,23,-44,-18,17
608,17240,40,-3354,-4660,23,-44,-20,16
609,17300,16,-3404,-4671,23,-43,-20,18
610,17270,14,-3428,-4656,23,-44,-21,17
611,17256,58,-3378,-4651,23,-44,-21,18
612,17280,-44,-3552,-4667,23,-44,-22,18
613,17224,62,-3292,-4668,23,-44,-19,18
614,17266,40,-3324,-4665,23,-44,-19,20
615,17222,-10,-3340,-4657,23,-44,-19,16
616,17262,74,-3384,-4657,23,-42,-20,17
617,17232,106,-3390,-4671,23,-42,-18,17
618,17202,-12,-3322,-4667,23,-46,-17,16
619,17228,-56,-3446,-4655,23,-43,-21,18
620,17288,22,-3388,-4666,23,-45,-22,17
621,17238,16,-3356,-4659,23,-44,-19,16
622,17304,-60,-3314,-4647,23,-46,-20,16
623,17206,-26,-3338,-4661,23,-45,-19,18
624,17242,0,-3314,-4653,23,-45,-19,16
625,17246,34,-3386,-4647,23,-46,-18,18
626,17246,-38,-3398,-4667,23,-46,-20,19
627,17218,-16,-3450,-4657,23,-46,-17,17
628,17256,64,-3426,-4655,23,-44,-18,18
629,17354,82,-3426,-4666,23,-43,-20,16
630,17282,-44,-3350,-4664,23,-42,-20,13
631,17314,-24,-3354,-4661,23,-44,-21,17
632,17338,40,-3392,-4650,23,-44,-18,15
633,17256,-30,-3418,-4658,23,-42,-20,17
634,17318,-8,-3418,-4658,23,-44,-20,18
635,17292,-54,-3404,-4652,23,-43,-19,18
636,17186,-26,-3388,-4661,23,-44,-19,18
637,17302,38,-3416,-4652,23,-45,-18,19
638,17284,-10,-3336,-4661,23,-44,-19,17
639,17322,48,-3428,-4661,23,-44,-20,15
640,17226,0,-3414,-4649,23,-44,-21,17
641,17246,50,-3360,-4659,23,-45,-21,17
642,17272,14,-3414,-4658,23,-47,-18,17
643,17194,26,-3474,-4654,23,-43,-19,16
644,17332,16,-3402,-4670,23,-45,-19,17
645,17276,-54,-3370,-4654,23,-43,-20,17
646,17214,2,-3436,-4662,23,-42,-21,15
647,17324,-26,-3264,-4658,23,-44,-19,19
648,17220,6,-3440,-4654,23,-44,-20,17
649,17236,20,-3380,-4663,23,-45,-17,16
650,17218,-4,-3460,-4666,23,-44,-19,16
651,17286,52,-3330,-4660,23,-43,-20,18
652,17280,-6,-3386,-4665,23,-43,-18,16
653,17314,-28,-3394,-4658,23,-45,-20,18
654,17228,-50,-3444,-4659,23,-44,-18,18
655,17318,62,-3386,-4668,23,-44,-21,18
656,17274,0,-3464,-4666,23,-43,-21,16
657,17302,-30,-3516,-4662,23,-46,-20,18
658,17292,-20,-3572,-4654,23,-44,-19,16
659,17286,42,-3252,-4658,23,-45,-20,16
660,17268,50,-3400,-4653,23,-45,-17,18
661,17284,6,-3572,-4668,23,-44,-19,15
662,17310,14,-3268,-4671,23,-44,-22,15
663,17276,20,-3390,-4654,23,-45,-18,19
664,17310,-36,-3374,-4651,23,-43,-20,16
665,17260,96,-3468,-4667,23,-44,-20,18
666,17254,46,-3414,-4646,23,-44,-19,18
667,17260,74,-3364,-4675,23,-44,-20,17
668,17208,38,-3420,-4660,23,-44,-21,15
669,17258,140,-3440,-4654,23,-43,-16,19
670,17276,-44,-3282,-4667,23,-44,-20,17
671,17230,-22,-3348,-4657,23,-43,-19,15
672,17294,14,-3384,-4670,23,-46,-20,17
673,17236,106,-3374,-4662,23,-43,-20,18
674,17264,26,-3332,-4668,23,-43,-17,17
675,17244,-58,-3376,-4662,23,-44,-19,17
676,17320,22,-3388,-4655,23,-46,-19,15
677,17286,-46,-3354,-4668,23,-41,-19,18
678,17256,26,-3494,-4661,23,-43,-21,16
679,17318,36,-3390,-4668,23,-42,-18,17
680,17332,38,-3392,-4663,23,-44,-19,19
681,17196,62,-3336,-4659,23,-42,-19,17
682,17236,-66,-3496,-4671,23,-41,-21,18
683,17238,-18,-3304,-4660,23,-44,-19,16
684,17386,8,-3446,-4664,23,-41,-18,16
685,17314,48,-3394,-4666,23,-45,-20,15
686,17344,-8,-3446,-4656,23,-42,-22,16
687,17338,-54,-3460,-4656,23,-44,-19,16
688,17330,72,-3366,-4663,23,-43,-21,18
689,17286,88,-3422,-4662,23,-43,-20,16
690,17258,12,-3430,-4655,23,-45,-18,15
691,17242,4,-3340,-4660,23,-43,-20,17
692,17248,-18,-3452,-4659,23,-45,-18,18
693,17242,100,-3488,-4664,23,-43,-19,17
694,17302,18,-3416,-4663,23,-44,-20,18
695,17220,-42,-3322,-4668,23,-44,-18,14
696,17262,-18,-3316,-4655,23,-45,-17,17
697,17300,48,-3454,-4657,23,-44,-17,16
698,17364,72,-3372,-4644,23,-44,-19,16
699,17302,32,-3396,-4655,23,-42,-20,15
700,17298,178,-3428,-4675,23,-45,-19,16
701,17248,4,-3288,-4652,23,-44,-19,18
702,17284,86,-3346,-4667,23,-44,-16,18
703,17288,-40,-3354,-4671,23,-44,-19,18
704,17304,24,-3354,-4673,23,-43,-17,16
705,17308,-34,-3446,-4670,23,-43,-18,17
706,17232,0,-3426,-4667,23,-42,-20,16
707,17354,-44,-3358,-4647,23,-43,-20,17
708,17258,-14,-3364,-4647,23,-44,-20,17
709,17256,-46,-3406,-4662,23,-44,-19,17
710,17280,88,-3308,-4646,23,-45,-19,17
711,17248,-96,-3328,-4662,23,-41,-19,18
712,17244,-4,-3468,-4651,23,-45,-19,16
713,17260,22,-3420,-4643,23,-43,-19,18
714,17216,-26,-3478,-4648,23,-42,-21,17
715,17284,52,-3382,-4657,23,-45,-20,17
716,17294,-24,-3454,-4661,23,-45,-18,18
717,17320,12,-3262,-4653,23,-43,-19,19
718,17298,24,-3528,-4655,23,-43,-21,17
719,17262,8,-3410,-4665,23,-43,-19,17
720,17276,54,-3422,-4657,23,-43,-19,18
721,17248,-84,-3368,-4659,23,-44,-18,18
722,17252,14,-3446,-4653,23,-42,-19,17
723,17330,90,-3446,-4671,23,-44,-19,17
724,17270,-16,-3252,-4657,23,-42,-22,16
725,17252,26,-3388,-4649,23,-44,-19,17
726,17312,22,-3284,-4659,23,-45,-21,18
727,17266,-8,-3388,-4656,23,-45,-19,18
728,17256,-36,-3422,-4659,23,-45,-20,16
729,17260,-16,-3360,-4674,23,-44,-18,19
730,17268,18,-3294,-4650,23,-45,-18,17
731,17298,-24,-3360,-4665,23,-43,-18,18
732,17292,-34,-3348,-4662,23,-44,-18,16
733,17346,22,-3510,-4652,23,-44,-19,19
734,17368,-4,-3306,-4668,23,-45,-21,17
735,17266,-6,-3434,-4653,23,-46,-17,15
736,17202,-56,-3374,-4659,23,-44,-17,16
737,17260,-10,-3428,-4666,23,-45,-19,19
738,17344,46,-3318,-4655,23,-43,-20,16
739,17326,42,-3378,-4647,23,-43,-18,18
740,17172,24,-3344,-4652,23,-46,-20,17
741,17272,-20,-3570,-4652,23,-44,-19,16
742,17254,-16,-3428,-4650,23,-45,-19,18
743,17244,-46,-3386,-4657,23,-45,-19,17
744,17232,48,-3300,-4654,23,-44,-20,18
745,17254,16,-3492,-4663,23,-44,-19,17
746,17280,-58,-3216,-4660,23,-45,-20,16
747,17292,-24,-3436,-4655,23,-44,-19,16
748,17264,2,-3394,-4661,23,-44,-18,15
749,17278,50,-3348,-4660,23,-44,-20,17
750,17240,-26,-3308,-4659,23,-46,-18,17
751,17266,32,-3426,-4672,23,-43,-21,17
752,17328,4,-3428,-4656,23,-45,-16,17
753,17288,48,-3304,-4658,23,-45,-19,18
754,17324,30,-3470,-4647,23,-46,-19,16
755,17240,72,-3448,-4658,23,-42,-19,16
756,17298,56,-3354,-4668,23,-42,-20,15
757,17286,-6,-3418,-4668,23,-41,-19,18
758,17280,6,-3410,-4649,23,-44,-21,16
759,17376,4,-3366,-4646,23,-44,-19,17
760,17344,-48,-3366,-4653,23,-46,-20,17
761,17254,-24,-3472,-4660,23,-45,-16,17
762,17304,10,-3446,-4655,23,-43,-17,16
763,17250,24,-3262,-4659,23,-45,-16,18
764,17382,-28,-3360,-4667,23,-47,-20,19
765,17224,80,-3406,-4659,23,-43,-20,16
766,17330,22,-3434,-4671,23,-44,-21,16
767,17306,52,-3458,-4673,23,-45,-19,17
768,17268,6,-3474,-4658,23,-45,-19,18
769,17320,-32,-3374,-4666,23,-43,-21,18
770,17372,34,-3456,-4658,23,-44,-19,17
771,17382,0,-3378,-4650,23,-44,-18,17
772,17262,-16,-3488,-4661,23,-43,-20,17
773,17220,-6,-3454,-4668,23,-43,-20,19
774,17334,-56,-3386,-4655,23,-44,-21,16
775,17248,72,-3496,-4651,23,-43,-20,16
776,17214,34,-3454,-4661,23,-44,-20,15
777,17278,64,-3324,-4665,23,-47,-18,18
778,17264,-44,-3404,-4658,23,-43,-20,16
779,17264,14,-3288,-4649,23,-44,-23,17
780,17224,-22,-3370,-4645,23,-44,-19,16
781,17366,-24,-3312,-4659,23,-40,-17,16
782,17244,-46,-3490,-4668,23,-44,-18,17
783,17326,-96,-3412,-4673,23,-44,-20,17
784,17260,62,-3498,-4661,23,-44,-19,18
785,17260,98,-3464,-4648,23,-44,-21,18
786,17254,30,-3518,-4659,23,-45,-18,17
787,17326,-4,-3458,-4654,23,-42,-18,17
788,17344,-38,-3318,-4663,23,-43,-20,18
789,17346,98,-3412,-4660,23,-43,-19,18
790,17286,-56,-3356,-4671,23,-43,-20,16
791,17234,40,-3366,-4669,23,-45,-16,16
792,17302,-8,-3500,-4653,23,-45,-18,15
793,17268,36,-3356,-4648,23,-43,-18,18
794,17350,0,-3410,-4654,23,-42,-19,17
795,17212,-64,-3330,-4646,23,-42,-20,20
796,17262,78,-3480,-4660,23,-44,-17,15
797,17298,-36,-3366,-4653,23,-43,-18,15
798,17310,-20,-3512,-4651,23,-44,-19,16
799,17302,-12,-3284,-4652,23,-42,-20,17
800,17194,6,-3454,-4657,23,-44,-18,16
801,17358,-2,-3396,-4654,23,-43,-21,16
802,17228,2,-3446,-4665,23,-42,-18,16
803,17260,-20,-3512,-4658,23,-43,-19,16
804,17262,14,-3406,-4653,23,-43,-18,17
805,17232,38,-3350,-4653,23,-43,-20,17
806,17282,16,-3408,-4651,23,-42,-20,17
807,17206,96,-3334,-4651,23,-45,-20,16
808,17186,-50,-3486,-4658,23,-43,-20,15
809,17218,-70,-3450,-4662,23,-46,-18,17
810,17290,48,-3454,-4667,23,-44,-20,18
811,17224,36,-3370,-4649,23,-44,-19,16
812,17218,54,-3346,-4654,23,-44,-20,16
813,17304,4,-3352,-4653,23,-42,-19,19
814,17242,-32,-3440,-4655,23,-44,-18,17
815,17264,20,-3410,-4652,23,-43,-18,18
816,17368,98,-3336,-4664,23,-44,-22,18
817,17276,32,-3400,-4652,23,-44,-18,19
818,17288,-44,-3374,-4657,23,-44,-19,19
819,17250,-40,-3436,-4661,23,-46,-18,18
820,17354,-26,-3362,-4655,23,-45,-20,18
821,17272,20,-3378,-4651,23,-45,-20,16
822,17286,56,-3396,-4656,23,-44,-17,16
823,17248,0,-3354,-4663,23,-44,-18,18
824,17224,10,-3402,-4653,23,-43,-21,18
825,17364,-52,-3284,-4656,23,-42,-19,19
826,17246,32,-3436,-4668,23,-43,-20,18
827,17314,20,-3444,-4654,23,-44,-18,18
828,17234,-36,-3396,-4653,23,-44,-18,15
829,17264,4,-3342,-4663,23,-43,-19,16
830,17246,30,-3374,-4658,23,-44,-20,17
831,17290,72,-3510,-4649,23,-44,-20,16
832,17310,-48,-3438,-4662,23,-44,-20,17
833,17266,-62,-3398,-4659,23,-41,-19,16
834,17294,-26,-3418,-4650,23,-43,-19,16
835,17240,38,-3432,-4656,23,-44,-19,17
836,17318,94,-3386,-4663,23,-44,-20,14
837,17268,22,-3206,-4660,23,-43,-18,17
838,17228,10,-3392,-4661,23,-43,-19,17
839,17272,56,-3332,-4656,23,-43,-20,17
840,17298,-16,-3458,-4655,23,-44,-19,18
841,17184,-64,-3374,-4661,23,-44,-19,17
842,17290,-92,-3416,-4660,23,-43,-20,17
843,17284,74,-3448,-4666,23,-45,-18,16
844,17264,-16,-3376,-4650,23,-47,-18,15
845,17248,-40,-3426,-4665,23,-44,-17,16
846,17328,-54,-3496,-4650,23,-43,-18,18
847,17268,-48,-3334,-4655,23,-43,-18,17
848,17260,68,-3492,-4642,23,-43,-17,16
849,17250,84,-3372,-4652,23,-46,-19,17
850,17284,-4,-3418,-4669,23,-43,-20,17
851,17252,110,-3506,-4662,23,-47,-21,18
852,17304,-32,-3400,-4647,23,-42,-21,17
853,17244,-18,-3456,-4651,23,-42,-20,15
854,17254,-14,-3324,-4659,23,-42,-21,19
855,17280,-16,-3422,-4666,23,-43,-23,15
856,17300,-36,-3432,-4659,23,-43,-18,17
857,17270,2,-3418,-4662,23,-44,-20,18
858,17270,-22,-3406,-4648,23,-43,-18,18
859,17296,16,-3300,-4664,23,-41,-18,17
860,17286,22,-3484,-4663,23,-44,-21,17
861,17328,-74,-3498,-4661,23,-44,-19,17
862,17284,74,-3334,-4651,23,-42,-19,15
863,17252,46,-3524,-4653,23,-44,-19,16
864,17276,-12,-3276,-4659,23,-44,-19,16
865,17254,6,-3386,-4660,23,-44,-18,19
866,17364,-12,-3370,-4659,23,-44,-16,18
867,17306,-50,-3448,-4660,23,-46,-20,17
868,17246,-28,-3468,-4660,23,-44,-21,18
869,17296,22,-3420,-4644,23,-45,-23,17
870,17304,-30,-3466,-4662,23,-47,-20,18
871,17330,-10,-3356,-4652,23,-45,-22,17
872,17340,30,-3294,-4655,23,-44,-21,16
873,17242,14,-3302,-4652,23,-43,-18,18
874,17306,-116,-3432,-4660,23,-45,-21,16
875,17260,-6,-3222,-4656,23,-44,-21,20
876,17308,6,-3276,-4644,23,-42,-21,18
877,17270,48,-3242,-4663,23,-44,-20,16
878,17338,74,-3418,-4670,23,-44,-18,16
879,17294,2,-3316,-4656,23,-44,-19,15
880,17268,-34,-3368,-4662,23,-45,-18,17
881,17298,-22,-3368,-4680,23,-44,-20,16
882,17326,-84,-3446,-4661,23,-42,-19,17
883,17294,8,-3420,-4664,23,-45,-17,18
884,17358,58,-3476,-4669,23,-45,-22,17
885,17318,90,-3296,-4653,23,-43,-18,18
886,17314,42,-3430,-4656,23,-44,-19,17
887,17278,-36,-3424,-4653,23,-44,-19,15
888,17306,34,-3320,-4644,23,-46,-22,17
889,17306,-18,-3326,-4654,23,-46,-20,17
890,17302,10,-3386,-4659,23,-44,-18,18
891,17330,26,-3404,-4656,23,-45,-18,17
892,17254,78,-3352,-4650,23,-46,-21,18
893,17366,24,-3504,-4664,23,-42,-19,17
894,17340,-20,-3332,-4662,23,-45,-18,19
895,17274,-40,-3420,-4677,23,-44,-19,17
896,17264,116,-3394,-4665,23,-45,-19,17
897,17344,34,-3338,-4661,23,-44,-19,18
898,17308,-6,-3452,-4654,23,-45,-18,17
899,17264,2,-3482,-4663,23,-44,-17,15
900,17268,76,-3356,-4646,23,-44,-19,17
901,17360,38,-3340,-4665,23,-46,-21,19
902,17272,-34,-3506,-4658,23,-45,-18,18
903,17266,30,-3378,-4649,23,-43,-21,15
904,17288,-6,-3296,-4642,23,-43,-21,18
905,17258,-72,-3402,-4654,23,-45,-20,17
906,17294,26,-3342,-4653,23,-43,-20,19
907,17332,34,-3434,-4657,23,-43,-18,17
908,17242,0,-3532,-4652,23,-44,-19,19
909,17230,16,-3318,-4661,23,-45,-21,19
910,17240,-18,-3354,-4645,23,-43,-20,17
911,17306,14,-3428,-4658,23,-43,-18,19
912,17332,2,-3382,-4668,23,-45,-18,17
913,17312,54,-3490,-4655,23,-45,-20,18
914,17296,20,-3256,-4655,23,-43,-18,17
915,17272,-16,-3376,-4667,23,-42,-19,16
916,17260,-24,-3330,-4659,23,-44,-19,16
917,17222,-30,-3406,-4659,23,-45,-20,15
918,17194,28,-3412,-4655,23,-45,-20,16
919,17246,-36,-3254,-4653,23,-44,-20,16
920,17258,-58,-3362,-4667,23,-45,-21,18
921,17314,-40,-3448,-4657,23,-44,-19,18
922,17222,62,-3368,-4663,23,-44,-19,17
923,17314,-34,-3342,-4669,23,-44,-19,17
924,17354,46,-3370,-4663,23,-44,-19,17
925,17344,8,-3356,-4655,23,-42,-21,17
926,17340,6,-3314,-4651,23,-43,-19,16
927,17174,68,-3312,-4644,23,-41,-21,16
928,17294,58,-3410,-4652,23,-45,-22,18
929,17208,-58,-3232,-4653,23,-44,-20,17
930,17250,-28,-3564,-4670,23,-43,-18,16
931,17266,10,-3330,-4663,23,-44,-20,17
932,17322,-20,-3386,-4657,23,-44,-18,18
933,17314,40,-3318,-4655,23,-43,-18,18
934,17256,22,-3378,-4662,23,-45,-20,15
935,17260,8,-3440,-4652,23,-45,-17,18
936,17242,14,-3384,-4658,23,-45,-21,17
937,17282,-4,-3342,-4656,23,-42,-20,16
938,17356,22,-3482,-4656,23,-44,-18,18
939,17284,22,-3452,-4652,23,-45,-19,18
940,17274,82,-3414,-4657,23,-45,-20,17
941,17264,16,-3394,-4652,23,-41,-21,17
942,17282,0,-3314,-4650,23,-43,-19,14
943,17266,42,-3452,-4659,23,-43,-21,17
944,17328,8,-3444,-4656,23,-42,-17,17
945,17294,44,-3352,-4665,23,-45,-21,18
946,17262,-40,-3454,-4663,23,-42,-21,17
947,17304,56,-3384,-4664,23,-44,-18,17
948,17248,20,-3478,-4641,23,-44,-19,16
949,17194,-74,-3294,-4654,23,-43,-20,17
950,17374,-10,-3454,-4669,23,-43,-19,14
951,17306,102,-3348,-4660,23,-44,-19,17
952,17290,12,-3476,-4660,23,-45,-21,17
953,17208,76,-3444,-4664,23,-43,-18,18
954,17278,10,-3484,-4640,23,-45,-17,17
955,17256,30,-3324,-4658,23,-45,-22,16
956,17378,18,-3334,-4660,23,-45,-18,17
957,17320,-12,-3380,-4651,23,-42,-20,16
958,17364,18,-3496,-4647,23,-43,-20,19
959,17266,14,-3416,-4642,23,-44,-17,16
960,17346,16,-3318,-4667,23,-42,-21,16
961,17350,90,-3360,-4650,23,-43,-21,15
962,17282,-34,-3438,-4638,23,-44,-18,17
963,17316,70,-3490,-4639,23,-45,-19,17
964,17254,38,-3462,-4660,23,-44,-20,16
965,17324,22,-3326,-4654,23,-42,-18,15
966,17286,34,-3384,-4656,23,-44,-17,18
967,17214,-12,-3506,-4663,23,-44,-20,17
968,17282,-28,-3442,-4665,23,-45,-21,16
969,17348,48,-3258,-4656,23,-43,-17,16
970,17292,-2,-3384,-4653,23,-44,-18,18
971,17236,14,-3440,-4658,23,-44,-19,18
972,17316,-6,-3440,-4647,23,-45,-19,18
973,17230,54,-3394,-4654,23,-44,-20,18
974,17282,62,-3426,-4655,23,-42,-18,16
975,17334,-10,-3424,-4651,23,-43,-17,18
976,17296,6,-3360,-4646,23,-46,-19,17
977,17318,8,-3444,-4650,23,-42,-21,18
978,17246,-16,-3342,-4663,23,-42,-20,15
979,17296,26,-3404,-4659,23,-43,-19,16
980,17188,78,-3448,-4650,23,-43,-19,17
981,17238,56,-3474,-4651,23,-43,-18,18
982,17288,12,-3348,-4658,23,-44,-20,17
983,17264,26,-3534,-4663,23,-43,-19,18
984,17260,74,-3506,-4670,23,-42,-16,18
985,17298,72,-3456,-4662,23,-41,-18,18
986,17246,18,-3336,-4658,23,-44,-18,17
987,17248,-68,-3386,-4666,23,-43,-18,15
988,17314,14,-3354,-4650,23,-44,-21,18
989,17152,30,-3368,-4642,23,-46,-19,19
990,17286,76,-3472,-4652,23,-44,-21,17
991,17306,-14,-3406,-4662,23,-44,-17,16
992,17256,58,-3532,-4659,23,-43,-20,16
993,17224,6,-3454,-4659,23,-44,-20,17
994,17246,10,-3442,-4664,23,-42,-18,17
995,17278,32,-3426,-4659,23,-43,-17,17
996,17304,-92,-3386,-4654,23,-43,-21,17
997,17232,44,-3528,-4667,23,-43,-20,17
998,17274,-2,-3438,-4653,23,-45,-20,17
