,acc_X,acc_Y,acc_Z,temp,tempC,gyr_X,gyr_Y,gyr_Z
0,8635,8,-1721,-4728,23,-89,-38,33
1,8629,7,-1723,-4726,23,-87,-38,32
2,8638,20,-1726,-4730,23,-88,-40,33
3,8642,20,-1715,-4724,23,-87,-39,34
4,8636,-4,-1711,-4728,23,-87,-40,35
5,8631,-1,-1712,-4730,23,-88,-39,36
6,8632,15,-1715,-4729,23,-89,-41,34
7,8640,6,-1744,-4725,23,-89,-39,34
8,8639,9,-1752,-4727,23,-87,-38,36
9,8632,16,-1723,-4726,23,-85,-36,33
10,8629,27,-1718,-4725,23,-87,-38,34
11,8620,26,-1726,-4725,23,-87,-40,34
12,8633,8,-1708,-4730,23,-88,-39,34
13,8626,7,-1708,-4733,23,-86,-38,34
14,8631,15,-1702,-4728,23,-86,-39,35
15,8638,6,-1712,-4732,23,-88,-37,34
16,8641,-2,-1720,-4735,23,-90,-36,34
17,8647,3,-1728,-4730,23,-88,-37,35
18,8642,12,-1720,-4724,23,-86,-38,36
19,8647,4,-1704,-4728,23,-86,-38,36
20,8647,-9,-1695,-4723,23,-86,-37,35
21,8653,0,-1710,-4721,23,-85,-38,34
22,8652,7,-1713,-4727,23,-85,-38,35
23,8643,6,-1718,-4734,23,-86,-39,34
24,8634,18,-1725,-4730,23,-86,-38,35
25,8648,8,-1701,-4730,23,-86,-39,33
26,8644,9,-1719,-4732,23,-86,-38,33
27,8625,24,-1691,-4728,23,-86,-38,35
28,8628,16,-1734,-4729,23,-86,-39,33
29,8640,27,-1725,-4729,23,-85,-40,32
30,8639,18,-1739,-4734,23,-86,-38,34
31,8643,25,-1729,-4731,23,-89,-36,34
32,8642,9,-1729,-4736,23,-87,-37,35
33,8641,-2,-1737,-4729,23,-86,-36,35
34,8647,2,-1724,-4725,23,-85,-37,35
35,8637,-1,-1721,-4725,23,-86,-38,35
36,8639,4,-1721,-4727,23,-87,-38,34
37,8640,12,-1705,-4731,23,-88,-39,34
38,8643,3,-1705,-4726,23,-85,-38,34
39,8623,4,-1730,-4727,23,-86,-36,33
40,8646,29,-1716,-4726,23,-88,-37,35
41,8635,-1,-1731,-4727,23,-88,-39,34
42,8629,-3,-1730,-4726,23,-88,-38,34
43,8627,1,-1721,-4725,23,-87,-39,33
44,8633,17,-1705,-4727,23,-87,-38,33
45,8626,12,-1704,-4730,23,-87,-38,33
46,8637,3,-1744,-4726,23,-87,-38,36
47,8623,-5,-1710,-4727,23,-87,-39,34
48,8642,6,-1714,-4727,23,-86,-37,34
49,8639,11,-1719,-4726,23,-86,-38,34
50,8629,18,-1729,-4726,23,-86,-41,32
51,8626,19,-1712,-4724,23,-87,-39,34
52,8611,15,-1727,-4725,23,-87,-37,34
53,8630,18,-1717,-4730,23,-87,-38,34
54,8621,1,-1716,-4727,23,-86,-37,35
55,8636,16,-1706,-4727,23,-88,-38,36
56,8627,8,-1719,-4726,23,-86,-40,37
57,8634,8,-1716,-4730,23,-87,-38,36
58,8623,19,-1707,-4725,23,-87,-41,34
59,8636,21,-1710,-4725,23,-87,-40,34
60,8647,22,-1727,-4723,23,-87,-40,34
61,8648,19,-1700,-4730,23,-86,-39,36
62,8628,24,-1734,-4726,23,-87,-38,36
63,8637,5,-1702,-4722,23,-86,-39,35
64,8632,14,-1707,-4720,23,-87,-40,33
65,8636,9,-1713,-4730,23,-88,-38,34
66,8647,-6,-1710,-4737,23,-87,-38,34
67,8643,12,-1705,-4735,23,-88,-38,35
68,8644,7,-1720,-4730,23,-88,-39,35
69,8636,6,-1701,-4725,23,-86,-38,35
70,8641,24,-1699,-4728,23,-86,-37,35
71,8641,16,-1702,-4728,23,-87,-37,35
72,8649,15,-1727,-4727,23,-86,-37,34
73,8652,7,-1719,-4732,23,-86,-38,35
74,8644,-10,-1723,-4731,23,-86,-38,35
75,8634,0,-1715,-4727,23,-87,-37,35
76,8637,7,-1709,-4726,23,-88,-38,34
77,8630,4,-1696,-4729,23,-88,-39,33
78,8635,8,-1718,-4724,23,-86,-37,34
79,8635,20,-1708,-4727,23,-87,-38,34
80,8617,4,-1719,-4725,23,-88,-37,34
81,8625,15,-1731,-4726,23,-88,-38,34
82,8626,4,-1734,-4726,23,-87,-37,36
83,8631,3,-1739,-4727,23,-87,-38,34
84,8642,11,-1731,-4727,23,-85,-38,34
85,8652,16,-1723,-4730,23,-87,-39,34
86,8647,10,-1739,-4727,23,-87,-41,33
87,8641,11,-1697,-4729,23,-87,-40,33
88,8629,0,-1706,-4728,23,-87,-39,33
89,8629,1,-1712,-4725,23,-88,-39,35
90,8632,3,-1706,-4724,23,-86,-39,35
91,8626,5,-1701,-4724,23,-87,-37,33
92,8644,19,-1709,-4722,23,-87,-38,34
93,8641,14,-1711,-4721,23,-85,-38,35
94,8618,10,-1719,-4723,23,-87,-38,35
95,8635,13,-1709,-4721,23,-88,-38,33
96,8636,19,-1711,-4726,23,-87,-40,34
97,8647,10,-1705,-4729,23,-86,-38,34
98,8644,8,-1708,-4723,23,-87,-38,35
99,8639,4,-1715,-4727,23,-88,-38,36
100,8633,15,-1721,-4724,23,-86,-38,37
101,8635,11,-1746,-4726,23,-87,-38,35
102,8648,17,-1749,-4724,23,-87,-39,35
103,8639,15,-1739,-4724,23,-87,-40,34
104,8637,3,-1715,-4723,23,-85,-36,36
105,8628,12,-1728,-4726,23,-86,-38,36
106,8621,-8,-1740,-4727,23,-86,-37,36
107,8626,6,-1710,-4721,23,-86,-38,34
108,8634,5,-1710,-4725,23,-85,-36,34
109,8626,4,-1706,-4726,23,-86,-37,35
110,8623,7,-1696,-4720,23,-86,-38,34
111,8646,15,-1698,-4724,23,-85,-37,34
112,8643,17,-1693,-4723,23,-85,-38,33
113,8652,16,-1709,-4721,23,-86,-37,34
114,8653,14,-1711,-4723,23,-85,-38,36
115,8642,1,-1722,-4725,23,-88,-39,35
116,8637,3,-1724,-4726,23,-87,-38,34
117,8636,16,-1727,-4728,23,-88,-38,35
118,8625,12,-1723,-4730,23,-87,-39,35
119,8623,18,-1701,-4724,23,-86,-37,37
120,8637,8,-1726,-4724,23,-86,-39,35
121,8639,3,-1724,-4726,23,-86,-39,34
122,8642,5,-1706,-4729,23,-86,-39,35
123,8633,6,-1715,-4728,23,-85,-38,34
124,8643,20,-1719,-4726,23,-86,-37,35
125,8630,30,-1711,-4726,23,-84,-40,36
126,8629,8,-1720,-4729,23,-86,-40,35
127,8638,27,-1733,-4728,23,-87,-38,34
128,8626,12,-1746,-4729,23,-88,-39,34
129,8644,-9,-1742,-4730,23,-88,-39,34
130,8645,-2,-1729,-4723,23,-86,-37,34
131,8638,12,-1739,-4721,23,-86,-36,34
132,8649,12,-1734,-4722,23,-86,-39,34
133,8641,11,-1709,-4723,23,-86,-40,34
134,8641,-6,-1696,-4734,23,-87,-38,34
135,8644,-1,-1697,-4727,23,-87,-39,33
136,8646,-4,-1711,-4723,23,-87,-38,34
137,8621,-5,-1711,-4725,23,-85,-38,36
138,8626,1,-1702,-4723,23,-87,-40,34
139,8628,3,-1713,-4725,23,-88,-38,35
140,8637,1,-1715,-4722,23,-86,-37,35
141,8632,-4,-1728,-4720,23,-86,-37,34
142,8641,-1,-1730,-4723,23,-86,-38,34
143,8631,3,-1717,-4722,23,-86,-37,35
144,8633,6,-1717,-4720,23,-86,-36,35
145,8632,-8,-1708,-4728,23,-86,-39,33
146,8632,2,-1724,-4726,23,-85,-39,34
147,8635,12,-1701,-4726,23,-87,-36,33
148,8640,18,-1725,-4724,23,-87,-37,32
149,8635,11,-1718,-4723,23,-85,-38,34
150,8632,1,-1714,-4726,23,-86,-38,35
151,8645,6,-1716,-4725,23,-87,-35,35
152,8648,-21,-1702,-4722,23,-87,-37,33
153,8646,4,-1701,-4722,23,-84,-37,35
154,8649,5,-1695,-4722,23,-85,-39,34
155,8657,1,-1699,-4720,23,-86,-40,35
156,8643,1,-1718,-4720,23,-86,-40,34
157,8645,6,-1728,-4722,23,-86,-39,33
158,8639,6,-1739,-4723,23,-86,-37,33
159,8640,10,-1721,-4720,23,-88,-39,33
160,8637,13,-1699,-4719,23,-86,-39,34
161,8626,14,-1707,-4717,23,-87,-39,36
162,8629,-1,-1710,-4717,23,-86,-39,34
163,8635,23,-1721,-4719,23,-86,-39,35
164,8624,10,-1729,-4717,23,-86,-38,34
165,8630,20,-1725,-4718,23,-87,-37,34
166,8636,13,-1729,-4717,23,-86,-36,35
167,8635,6,-1725,-4716,23,-88,-37,34
168,8646,1,-1715,-4719,23,-87,-36,36
169,8630,-6,-1721,-4727,23,-87,-38,36
170,8628,-11,-1719,-4725,23,-86,-36,35
171,8632,1,-1722,-4720,23,-86,-38,34
172,8652,-6,-1719,-4723,23,-85,-38,35
173,8643,-1,-1710,-4728,23,-86,-39,35
174,8647,15,-1711,-4723,23,-87,-38,37
175,8636,14,-1735,-4726,23,-87,-38,35
176,8637,18,-1729,-4725,23,-86,-39,35
177,8637,21,-1721,-4728,23,-87,-38,34
178,8625,-1,-1731,-4723,23,-88,-38,35
179,8616,-5,-1727,-4723,23,-86,-39,36
180,8632,-4,-1727,-4716,23,-87,-38,34
181,8634,3,-1729,-4717,23,-88,-36,33
182,8640,26,-1720,-4723,23,-87,-39,34
183,8640,6,-1719,-4725,23,-89,-39,36
184,8644,-3,-1720,-4725,23,-88,-39,33
185,8642,9,-1711,-4729,23,-87,-39,34
186,8632,12,-1715,-4729,23,-86,-39,34
187,8632,-10,-1710,-4722,23,-87,-39,34
188,8645,-3,-1746,-4730,23,-87,-37,35
189,8633,-8,-1731,-4724,23,-86,-36,34
190,8630,3,-1746,-4721,23,-87,-37,33
191,8624,14,-1741,-4726,23,-88,-39,32
192,8632,27,-1719,-4724,23,-86,-39,34
193,8631,9,-1719,-4723,23,-85,-37,35
194,8623,8,-1720,-4724,23,-87,-38,34
195,8627,10,-1721,-4724,23,-87,-38,33
196,8632,15,-1744,-4729,23,-86,-39,34
197,8633,11,-1744,-4722,23,-86,-38,34
198,8621,5,-1732,-4721,23,-86,-38,33
199,8636,7,-1738,-4724,23,-87,-38,34
200,8610,2,-1720,-4728,23,-87,-38,35
201,8631,18,-1711,-4728,23,-86,-38,34
202,8630,24,-1736,-4722,23,-88,-37,32
203,8637,15,-1729,-4721,23,-87,-39,34
204,8626,10,-1718,-4725,23,-87,-38,34
205,8618,19,-1737,-4723,23,-85,-38,34
206,8614,18,-1703,-4727,23,-86,-39,34
207,8622,17,-1712,-4727,23,-87,-38,33
208,8632,14,-1702,-4724,23,-87,-38,33
209,8636,7,-1706,-4730,23,-85,-38,33
210,8641,-4,-1702,-4727,23,-86,-38,34
211,8626,19,-1710,-4731,23,-86,-35,35
212,8627,15,-1718,-4729,23,-85,-35,33
213,8638,3,-1713,-4720,23,-87,-37,35
214,8622,-1,-1707,-4723,23,-86,-39,36
215,8620,20,-1698,-4726,23,-87,-38,35
216,8625,14,-1719,-4726,23,-88,-35,36
217,8640,14,-1718,-4722,23,-86,-37,36
218,8630,25,-1697,-4723,23,-85,-40,35
219,8623,9,-1690,-4726,23,-85,-39,36
220,8636,8,-1695,-4730,23,-87,-38,34
221,8624,9,-1711,-4731,23,-85,-38,33
222,8630,6,-1730,-4727,23,-85,-36,33
223,8629,3,-1731,-4730,23,-86,-36,33
224,8622,13,-1739,-4725,23,-88,-36,33
225,8639,0,-1715,-4723,23,-88,-38,34
226,8623,-1,-1714,-4718,23,-87,-37,35
227,8626,6,-1721,-4725,23,-85,-37,36
228,8635,6,-1717,-4727,23,-86,-37,35
229,8642,14,-1713,-4721,23,-85,-36,35
230,8646,11,-1728,-4724,23,-87,-39,34
231,8629,10,-1710,-4722,23,-87,-40,34
232,8631,-9,-1712,-4728,23,-86,-38,35
233,8647,2,-1719,-4726,23,-87,-37,34
234,8641,15,-1740,-4724,23,-86,-38,35
235,8642,2,-1725,-4727,23,-87,-37,34
236,8634,-1,-1723,-4727,23,-87,-37,36
237,8635,8,-1709,-4724,23,-87,-38,35
238,8644,-7,-1719,-4722,23,-87,-39,35
239,8636,22,-1705,-4719,23,-87,-40,34
240,8629,16,-1716,-4721,23,-86,-39,35
241,8633,22,-1743,-4725,23,-87,-38,35
242,8624,11,-1715,-4725,23,-87,-38,34
243,8632,9,-1725,-4726,23,-87,-38,34
244,8638,2,-1727,-4724,23,-85,-40,33
245,8644,0,-1708,-4719,23,-86,-39,35
246,8655,15,-1710,-4721,23,-86,-38,35
247,8633,7,-1702,-4726,23,-85,-37,34
248,8630,5,-1728,-4726,23,-87,-39,34
249,8637,8,-1732,-4722,23,-86,-39,35
250,8627,0,-1734,-4721,23,-87,-39,36
251,8633,4,-1725,-4724,23,-88,-36,34
252,8637,0,-1744,-4729,23,-86,-39,34
253,8631,19,-1718,-4728,23,-87,-38,35
254,8632,21,-1712,-4727,23,-86,-35,33
255,8645,8,-1724,-4726,23,-85,-37,34
256,8639,12,-1751,-4730,23,-86,-36,36
257,8628,15,-1727,-4726,23,-87,-38,33
258,8631,-1,-1725,-4728,23,-86,-38,33
259,8624,0,-1732,-4726,23,-87,-37,34
260,8616,9,-1717,-4723,23,-87,-35,35
261,8639,4,-1753,-4729,23,-88,-39,36
262,8626,14,-1745,-4722,23,-87,-38,35
263,8629,15,-1729,-4725,23,-88,-38,35
264,8637,19,-1711,-4724,23,-88,-37,35
265,8630,13,-1700,-4717,23,-87,-39,36
266,8643,7,-1726,-4720,23,-85,-38,37
267,8629,19,-1705,-4720,23,-87,-38,36
268,8635,13,-1707,-4719,23,-86,-37,36
269,8625,3,-1705,-4720,23,-88,-37,35
270,8633,3,-1721,-4720,23,-86,-36,34
271,8656,22,-1716,-4724,23,-87,-37,36
272,8658,6,-1718,-4726,23,-88,-36,35
273,8637,15,-1703,-4720,23,-87,-38,34
274,8627,18,-1694,-4722,23,-87,-39,34
275,8625,11,-1707,-4724,23,-89,-37,33
276,8631,1,-1735,-4728,23,-89,-39,33
277,8641,6,-1736,-4726,23,-87,-37,35
278,8650,20,-1727,-4727,23,-87,-37,34
279,8641,11,-1715,-4720,23,-86,-38,35
280,8621,19,-1699,-4722,23,-86,-37,33
281,8619,22,-1712,-4722,23,-86,-37,34
282,8630,6,-1713,-4722,23,-86,-39,34
283,8627,-8,-1717,-4720,23,-86,-38,35
284,8631,8,-1713,-4723,23,-86,-38,34
285,8628,4,-1692,-4728,23,-86,-37,36
286,8633,8,-1723,-4727,23,-87,-36,35
287,8643,20,-1698,-4728,23,-87,-38,36
288,8650,-4,-1731,-4729,23,-86,-39,37
289,8645,7,-1723,-4728,23,-87,-38,35
290,8635,8,-1722,-4727,23,-86,-37,34
291,8622,5,-1734,-4731,23,-87,-37,34
292,8631,6,-1729,-4726,23,-87,-38,33
293,8629,20,-1721,-4727,23,-87,-37,34
294,8641,16,-1719,-4723,23,-86,-37,34
295,8632,8,-1727,-4720,23,-87,-36,35
296,8643,10,-1708,-4729,23,-86,-36,34
297,8637,7,-1727,-4729,23,-88,-39,33
298,8644,2,-1718,-4725,23,-88,-37,34
299,8638,7,-1716,-4729,23,-88,-36,34
300,8640,23,-1717,-4730,23,-87,-38,34
301,8639,5,-1721,-4723,23,-88,-39,34
302,8648,-10,-1718,-4725,23,-85,-38,35
303,8647,24,-1733,-4725,23,-85,-38,35
304,8651,13,-1710,-4727,23,-86,-38,35
305,8641,24,-1711,-4726,23,-87,-39,35
306,8626,30,-1703,-4725,23,-88,-38,35
307,8632,10,-1724,-4725,23,-87,-38,35
308,8616,7,-1724,-4726,23,-87,-38,36
309,8634,16,-1697,-4721,23,-86,-37,35
310,8630,14,-1712,-4725,23,-86,-37,35
311,8642,9,-1692,-4722,23,-87,-37,35
312,8635,0,-1702,-4725,23,-86,-39,34
313,8616,21,-1712,-4720,23,-86,-37,32
314,8629,5,-1717,-4723,23,-88,-37,35
315,8634,16,-1690,-4722,23,-87,-36,35
316,8639,14,-1723,-4722,23,-86,-39,36
317,8640,20,-1725,-4718,23,-87,-38,35
318,8651,4,-1709,-4718,23,-86,-41,35
319,8650,1,-1700,-4717,23,-86,-39,36
320,8638,0,-1714,-4726,23,-87,-38,35
321,8630,5,-1741,-4727,23,-87,-39,36
322,8639,12,-1737,-4721,23,-86,-37,36
323,8638,15,-1705,-4726,23,-87,-38,34
324,8637,24,-1730,-4728,23,-86,-38,33
325,8648,20,-1718,-4727,23,-86,-38,35
326,8644,12,-1703,-4732,23,-87,-38,34
327,8631,6,-1731,-4726,23,-86,-39,35
328,8638,5,-1724,-4724,23,-85,-39,34
329,8621,15,-1718,-4720,23,-86,-39,36
330,8636,19,-1724,-4722,23,-87,-39,35
331,8635,5,-1735,-4720,23,-88,-38,35
332,8625,7,-1715,-4727,23,-89,-39,36
333,8632,9,-1710,-4726,23,-88,-40,35
334,8625,14,-1718,-4727,23,-87,-40,35
335,8626,8,-1745,-4729,23,-88,-38,37
336,8638,3,-1711,-4732,23,-88,-40,35
337,8631,9,-1731,-4728,23,-87,-38,36
338,8631,13,-1740,-4732,23,-87,-39,36
339,8644,8,-1728,-4725,23,-87,-39,36
340,8646,6,-1722,-4726,23,-89,-40,34
341,8627,3,-1720,-4726,23,-86,-36,36
342,8633,18,-1710,-4722,23,-88,-39,35
343,8627,33,-1711,-4731,23,-88,-37,34
344,8618,9,-1695,-4725,23,-87,-36,35
345,8634,9,-1709,-4724,23,-87,-40,33
346,8637,11,-1709,-4723,23,-85,-39,35
347,8632,12,-1720,-4728,23,-86,-38,34
348,8630,6,-1715,-4726,23,-87,-37,35
349,8639,17,-1726,-4719,23,-87,-39,35
350,8641,23,-1739,-4720,23,-86,-38,34
351,8634,22,-1720,-4721,23,-88,-38,35
352,8630,14,-1722,-4720,23,-86,-37,35
353,8636,19,-1701,-4723,23,-87,-39,35
354,8630,1,-1705,-4718,23,-87,-38,33
355,8622,12,-1709,-4716,23,-87,-38,35
356,8629,16,-1712,-4722,23,-86,-37,36
357,8644,12,-1726,-4721,23,-88,-38,34
358,8639,7,-1725,-4720,23,-87,-39,35
359,8631,24,-1710,-4718,23,-86,-38,36
360,8612,9,-1695,-4725,23,-88,-37,36
361,8628,14,-1719,-4724,23,-87,-39,36
362,8618,8,-1720,-4720,23,-87,-39,36
363,8624,4,-1710,-4720,23,-87,-39,35
364,8631,3,-1709,-4724,23,-86,-38,35
365,8634,3,-1715,-4721,23,-86,-37,35
366,8630,6,-1699,-4720,23,-87,-38,34
367,8630,8,-1706,-4714,23,-87,-40,35
368,8633,39,-1700,-4720,23,-88,-38,34
369,8631,18,-1718,-4722,23,-88,-38,35
370,8630,10,-1711,-4724,23,-85,-37,34
371,8635,0,-1693,-4725,23,-87,-38,35
372,8644,0,-1722,-4725,23,-87,-37,35
373,8635,-4,-1713,-4723,23,-86,-39,35
374,8637,5,-1713,-4716,23,-87,-39,34
375,8632,6,-1710,-4720,23,-87,-37,33
376,8633,8,-1726,-4723,23,-86,-37,35
377,8629,5,-1715,-4721,23,-86,-37,35
378,8622,11,-1707,-4722,23,-86,-38,35
379,8641,6,-1696,-4723,23,-86,-36,36
380,8642,11,-1707,-4723,23,-87,-36,34
381,8627,14,-1698,-4726,23,-88,-37,35
382,8647,25,-1712,-4730,23,-87,-37,35
383,8643,10,-1712,-4727,23,-86,-38,33
384,8640,16,-1708,-4724,23,-86,-37,35
385,8637,4,-1737,-4717,23,-86,-38,34
386,8629,10,-1710,-4719,23,-87,-38,35
387,8648,11,-1713,-4722,23,-85,-39,35
388,8649,21,-1725,-4722,23,-86,-38,35
389,8642,28,-1694,-4720,23,-88,-39,34
390,8634,22,-1698,-4723,23,-88,-40,34
391,8627,13,-1697,-4724,23,-87,-37,35
392,8642,35,-1720,-4728,23,-88,-38,34
393,8637,25,-1744,-4720,23,-87,-39,35
394,8643,0,-1759,-4720,23,-87,-37,35
395,8644,-5,-1706,-4726,23,-87,-35,34
396,8645,12,-1703,-4721,23,-88,-37,34
397,8640,7,-1706,-4723,23,-85,-38,36
398,8638,5,-1705,-4715,23,-87,-39,35
399,8630,20,-1710,-4723,23,-86,-41,36
400,8640,18,-1716,-4722,23,-87,-39,34
401,8643,16,-1722,-4723,23,-88,-38,33
402,8642,15,-1715,-4719,23,-86,-39,35
403,8634,12,-1719,-4720,23,-87,-38,35
404,8639,23,-1719,-4721,23,-88,-38,34
405,8634,19,-1758,-4723,23,-86,-38,36
406,8641,16,-1722,-4728,23,-87,-37,35
407,8629,9,-1710,-4724,23,-86,-38,36
408,8630,11,-1696,-4719,23,-86,-39,34
409,8643,10,-1718,-4722,23,-87,-37,35
410,8636,12,-1711,-4726,23,-87,-39,34
411,8634,0,-1724,-4728,23,-86,-38,33
412,8629,-1,-1729,-4727,23,-87,-37,34
413,8613,7,-1694,-4720,23,-88,-37,34
414,8626,-2,-1706,-4722,23,-83,-37,34
415,8625,1,-1743,-4723,23,-87,-36,35
416,8634,11,-1704,-4717,23,-87,-36,35
417,8628,13,-1725,-4721,23,-86,-38,34
418,8645,8,-1721,-4717,23,-86,-39,34
419,8637,14,-1704,-4717,23,-85,-37,34
420,8633,-6,-1724,-4723,23,-87,-38,33
421,8619,-8,-1712,-4717,23,-87,-38,34
422,8617,7,-1713,-4723,23,-86,-37,34
423,8631,20,-1732,-4722,23,-87,-36,34
424,8623,4,-1737,-4730,23,-87,-37,35
425,8635,5,-1732,-4721,23,-87,-37,33
426,8623,10,-1722,-4725,23,-88,-38,34
427,8632,18,-1697,-4725,23,-89,-39,35
428,8618,13,-1688,-4725,23,-87,-38,36
429,8634,-1,-1714,-4723,23,-86,-38,34
430,8631,-5,-1724,-4725,23,-86,-39,35
431,8654,2,-1719,-4720,23,-84,-40,34
432,8632,0,-1724,-4723,23,-84,-39,35
433,8626,8,-1702,-4721,23,-85,-37,33
434,8640,-9,-1712,-4719,23,-86,-38,33
435,8645,-15,-1696,-4717,23,-88,-37,34
436,8627,11,-1716,-4720,23,-90,-37,34
437,8624,13,-1713,-4715,23,-87,-37,36
438,8635,8,-1710,-4719,23,-86,-39,35
439,8634,14,-1703,-4726,23,-87,-40,35
440,8631,0,-1697,-4725,23,-87,-39,35
441,8616,-6,-1703,-4716,23,-87,-39,35
442,8618,-13,-1704,-4719,23,-87,-38,34
443,8628,-7,-1688,-4724,23,-87,-39,34
444,8635,-2,-1712,-4720,23,-86,-38,34
445,8633,13,-1710,-4717,23,-86,-39,35
446,8632,27,-1739,-4719,23,-86,-39,34
447,8636,6,-1721,-4723,23,-86,-38,35
448,8636,9,-1699,-4720,23,-87,-37,35
449,8635,6,-1693,-4723,23,-85,-36,34
450,8626,10,-1711,-4719,23,-88,-36,34
451,8618,21,-1738,-4720,23,-86,-37,34
452,8625,23,-1721,-4721,23,-88,-38,35
453,8616,23,-1716,-4720,23,-89,-37,33
454,8640,-12,-1708,-4722,23,-88,-38,34
455,8653,-4,-1706,-4720,23,-87,-37,35
456,8626,-7,-1707,-4717,23,-86,-38,35
457,8627,-9,-1713,-4722,23,-85,-37,34
458,8644,-7,-1702,-4724,23,-85,-37,35
459,8655,-12,-1696,-4726,23,-88,-37,36
460,8655,19,-1711,-4725,23,-89,-38,36
461,8640,18,-1714,-4724,23,-87,-37,35
462,8634,10,-1691,-4718,23,-87,-38,35
463,8630,6,-1687,-4719,23,-88,-39,33
464,8646,9,-1708,-4718,23,-88,-42,34
465,8634,11,-1704,-4723,23,-89,-38,35
466,8645,11,-1714,-4722,23,-89,-39,34
467,8640,3,-1711,-4718,23,-88,-39,35
468,8642,18,-1715,-4720,23,-86,-39,34
469,8631,5,-1711,-4725,23,-86,-38,33
470,8630,4,-1728,-4723,23,-85,-39,34
471,8645,7,-1729,-4723,23,-87,-38,36
472,8619,15,-1718,-4724,23,-85,-39,35
473,8628,16,-1695,-4716,23,-87,-39,33
474,8642,2,-1703,-4715,23,-88,-39,34
475,8641,0,-1699,-4723,23,-88,-38,34
476,8633,5,-1713,-4722,23,-88,-38,33
477,8625,8,-1721,-4719,23,-89,-36,32
478,8634,10,-1719,-4721,23,-88,-35,32
479,8633,2,-1708,-4722,23,-85,-36,33
480,8633,16,-1686,-4720,23,-87,-38,35
481,8632,7,-1716,-4720,23,-86,-36,35
482,8636,3,-1716,-4717,23,-87,-38,35
483,8637,-1,-1733,-4716,23,-86,-37,35
484,8633,5,-1718,-4718,23,-86,-37,36
485,8634,23,-1709,-4724,23,-86,-39,34
486,8636,7,-1709,-4718,23,-87,-40,35
487,8623,6,-1712,-4718,23,-86,-40,35
488,8634,5,-1719,-4718,23,-88,-39,35
489,8646,9,-1735,-4719,23,-89,-39,33
490,8639,22,-1741,-4715,23,-89,-38,35
491,8639,10,-1717,-4718,23,-87,-37,36
492,8632,17,-1721,-4716,23,-86,-38,34
493,8639,28,-1727,-4722,23,-87,-39,37
494,8634,13,-1729,-4722,23,-86,-37,37
495,8634,5,-1704,-4720,23,-86,-38,36
496,8653,3,-1709,-4721,23,-87,-37,34
497,8632,-21,-1722,-4718,23,-87,-38,34
498,8637,0,-1712,-4720,23,-88,-39,35
499,8630,-1,-1725,-4723,23,-88,-38,35
500,8639,-5,-1711,-4724,23,-87,-38,33
501,8637,22,-1722,-4721,23,-86,-40,33
502,8627,17,-1710,-4718,23,-88,-39,34
503,8628,22,-1721,-4719,23,-89,-40,33
504,8635,16,-1714,-4721,23,-88,-41,35
505,8643,21,-1735,-4720,23,-87,-40,35
506,8633,12,-1732,-4720,23,-88,-40,35
507,8609,14,-1715,-4720,23,-88,-40,34
508,8622,10,-1708,-4716,23,-87,-38,34
509,8634,3,-1729,-4722,23,-87,-39,34
510,8636,12,-1697,-4721,23,-89,-38,34
511,8642,19,-1729,-4723,23,-89,-37,34
512,8636,13,-1715,-4719,23,-89,-38,32
513,8635,13,-1712,-4718,23,-88,-38,34
514,8643,14,-1715,-4713,23,-87,-38,34
515,8640,5,-1717,-4719,23,-88,-41,33
516,8635,17,-1703,-4715,23,-86,-36,35
517,8640,18,-1697,-4718,23,-88,-39,35
518,8638,17,-1716,-4716,23,-88,-38,34
519,8650,30,-1722,-4714,23,-86,-39,34
520,8639,9,-1713,-4722,23,-86,-38,34
521,8634,4,-1707,-4720,23,-88,-37,34
522,8637,16,-1695,-4716,23,-87,-39,35
523,8643,18,-1725,-4722,23,-85,-39,34
524,8644,20,-1709,-4723,23,-86,-38,34
525,8632,13,-1727,-4721,23,-87,-38,34
526,8633,3,-1723,-4724,23,-87,-39,35
527,8635,14,-1733,-4724,23,-87,-38,35
528,8634,11,-1716,-4723,23,-87,-37,34
529,8633,12,-1729,-4721,23,-89,-36,36
530,8641,15,-1715,-4719,23,-86,-36,35
531,8621,16,-1711,-4719,23,-87,-38,33
532,8618,18,-1707,-4721,23,-86,-39,35
533,8616,10,-1721,-4724,23,-85,-40,35
534,8633,2,-1738,-4721,23,-85,-39,36
535,8648,-1,-1739,-4721,23,-86,-37,35
536,8638,15,-1737,-4723,23,-86,-36,33
537,8626,3,-1739,-4718,23,-85,-40,34
538,8625,0,-1726,-4724,23,-85,-39,35
539,8628,14,-1731,-4724,23,-86,-40,35
540,8625,19,-1713,-4721,23,-85,-40,33
541,8623,4,-1692,-4724,23,-85,-38,34
542,8630,-5,-1720,-4719,23,-87,-37,34
543,8631,0,-1707,-4718,23,-86,-38,33
544,8625,13,-1675,-4720,23,-85,-38,34
545,8633,18,-1722,-4718,23,-86,-38,34
546,8627,21,-1724,-4720,23,-86,-39,34
547,8619,9,-1727,-4721,23,-86,-37,34
548,8636,6,-1735,-4720,23,-85,-39,35
549,8628,5,-1718,-4721,23,-85,-38,35
550,8624,17,-1702,-4720,23,-87,-39,35
551,8630,19,-1720,-4723,23,-86,-38,35
552,8617,11,-1722,-4720,23,-88,-37,34
553,8629,15,-1714,-4726,23,-87,-39,35
554,8629,-2,-1730,-4723,23,-87,-38,33
555,8624,19,-1717,-4730,23,-88,-38,35
556,8626,11,-1719,-4726,23,-87,-37,35
557,8636,2,-1723,-4722,23,-86,-38,37
558,8647,7,-1736,-4721,23,-88,-37,35
559,8641,13,-1737,-4721,23,-88,-37,35
560,8625,9,-1717,-4716,23,-88,-36,36
561,8635,7,-1696,-4721,23,-85,-36,35
562,8626,-10,-1705,-4720,23,-87,-36,35
563,8631,-6,-1702,-4718,23,-86,-35,35
564,8642,21,-1698,-4719,23,-86,-37,36
565,8625,7,-1720,-4723,23,-87,-38,34
566,8633,16,-1724,-4725,23,-86,-39,35
567,8640,4,-1722,-4719,23,-87,-38,34
568,8647,10,-1723,-4716,23,-85,-37,35
569,8632,13,-1746,-4718,23,-85,-38,34
570,8625,16,-1738,-4727,23,-87,-39,34
571,8632,1,-1731,-4722,23,-88,-39,34
572,8629,27,-1716,-4717,23,-86,-39,33
573,8637,3,-1744,-4718,23,-87,-38,33
574,8622,-8,-1725,-4719,23,-87,-39,32
575,8617,4,-1703,-4727,23,-88,-38,33
576,8622,9,-1705,-4722,23,-87,-40,35
577,8620,15,-1703,-4722,23,-87,-38,35
578,8634,3,-1712,-4722,23,-87,-38,35
579,8634,4,-1708,-4726,23,-87,-37,33
580,8642,22,-1709,-4723,23,-88,-39,33
581,8630,12,-1706,-4723,23,-87,-37,34
582,8636,4,-1697,-4730,23,-88,-36,35
583,8631,9,-1692,-4722,23,-88,-38,34
584,8637,13,-1691,-4721,23,-88,-38,35
585,8629,6,-1700,-4715,23,-87,-37,36
586,8637,9,-1711,-4715,23,-86,-39,37
587,8642,5,-1703,-4721,23,-87,-36,35
588,8637,2,-1708,-4724,23,-87,-39,34
589,8641,12,-1711,-4719,23,-86,-39,35
590,8636,21,-1721,-4721,23,-87,-39,35
591,8634,6,-1735,-4719,23,-87,-38,36
592,8634,13,-1711,-4720,23,-88,-38,35
593,8615,-7,-1697,-4720,23,-86,-38,36
594,8633,-10,-1709,-4714,23,-85,-37,34
595,8643,-6,-1700,-4723,23,-86,-39,35
596,8638,3,-1719,-4719,23,-86,-38,34
597,8644,7,-1709,-4718,23,-87,-37,34
598,8647,8,-1698,-4723,23,-87,-37,36
599,8642,13,-1728,-4722,23,-88,-39,35
600,8646,18,-1724,-4719,23,-88,-40,36
601,8629,21,-1729,-4721,23,-88,-37,34
602,8631,21,-1720,-4726,23,-88,-38,34
603,8642,7,-1725,-4721,23,-88,-35,35
604,8630,13,-1705,-4719,23,-87,-36,34
605,8624,7,-1688,-4724,23,-86,-38,34
606,8625,8,-1726,-4723,23,-87,-38,34
607,8631,0,-1713,-4718,23,-89,-37,34
608,8638,-5,-1731,-4719,23,-89,-36,34
609,8632,2,-1737,-4719,23,-87,-37,36
610,8642,11,-1728,-4719,23,-85,-39,34
611,8649,28,-1720,-4710,23,-88,-38,34
612,8632,23,-1714,-4716,23,-87,-39,35
613,8642,16,-1715,-4715,23,-87,-36,34
614,8630,13,-1737,-4711,23,-86,-35,34
615,8634,-1,-1708,-4713,23,-88,-36,37
616,8637,7,-1715,-4717,23,-88,-37,36
617,8635,-1,-1717,-4713,23,-87,-39,35
618,8635,7,-1717,-4719,23,-87,-38,35
619,8637,6,-1721,-4718,23,-86,-37,35
620,8641,10,-1718,-4720,23,-86,-38,35
621,8637,23,-1717,-4720,23,-88,-40,34
622,8634,8,-1715,-4715,23,-87,-39,34
623,8637,11,-1710,-4720,23,-87,-39,36
624,8647,-2,-1690,-4719,23,-86,-37,35
625,8645,19,-1706,-4721,23,-88,-36,35
626,8647,11,-1725,-4724,23,-88,-38,35
627,8641,2,-1715,-4721,23,-87,-37,36
628,8633,-1,-1719,-4716,23,-86,-37,35
629,8640,14,-1732,-4722,23,-86,-37,35
630,8638,3,-1725,-4721,23,-87,-37,34
631,8641,1,-1735,-4722,23,-87,-36,34
632,8639,18,-1747,-4719,23,-88,-38,34
633,8634,11,-1744,-4720,23,-87,-37,37
634,8633,24,-1715,-4723,23,-87,-38,36
635,8651,3,-1708,-4719,23,-88,-38,35
636,8646,-7,-1698,-4718,23,-87,-35,35
637,8636,-3,-1711,-4719,23,-86,-36,35
638,8608,12,-1722,-4719,23,-87,-36,33
639,8624,26,-1711,-4721,23,-87,-37,34
640,8633,9,-1701,-4720,23,-87,-37,35
641,8640,11,-1722,-4719,23,-88,-39,34
642,8648,12,-1715,-4718,23,-87,-37,34
643,8642,2,-1740,-4721,23,-89,-37,35
644,8641,10,-1721,-4720,23,-87,-39,35
645,8642,26,-1699,-4722,23,-89,-38,35
646,8628,12,-1712,-4722,23,-86,-38,35
647,8635,8,-1715,-4719,23,-85,-38,36
648,8639,6,-1715,-4719,23,-87,-38,35
649,8653,12,-1717,-4718,23,-87,-37,34
650,8635,15,-1714,-4716,23,-88,-38,34
651,8629,21,-1708,-4714,23,-89,-37,35
652,8629,25,-1703,-4721,23,-87,-39,36
653,8641,0,-1713,-4722,23,-88,-38,35
654,8642,10,-1703,-4723,23,-87,-38,35
655,8629,20,-1722,-4723,23,-85,-40,34
656,8642,12,-1726,-4723,23,-85,-39,35
657,8641,4,-1726,-4720,23,-87,-38,36
658,8639,18,-1749,-4714,23,-86,-40,34
659,8640,17,-1738,-4717,23,-87,-40,33
660,8631,7,-1722,-4719,23,-87,-38,34
661,8624,19,-1736,-4720,23,-87,-38,35
662,8640,19,-1716,-4725,23,-88,-38,34
663,8623,2,-1715,-4717,23,-88,-39,35
664,8636,-2,-1703,-4715,23,-86,-40,34
665,8649,10,-1738,-4717,23,-85,-38,35
666,8644,25,-1736,-4715,23,-86,-37,34
667,8650,17,-1732,-4718,23,-88,-37,33
668,8638,17,-1718,-4717,23,-87,-37,33
669,8635,17,-1716,-4718,23,-86,-38,36
670,8629,23,-1714,-4720,23,-89,-36,35
671,8630,10,-1713,-4719,23,-88,-37,36
672,8629,18,-1717,-4714,23,-86,-37,34
673,8633,17,-1716,-4714,23,-86,-39,34
674,8651,12,-1710,-4716,23,-86,-37,34
675,8634,22,-1723,-4717,23,-87,-37,35
676,8623,10,-1716,-4717,23,-86,-40,35
677,8636,33,-1732,-4715,23,-85,-37,34
678,8627,-2,-1722,-4714,23,-87,-37,34
679,8631,-1,-1730,-4715,23,-87,-38,35
680,8617,8,-1712,-4713,23,-87,-37,34
681,8643,5,-1724,-4715,23,-86,-38,35
682,8650,5,-1719,-4716,23,-86,-37,36
683,8636,7,-1729,-4710,23,-88,-38,35
684,8635,22,-1706,-4716,23,-87,-39,34
685,8632,1,-1717,-4717,23,-87,-39,33
686,8628,-7,-1731,-4712,23,-89,-38,35
687,8632,16,-1721,-4720,23,-86,-38,35
688,8615,23,-1724,-4723,23,-87,-38,35
689,8638,10,-1739,-4718,23,-87,-37,34
690,8624,12,-1731,-4712,23,-85,-37,34
691,8616,16,-1734,-4716,23,-85,-37,34
692,8608,-1,-1724,-4715,23,-86,-36,35
693,8607,2,-1716,-4712,23,-87,-37,34
694,8623,3,-1683,-4716,23,-87,-38,33
695,8634,19,-1705,-4712,23,-87,-38,34
696,8631,0,-1709,-4712,23,-87,-38,33
697,8639,0,-1716,-4718,23,-89,-39,34
698,8642,-7,-1739,-4725,23,-89,-36,33
699,8643,6,-1731,-4719,23,-86,-38,34
700,8632,11,-1733,-4717,23,-87,-40,34
701,8638,20,-1747,-4720,23,-87,-38,34
702,8622,24,-1705,-4719,23,-87,-38,34
703,8629,10,-1713,-4719,23,-88,-37,34
704,8628,23,-1730,-4714,23,-89,-38,34
705,8635,6,-1711,-4705,23,-87,-37,33
706,8622,6,-1718,-4715,23,-86,-36,34
707,8628,11,-1712,-4716,23,-86,-37,35
708,8633,7,-1737,-4720,23,-85,-38,34
709,8630,14,-1729,-4720,23,-86,-37,33
710,8629,20,-1700,-4714,23,-86,-38,34
711,8643,18,-1720,-4717,23,-88,-38,35
712,8646,29,-1720,-4717,23,-87,-39,34
713,8644,22,-1735,-4715,23,-86,-39,35
714,8641,23,-1713,-4711,23,-86,-36,35
715,8631,28,-1701,-4711,23,-86,-37,35
716,8638,7,-1703,-4715,23,-87,-37,36
717,8637,19,-1723,-4717,23,-84,-37,35
718,8641,23,-1713,-4715,23,-86,-38,35
719,8644,4,-1714,-4715,23,-87,-37,34
720,8644,14,-1707,-4720,23,-87,-37,34
721,8647,16,-1706,-4720,23,-87,-38,34
722,8649,17,-1719,-4719,23,-88,-37,35
723,8639,25,-1717,-4717,23,-86,-37,35
724,8650,24,-1701,-4716,23,-87,-37,34
725,8630,13,-1719,-4722,23,-87,-38,36
726,8642,2,-1715,-4718,23,-87,-39,35
727,8648,13,-1718,-4718,23,-86,-39,34
728,8644,-2,-1691,-4718,23,-85,-38,35
729,8647,8,-1698,-4718,23,-84,-37,36
730,8632,13,-1713,-4715,23,-86,-37,36
731,8614,19,-1724,-4715,23,-87,-38,37
732,8617,13,-1705,-4724,23,-88,-38,36
733,8618,5,-1719,-4717,23,-87,-39,34
734,8611,9,-1703,-4717,23,-87,-37,36
735,8630,10,-1723,-4718,23,-88,-38,35
736,8634,5,-1711,-4714,23,-88,-39,35
737,8642,-4,-1720,-4715,23,-88,-38,34
738,8645,6,-1737,-4716,23,-87,-37,34
739,8644,-4,-1730,-4712,23,-87,-39,32
740,8628,13,-1712,-4705,23,-87,-38,33
741,8622,3,-1716,-4716,23,-86,-38,36
742,8633,10,-1710,-4712,23,-88,-39,36
743,8629,10,-1739,-4720,23,-86,-38,35
744,8634,9,-1735,-4715,23,-87,-37,36
745,8633,19,-1727,-4715,23,-87,-39,34
746,8640,5,-1736,-4720,23,-88,-41,34
747,8641,5,-1731,-4717,23,-86,-38,34
748,8636,10,-1723,-4710,23,-87,-37,35
749,8637,27,-1724,-4711,23,-88,-37,35
750,8651,19,-1715,-4710,23,-89,-38,34
751,8640,22,-1718,-4716,23,-88,-39,35
752,8637,17,-1717,-4716,23,-87,-37,36
753,8628,12,-1707,-4715,23,-87,-36,34
754,8633,12,-1694,-4721,23,-87,-38,34
755,8623,20,-1695,-4717,23,-87,-38,36
756,8619,12,-1714,-4722,23,-87,-38,34
757,8629,21,-1729,-4719,23,-88,-39,34
758,8623,9,-1733,-4718,23,-86,-39,34
759,8624,20,-1721,-4719,23,-88,-38,35
760,8628,14,-1722,-4720,23,-87,-38,34
761,8637,7,-1724,-4717,23,-86,-38,34
762,8641,-7,-1711,-4716,23,-86,-38,35
763,8627,4,-1699,-4727,23,-85,-36,35
764,8635,24,-1691,-4718,23,-85,-38,35
765,8630,26,-1693,-4718,23,-86,-40,33
766,8640,20,-1712,-4721,23,-87,-37,34
767,8630,12,-1709,-4719,23,-86,-38,34
768,8626,3,-1709,-4716,23,-87,-39,34
769,8644,7,-1736,-4716,23,-85,-36,34
770,8655,10,-1753,-4718,23,-87,-38,33
771,8645,16,-1727,-4720,23,-86,-36,34
772,8628,16,-1722,-4719,23,-86,-38,35
773,8622,9,-1710,-4719,23,-85,-39,34
774,8641,8,-1723,-4711,23,-86,-40,35
775,8643,17,-1719,-4717,23,-87,-39,35
776,8628,11,-1727,-4720,23,-85,-41,34
777,8641,2,-1728,-4720,23,-84,-37,34
778,8641,-6,-1727,-4719,23,-87,-38,35
779,8628,12,-1717,-4716,23,-88,-37,33
780,8628,5,-1723,-4716,23,-86,-37,33
781,8637,12,-1732,-4711,23,-88,-38,33
782,8632,2,-1732,-4719,23,-87,-36,34
783,8650,-7,-1739,-4715,23,-88,-39,35
784,8654,7,-1736,-4712,23,-89,-39,35
785,8637,0,-1724,-4718,23,-89,-38,34
786,8641,6,-1728,-4721,23,-88,-38,36
787,8638,6,-1738,-4721,23,-87,-40,35
788,8639,-2,-1747,-4720,23,-87,-39,36
789,8630,4,-1723,-4716,23,-86,-38,36
790,8636,-5,-1723,-4715,23,-88,-38,36
791,8640,-9,-1740,-4718,23,-87,-38,35
792,8639,-7,-1722,-4719,23,-88,-38,35
793,8643,9,-1716,-4717,23,-86,-38,33
794,8626,5,-1710,-4717,23,-87,-39,34
795,8632,3,-1710,-4720,23,-86,-39,35
796,8640,4,-1740,-4718,23,-86,-37,35
797,8634,12,-1712,-4719,23,-89,-38,35
798,8622,13,-1710,-4716,23,-88,-39,35
799,8639,16,-1714,-4722,23,-87,-37,35
800,8663,11,-1718,-4723,23,-87,-38,35
801,8660,11,-1713,-4715,23,-88,-39,34
802,8643,11,-1696,-4716,23,-87,-37,35
803,8641,31,-1717,-4715,23,-87,-38,34
804,8634,15,-1728,-4714,23,-85,-38,34
805,8632,20,-1742,-4708,23,-87,-38,35
806,8640,4,-1712,-4714,23,-85,-38,35
807,8622,14,-1717,-4715,23,-87,-38,36
808,8626,11,-1718,-4715,23,-85,-35,36
809,8622,15,-1714,-4719,23,-86,-37,34
810,8623,12,-1720,-4717,23,-86,-37,34
811,8635,-3,-1724,-4719,23,-87,-37,33
812,8632,1,-1717,-4719,23,-86,-38,34
813,8638,4,-1704,-4714,23,-88,-39,35
814,8628,8,-1723,-4721,23,-86,-39,33
815,8635,18,-1720,-4720,23,-87,-40,34
816,8645,14,-1712,-4719,23,-88,-41,34
817,8649,6,-1713,-4719,23,-87,-38,34
818,8636,23,-1723,-4717,23,-87,-37,34
819,8658,13,-1709,-4720,23,-88,-39,35
820,8627,7,-1727,-4720,23,-89,-39,33
821,8645,22,-1706,-4719,23,-87,-39,34
822,8636,19,-1715,-4719,23,-88,-40,34
823,8645,16,-1727,-4724,23,-86,-38,35
824,8650,14,-1721,-4715,23,-87,-37,35
825,8646,18,-1725,-4719,23,-87,-36,34
826,8642,15,-1718,-4715,23,-86,-37,35
827,8646,4,-1713,-4717,23,-86,-38,33
828,8642,-1,-1735,-4720,23,-86,-39,34
829,8642,3,-1739,-4719,23,-87,-39,34
830,8637,-4,-1715,-4715,23,-86,-38,36
831,8630,11,-1693,-4719,23,-86,-39,35
832,8624,6,-1710,-4715,23,-85,-38,35
833,8635,16,-1729,-4718,23,-86,-38,33
834,8634,6,-1711,-4714,23,-87,-38,33
835,8625,-1,-1709,-4719,23,-86,-39,34
836,8623,6,-1718,-4722,23,-86,-38,36
837,8626,10,-1737,-4718,23,-87,-38,34
838,8629,-3,-1724,-4721,23,-86,-38,35
839,8626,5,-1736,-4717,23,-88,-38,35
840,8631,4,-1713,-4714,23,-86,-38,33
841,8639,7,-1695,-4713,23,-87,-38,33
842,8627,18,-1691,-4716,23,-87,-39,33
843,8634,11,-1698,-4713,23,-88,-40,35
844,8635,10,-1693,-4712,23,-87,-39,35
845,8642,2,-1708,-4712,23,-86,-36,35
846,8642,2,-1703,-4715,23,-85,-38,36
847,8632,11,-1718,-4717,23,-87,-37,34
848,8634,-5,-1730,-4711,23,-86,-36,35
849,8643,22,-1718,-4717,23,-87,-38,34
850,8643,9,-1709,-4714,23,-88,-37,33
851,8634,23,-1714,-4716,23,-88,-36,34
852,8635,8,-1725,-4716,23,-87,-36,36
853,8632,16,-1718,-4718,23,-86,-38,34
854,8645,20,-1723,-4711,23,-86,-38,35
855,8637,2,-1726,-4717,23,-85,-37,36
856,8624,-2,-1715,-4715,23,-86,-38,36
857,8629,-3,-1715,-4712,23,-85,-39,36
858,8641,9,-1720,-4717,23,-86,-40,33
859,8639,5,-1737,-4714,23,-85,-39,33
860,8642,13,-1710,-4712,23,-87,-40,33
861,8637,24,-1714,-4717,23,-86,-38,35
862,8639,22,-1721,-4715,23,-87,-38,35
863,8642,5,-1734,-4714,23,-88,-37,36
864,8631,19,-1733,-4718,23,-89,-39,38
865,8630,10,-1717,-4717,23,-87,-38,35
866,8644,7,-1740,-4716,23,-87,-37,35
867,8633,-8,-1735,-4720,23,-86,-37,35
868,8624,2,-1718,-4720,23,-85,-37,34
869,8644,10,-1692,-4718,23,-86,-36,34
870,8631,9,-1721,-4717,23,-86,-36,35
871,8638,11,-1721,-4718,23,-87,-37,33
872,8634,18,-1710,-4715,23,-88,-37,35
873,8632,13,-1722,-4716,23,-89,-39,35
874,8650,-4,-1706,-4718,23,-86,-37,34
875,8651,24,-1736,-4719,23,-88,-36,35
876,8628,23,-1718,-4714,23,-88,-38,35
877,8635,16,-1702,-4713,23,-86,-38,36
878,8634,15,-1711,-4710,23,-86,-39,37
879,8635,16,-1709,-4714,23,-89,-39,35
880,8633,14,-1705,-4717,23,-89,-38,34
881,8636,22,-1720,-4717,23,-85,-38,35
882,8654,16,-1702,-4714,23,-87,-40,33
883,8645,6,-1730,-4718,23,-86,-39,35
884,8642,3,-1732,-4720,23,-86,-38,33
885,8642,10,-1738,-4714,23,-86,-36,33
886,8616,6,-1728,-4715,23,-85,-37,34
887,8618,-3,-1728,-4717,23,-88,-38,33
888,8636,8,-1733,-4717,23,-87,-40,34
889,8643,30,-1734,-4713,23,-89,-39,34
890,8640,13,-1675,-4711,23,-85,-39,34
891,8620,21,-1695,-4713,23,-86,-38,33
892,8636,18,-1706,-4713,23,-87,-39,33
893,8637,12,-1722,-4718,23,-86,-39,34
894,8641,10,-1734,-4721,23,-86,-37,33
895,8636,20,-1722,-4716,23,-85,-37,35
896,8636,9,-1735,-4714,23,-85,-36,37
897,8630,9,-1718,-4714,23,-86,-38,37
898,8618,24,-1733,-4720,23,-87,-38,36
899,8625,11,-1705,-4717,23,-88,-37,35
900,8632,17,-1696,-4716,23,-86,-36,35
901,8625,19,-1712,-4713,23,-86,-38,36
902,8618,17,-1720,-4713,23,-88,-38,36
903,8618,3,-1715,-4715,23,-87,-39,34
904,8633,4,-1707,-4710,23,-86,-39,35
905,8639,9,-1715,-4714,23,-86,-39,34
906,8641,2,-1732,-4712,23,-87,-40,35
907,8635,18,-1718,-4714,23,-87,-41,36
908,8636,13,-1715,-4708,23,-87,-37,35
909,8636,-3,-1712,-4710,23,-87,-37,34
910,8632,1,-1710,-4714,23,-86,-38,34
911,8632,12,-1716,-4711,23,-85,-37,34
912,8616,7,-1710,-4713,23,-86,-38,35
913,8635,6,-1700,-4717,23,-87,-37,36
914,8623,22,-1725,-4713,23,-85,-40,35
915,8628,4,-1745,-4718,23,-87,-40,33
916,8646,7,-1713,-4717,23,-87,-39,34
917,8627,11,-1729,-4709,23,-86,-40,34
918,8644,10,-1725,-4713,23,-87,-38,33
919,8640,12,-1726,-4713,23,-86,-38,35
920,8659,16,-1743,-4711,23,-86,-40,34
921,8633,17,-1713,-4714,23,-87,-36,32
922,8627,10,-1739,-4714,23,-88,-37,36
923,8622,0,-1732,-4714,23,-88,-40,34
924,8635,17,-1695,-4716,23,-85,-38,33
925,8636,16,-1700,-4718,23,-87,-38,35
926,8633,13,-1714,-4718,23,-88,-39,36
927,8631,16,-1719,-4715,23,-85,-38,36
928,8627,7,-1728,-4712,23,-87,-38,35
929,8623,20,-1733,-4707,23,-88,-37,34
930,8635,2,-1731,-4707,23,-86,-39,35
931,8647,16,-1728,-4713,23,-85,-37,34
932,8637,-1,-1709,-4714,23,-88,-38,35
933,8641,-3,-1710,-4711,23,-87,-38,35
934,8631,-4,-1741,-4719,23,-87,-37,34
935,8628,2,-1735,-4714,23,-86,-36,35
936,8617,7,-1723,-4716,23,-86,-38,35
937,8626,3,-1723,-4711,23,-86,-38,35
938,8634,8,-1702,-4707,23,-86,-38,34
939,8642,13,-1713,-4705,23,-87,-38,34
940,8627,11,-1725,-4713,23,-86,-38,36
941,8647,9,-1722,-4713,23,-86,-38,35
942,8637,25,-1722,-4714,23,-87,-39,34
943,8628,19,-1716,-4711,23,-87,-38,33
944,8632,19,-1719,-4710,23,-88,-37,34
945,8624,26,-1722,-4715,23,-87,-39,32
946,8646,4,-1707,-4712,23,-86,-39,34
947,8645,7,-1735,-4717,23,-86,-37,34
948,8627,6,-1710,-4716,23,-86,-38,34
949,8631,3,-1725,-4714,23,-88,-38,33
950,8623,10,-1707,-4709,23,-87,-38,33
951,8633,7,-1705,-4712,23,-87,-38,34
952,8638,14,-1715,-4714,23,-89,-38,35
953,8630,14,-1717,-4716,23,-88,-37,34
954,8630,19,-1708,-4714,23,-87,-37,36
955,8629,5,-1737,-4712,23,-87,-37,35
956,8629,2,-1724,-4715,23,-87,-36,34
957,8637,4,-1722,-4714,23,-86,-40,34
958,8628,7,-1717,-4712,23,-87,-39,34
959,8639,12,-1727,-4717,23,-88,-38,34
960,8637,4,-1725,-4712,23,-88,-38,34
961,8633,11,-1704,-4711,23,-88,-39,34
962,8652,4,-1712,-4713,23,-87,-37,36
963,8647,10,-1712,-4718,23,-89,-38,35
964,8640,11,-1708,-4719,23,-88,-38,35
965,8640,8,-1723,-4719,23,-86,-38,37
966,8634,21,-1708,-4719,23,-88,-37,37
967,8633,13,-1737,-4712,23,-87,-40,36
968,8641,25,-1731,-4712,23,-87,-38,32
969,8649,24,-1735,-4712,23,-86,-39,34
970,8640,8,-1730,-4714,23,-87,-37,34
971,8640,10,-1719,-4710,23,-89,-39,34
972,8634,13,-1728,-4710,23,-87,-38,33
973,8624,18,-1748,-4710,23,-86,-39,34
974,8638,19,-1733,-4711,23,-88,-38,34
975,8623,20,-1729,-4715,23,-87,-39,35
976,8627,6,-1706,-4717,23,-87,-37,35
977,8636,3,-1748,-4710,23,-87,-36,35
978,8641,3,-1719,-4711,23,-87,-37,33
979,8636,-13,-1722,-4715,23,-89,-38,34
980,8648,0,-1707,-4711,23,-87,-37,33
981,8614,14,-1722,-4714,23,-86,-39,35
982,8627,23,-1706,-4717,23,-86,-41,33
983,8638,35,-1728,-4717,23,-85,-40,33
984,8644,12,-1735,-4715,23,-85,-40,33
985,8639,18,-1729,-4716,23,-86,-38,34
986,8635,26,-1707,-4713,23,-87,-37,36
987,8644,11,-1734,-4709,23,-88,-36,35
988,8636,6,-1723,-4713,23,-89,-38,34
989,8625,16,-1727,-4717,23,-88,-38,35
990,8645,7,-1706,-4714,23,-89,-37,35
991,8638,3,-1727,-4710,23,-87,-37,34
992,8622,-3,-1733,-4711,23,-88,-37,33
993,8619,6,-1717,-4711,23,-86,-36,35
994,8622,5,-1699,-4707,23,-86,-39,36
995,8623,12,-1709,-4710,23,-85,-39,35
996,8636,16,-1720,-4712,23,-86,-38,35
997,8628,19,-1735,-4711,23,-86,-38,35
998,8627,14,-1738,-4712,23,-87,-38,34
