,acc_X,acc_Y,acc_Z,temp,tempC,gyr_X,gyr_Y,gyr_Z
0,17262,42,-3426,-4801,22,-350,-134,148
1,17292,2,-3332,-4794,22,-358,-141,132
2,17272,26,-3440,-4789,22,-360,-168,149
3,17268,-4,-3370,-4791,22,-339,-152,142
4,17276,18,-3438,-4785,22,-338,-147,142
5,17222,84,-3400,-4784,22,-344,-156,147
6,17282,-38,-3380,-4780,22,-349,-142,139
7,17286,66,-3418,-4787,22,-350,-155,132
8,17280,46,-3400,-4790,22,-348,-147,141
9,17298,-8,-3514,-4783,22,-353,-144,159
10,17252,-2,-3390,-4787,22,-356,-136,147
11,17276,-22,-3382,-4784,22,-336,-151,138
12,17240,-30,-3452,-4780,22,-349,-146,139
13,17278,22,-3422,-4782,22,-347,-165,149
14,17236,36,-3408,-4782,22,-353,-147,143
15,17284,8,-3462,-4781,22,-327,-164,136
16,17246,14,-3424,-4778,22,-347,-156,146
17,17268,-36,-3406,-4782,22,-351,-147,136
18,17208,-4,-3454,-4772,22,-330,-147,139
19,17294,42,-3364,-4777,22,-341,-141,124
20,17282,-44,-3380,-4786,22,-340,-137,138
21,17258,-16,-3394,-4787,22,-342,-170,147
22,17280,24,-3450,-4780,22,-355,-171,145
23,17264,-38,-3416,-4788,22,-355,-135,134
24,17264,-24,-3386,-4787,22,-345,-158,142
25,17224,-10,-3414,-4792,22,-346,-145,142
26,17276,48,-3398,-4777,22,-346,-153,157
27,17258,-18,-3336,-4785,22,-348,-160,145
28,17254,-54,-3370,-4774,22,-359,-143,132
29,17256,28,-3442,-4791,22,-352,-158,137
30,17270,70,-3348,-4765,22,-334,-166,122
31,17288,52,-3578,-4752,23,-338,-160,135
32,17266,26,-3296,-4788,22,-352,-145,139
33,17300,-24,-3396,-4776,22,-352,-166,135
34,17290,62,-3382,-4775,22,-357,-166,143
35,17254,14,-3356,-4777,22,-334,-148,140
36,17256,40,-3410,-4775,22,-340,-138,133
37,17266,32,-3450,-4765,22,-351,-161,148
38,17262,-10,-3388,-4777,22,-341,-146,140
39,17214,-18,-3390,-4766,22,-352,-152,146
40,17286,32,-3324,-4767,22,-346,-154,134
41,17306,-10,-3494,-4785,22,-349,-153,127
42,17232,18,-3444,-4782,22,-351,-156,146
43,17282,0,-3382,-4770,22,-355,-148,131
44,17372,10,-3470,-4772,22,-352,-152,145
45,17280,54,-3440,-4775,22,-356,-157,137
46,17348,24,-3352,-4769,22,-356,-159,120
47,17304,30,-3430,-4772,22,-336,-157,140
48,17232,2,-3406,-4763,22,-339,-146,134
49,17272,-4,-3338,-4778,22,-342,-153,144
50,17248,26,-3370,-4765,22,-343,-146,132
51,17284,64,-3430,-4786,22,-327,-140,141
52,17260,30,-3442,-4779,22,-351,-152,144
53,17312,110,-3338,-4764,22,-339,-167,147
54,17236,-16,-3450,-4767,22,-331,-144,128
55,17324,56,-3310,-4764,22,-350,-157,141
56,17316,36,-3400,-4768,22,-348,-140,141
57,17218,-8,-3514,-4768,22,-361,-145,135
58,17200,70,-3376,-4775,22,-362,-145,139
59,17230,20,-3372,-4768,22,-341,-147,134
60,17306,-12,-3392,-4764,22,-343,-145,140
61,17240,40,-3386,-4764,22,-345,-150,144
62,17304,-10,-3414,-4764,22,-355,-154,142
63,17336,30,-3396,-4758,23,-348,-156,145
64,17266,2,-3364,-4772,22,-339,-152,129
65,17246,-22,-3452,-4769,22,-350,-148,146
66,17240,10,-3428,-4756,23,-350,-148,135
67,17306,2,-3306,-4768,22,-351,-149,130
68,17294,-60,-3332,-4761,22,-331,-161,148
69,17250,16,-3460,-4768,22,-336,-141,122
70,17292,-52,-3334,-4760,22,-344,-136,130
71,17310,64,-3382,-4753,23,-354,-153,132
72,17264,-12,-3358,-4770,22,-346,-143,129
73,17338,2,-3392,-4764,22,-337,-154,127
74,17264,22,-3402,-4764,22,-339,-146,142
75,17264,32,-3420,-4766,22,-333,-147,134
76,17208,12,-3438,-4764,22,-346,-154,148
77,17316,28,-3402,-4760,22,-349,-155,131
78,17258,-10,-3370,-4774,22,-349,-157,124
79,17192,36,-3256,-4762,22,-347,-170,139
80,17310,-10,-3498,-4756,23,-338,-148,148
81,17244,8,-3432,-4766,22,-342,-139,138
82,17212,-10,-3470,-4776,22,-349,-132,140
83,17252,16,-3410,-4765,22,-354,-147,132
84,17272,6,-3296,-4766,22,-346,-159,138
85,17274,82,-3290,-4750,23,-353,-149,147
86,17268,24,-3352,-4766,22,-351,-150,127
87,17224,-2,-3368,-4760,22,-350,-155,146
88,17296,-2,-3412,-4762,22,-357,-141,142
89,17302,-42,-3432,-4763,22,-358,-157,142
90,17242,10,-3336,-4758,23,-344,-151,133
91,17264,-42,-3330,-4775,22,-351,-166,143
92,17242,-6,-3404,-4760,22,-356,-155,138
93,17288,46,-3462,-4758,23,-344,-157,145
94,17258,-20,-3354,-4754,23,-351,-141,133
95,17206,28,-3428,-4761,22,-340,-158,140
96,17228,-34,-3408,-4771,22,-349,-159,143
97,17316,62,-3502,-4769,22,-346,-157,129
98,17228,38,-3422,-4764,22,-341,-156,145
99,17258,46,-3390,-4761,22,-345,-149,132
100,17336,-14,-3476,-4753,23,-344,-143,147
101,17306,38,-3460,-4767,22,-340,-153,143
102,17356,-18,-3414,-4762,22,-343,-154,147
103,17288,34,-3338,-4756,23,-345,-156,139
104,17292,-18,-3384,-4752,23,-346,-141,140
105,17278,18,-3402,-4758,23,-346,-151,144
106,17322,64,-3398,-4757,23,-341,-151,132
107,17276,-4,-3386,-4754,23,-355,-149,138
108,17250,32,-3504,-4753,23,-340,-151,145
109,17270,8,-3350,-4757,23,-337,-164,145
110,17294,2,-3332,-4757,23,-349,-144,153
111,17286,-2,-3378,-4760,22,-351,-151,140
112,17302,28,-3318,-4775,22,-346,-157,138
113,17284,44,-3452,-4754,23,-337,-154,136
114,17296,88,-3470,-4754,23,-359,-146,139
115,17260,-8,-3382,-4758,23,-345,-134,137
116,17258,-18,-3374,-4753,23,-336,-144,149
117,17256,36,-3392,-4761,22,-338,-148,129
118,17268,36,-3376,-4749,23,-351,-146,150
119,17242,18,-3524,-4754,23,-327,-152,143
120,17186,48,-3466,-4765,22,-350,-136,134
121,17342,-8,-3444,-4750,23,-342,-147,137
122,17282,-88,-3356,-4763,22,-354,-163,131
123,17302,-12,-3320,-4754,23,-338,-150,139
124,17278,10,-3380,-4769,22,-357,-136,139
125,17316,28,-3388,-4749,23,-354,-166,133
126,17214,2,-3404,-4767,22,-363,-149,149
127,17246,46,-3396,-4749,23,-348,-150,133
128,17270,70,-3284,-4760,22,-348,-153,136
129,17304,12,-3440,-4764,22,-351,-143,150
130,17306,42,-3310,-4758,23,-340,-147,128
131,17274,8,-3420,-4748,23,-352,-138,131
132,17338,16,-3320,-4748,23,-347,-136,133
133,17262,22,-3386,-4754,23,-345,-155,135
134,17292,-66,-3300,-4763,22,-342,-149,144
135,17310,-22,-3402,-4755,23,-344,-154,146
136,17264,-34,-3470,-4762,22,-350,-155,133
137,17308,40,-3404,-4750,23,-350,-154,149
138,17244,34,-3384,-4758,23,-341,-161,134
139,17268,24,-3320,-4745,23,-355,-158,138
140,17252,-36,-3360,-4749,23,-359,-150,137
141,17236,42,-3274,-4753,23,-356,-156,139
142,17264,2,-3362,-4760,22,-345,-141,146
143,17308,28,-3308,-4751,23,-344,-156,134
144,17252,10,-3346,-4751,23,-355,-146,129
145,17278,2,-3414,-4748,23,-329,-150,136
146,17264,12,-3336,-4754,23,-346,-144,142
147,17248,-2,-3470,-4757,23,-349,-128,128
148,17330,28,-3426,-4743,23,-342,-172,142
149,17272,36,-3428,-4751,23,-339,-147,144
150,17276,36,-3494,-4740,23,-336,-145,132
151,17288,20,-3428,-4756,23,-347,-138,136
152,17278,2,-3382,-4746,23,-361,-151,144
153,17214,66,-3370,-4752,23,-341,-143,130
154,17282,36,-3442,-4745,23,-341,-145,144
155,17288,-38,-3410,-4754,23,-347,-151,141
156,17282,74,-3474,-4741,23,-343,-162,155
157,17290,0,-3452,-4764,22,-343,-163,128
158,17276,0,-3424,-4746,23,-346,-143,143
159,17256,74,-3400,-4740,23,-343,-142,134
160,17246,-40,-3334,-4751,23,-343,-153,149
161,17288,44,-3374,-4739,23,-342,-150,129
162,17278,-14,-3418,-4748,23,-358,-144,137
163,17280,22,-3452,-4744,23,-337,-150,142
164,17318,-2,-3372,-4748,23,-332,-159,144
165,17240,16,-3388,-4751,23,-346,-134,139
166,17248,4,-3360,-4743,23,-339,-159,124
167,17298,6,-3376,-4744,23,-348,-156,135
168,17288,-6,-3450,-4746,23,-349,-149,134
169,17300,-20,-3390,-4742,23,-339,-152,146
170,17242,18,-3418,-4754,23,-337,-152,133
171,17214,-18,-3392,-4751,23,-353,-151,139
172,17278,24,-3436,-4743,23,-347,-146,139
173,17218,20,-3434,-4757,23,-350,-152,138
174,17274,58,-3472,-4742,23,-340,-143,136
175,17264,46,-3394,-4744,23,-344,-138,133
176,17256,28,-3468,-4750,23,-336,-156,147
177,17282,-14,-3384,-4744,23,-336,-145,136
178,17182,54,-3426,-4741,23,-342,-137,147
179,17260,-12,-3460,-4750,23,-352,-152,133
180,17292,54,-3336,-4740,23,-351,-158,144
181,17248,-6,-3442,-4757,23,-362,-159,134
182,17250,26,-3364,-4742,23,-350,-148,133
183,17238,34,-3500,-4749,23,-342,-147,134
184,17266,16,-3380,-4748,23,-349,-134,141
185,17210,48,-3316,-4745,23,-356,-153,135
186,17280,-10,-3406,-4748,23,-331,-145,137
187,17276,6,-3382,-4753,23,-344,-157,142
188,17288,42,-3336,-4747,23,-352,-157,141
189,17242,10,-3348,-4735,23,-353,-152,126
190,17274,24,-3362,-4746,23,-336,-150,138
191,17272,24,-3456,-4737,23,-348,-150,142
192,17294,0,-3424,-4749,23,-336,-153,133
193,17296,16,-3408,-4739,23,-333,-141,131
194,17244,22,-3250,-4733,23,-347,-157,142
195,17258,68,-3434,-4738,23,-346,-150,142
196,17268,46,-3342,-4744,23,-356,-154,146
197,17282,-54,-3422,-4743,23,-336,-133,132
198,17298,30,-3430,-4740,23,-337,-159,134
199,17268,34,-3454,-4742,23,-343,-128,130
200,17296,68,-3464,-4733,23,-335,-129,144
201,17262,78,-3482,-4748,23,-337,-159,142
202,17198,16,-3414,-4743,23,-329,-148,139
203,17308,16,-3410,-4745,23,-348,-147,144
204,17290,36,-3376,-4746,23,-339,-144,136
205,17274,-22,-3386,-4746,23,-348,-161,141
206,17246,58,-3456,-4749,23,-340,-158,140
207,17274,88,-3370,-4746,23,-349,-153,138
208,17310,-10,-3404,-4736,23,-350,-154,130
209,17252,-20,-3330,-4739,23,-340,-151,128
210,17294,64,-3348,-4743,23,-343,-158,143
211,17268,-8,-3366,-4742,23,-343,-144,128
212,17304,-4,-3390,-4742,23,-351,-141,131
213,17224,44,-3360,-4739,23,-341,-146,136
214,17254,38,-3430,-4736,23,-349,-133,152
215,17302,38,-3406,-4738,23,-333,-149,144
216,17338,-30,-3362,-4736,23,-353,-154,134
217,17256,-14,-3458,-4735,23,-348,-140,140
218,17208,-60,-3428,-4732,23,-333,-151,151
219,17282,30,-3390,-4749,23,-339,-153,137
220,17292,22,-3448,-4746,23,-337,-144,133
221,17276,16,-3458,-4735,23,-364,-150,140
222,17294,-2,-3414,-4734,23,-337,-143,133
223,17276,-28,-3450,-4746,23,-331,-158,154
224,17296,42,-3364,-4727,23,-354,-155,136
225,17336,4,-3394,-4736,23,-346,-143,141
226,17196,-34,-3402,-4732,23,-345,-159,141
227,17338,62,-3438,-4735,23,-350,-156,144
228,17282,22,-3396,-4737,23,-343,-159,150
229,17296,24,-3340,-4732,23,-354,-144,153
230,17312,-6,-3382,-4733,23,-341,-157,140
231,17266,4,-3356,-4747,23,-341,-148,138
232,17248,56,-3394,-4732,23,-344,-152,128
233,17214,22,-3314,-4735,23,-330,-143,144
234,17308,32,-3372,-4736,23,-357,-157,127
235,17274,-44,-3474,-4738,23,-340,-157,137
236,17322,64,-3406,-4738,23,-346,-149,137
237,17274,20,-3432,-4732,23,-362,-153,148
238,17262,-24,-3444,-4740,23,-344,-155,132
239,17232,14,-3432,-4729,23,-341,-156,123
240,17222,-78,-3484,-4738,23,-345,-155,145
241,17278,8,-3280,-4749,23,-354,-160,136
242,17326,28,-3368,-4741,23,-352,-152,131
243,17264,96,-3412,-4732,23,-333,-152,137
244,17308,36,-3364,-4731,23,-353,-139,123
245,17318,18,-3400,-4733,23,-345,-163,137
246,17284,58,-3412,-4734,23,-342,-151,139
247,17296,-8,-3406,-4737,23,-352,-139,138
248,17300,0,-3398,-4740,23,-356,-165,131
249,17256,22,-3326,-4734,23,-350,-160,142
250,17288,12,-3416,-4731,23,-358,-152,140
251,17248,2,-3358,-4738,23,-336,-147,141
252,17296,28,-3342,-4732,23,-345,-142,138
253,17216,6,-3424,-4742,23,-342,-149,142
254,17252,-48,-3376,-4735,23,-348,-153,151
255,17244,-8,-3396,-4730,23,-352,-147,126
256,17272,0,-3310,-4737,23,-352,-147,129
257,17274,-34,-3382,-4748,23,-338,-149,133
258,17242,30,-3490,-4742,23,-349,-139,138
259,17310,28,-3354,-4734,23,-360,-148,135
260,17226,2,-3366,-4740,23,-359,-150,126
261,17238,18,-3420,-4728,23,-337,-145,144
262,17262,24,-3416,-4721,23,-340,-160,139
263,17236,-24,-3410,-4731,23,-342,-139,142
264,17324,50,-3344,-4727,23,-352,-154,140
265,17248,22,-3462,-4739,23,-337,-146,141
266,17256,26,-3354,-4735,23,-333,-153,141
267,17346,40,-3402,-4739,23,-347,-159,136
268,17276,22,-3376,-4719,23,-347,-148,146
269,17276,-54,-3466,-4736,23,-342,-149,135
270,17254,-30,-3350,-4736,23,-340,-152,139
271,17244,20,-3364,-4730,23,-339,-145,147
272,17290,-68,-3400,-4749,23,-344,-146,140
273,17290,-40,-3392,-4729,23,-341,-156,146
274,17280,16,-3442,-4735,23,-340,-154,140
275,17308,6,-3376,-4737,23,-349,-136,132
276,17348,-8,-3400,-4724,23,-348,-151,142
277,17254,-14,-3388,-4733,23,-342,-145,147
278,17228,-36,-3440,-4733,23,-343,-147,138
279,17264,-26,-3428,-4741,23,-340,-157,150
280,17252,-20,-3410,-4738,23,-328,-152,141
281,17330,32,-3276,-4745,23,-349,-152,132
282,17348,24,-3350,-4734,23,-343,-158,141
283,17296,-4,-3306,-4739,23,-342,-151,138
284,17324,-18,-3434,-4745,23,-355,-144,145
285,17288,42,-3354,-4731,23,-338,-141,133
286,17232,4,-3444,-4725,23,-335,-149,133
287,17260,-26,-3354,-4735,23,-342,-149,140
288,17318,2,-3404,-4742,23,-342,-153,145
289,17276,44,-3344,-4743,23,-336,-156,143
290,17278,18,-3378,-4737,23,-353,-144,146
291,17226,18,-3426,-4732,23,-363,-155,138
292,17248,-40,-3382,-4724,23,-343,-143,128
293,17258,56,-3430,-4726,23,-348,-152,137
294,17282,68,-3430,-4735,23,-340,-150,139
295,17240,10,-3442,-4724,23,-336,-154,137
296,17264,20,-3374,-4745,23,-361,-158,130
297,17216,-10,-3428,-4719,23,-351,-161,136
298,17280,32,-3290,-4725,23,-340,-156,141
299,17296,-2,-3378,-4726,23,-354,-148,132
300,17306,-4,-3358,-4731,23,-332,-157,138
301,17254,-58,-3416,-4732,23,-356,-143,137
302,17200,22,-3358,-4740,23,-356,-150,139
303,17258,24,-3370,-4736,23,-350,-153,140
304,17214,26,-3472,-4716,23,-344,-159,127
305,17298,-20,-3418,-4722,23,-337,-146,143
306,17268,6,-3426,-4731,23,-349,-146,132
307,17348,74,-3336,-4731,23,-345,-132,137
308,17208,-44,-3456,-4737,23,-342,-151,136
309,17272,-22,-3386,-4726,23,-358,-146,148
310,17326,28,-3408,-4722,23,-359,-144,143
311,17232,-16,-3400,-4724,23,-349,-151,135
312,17204,140,-3408,-4726,23,-345,-157,137
313,17314,76,-3360,-4718,23,-348,-144,132
314,17254,68,-3440,-4732,23,-345,-149,140
315,17254,0,-3308,-4721,23,-328,-143,140
316,17312,14,-3454,-4723,23,-346,-154,142
317,17330,-28,-3456,-4728,23,-344,-140,133
318,17262,-44,-3370,-4732,23,-358,-148,134
319,17302,2,-3424,-4727,23,-335,-148,130
320,17302,14,-3268,-4727,23,-352,-149,143
321,17276,4,-3426,-4725,23,-347,-150,147
322,17316,28,-3360,-4720,23,-347,-165,126
323,17324,-22,-3440,-4729,23,-347,-154,124
324,17284,28,-3446,-4733,23,-326,-135,127
325,17276,-30,-3450,-4729,23,-354,-150,141
326,17252,22,-3350,-4730,23,-332,-149,151
327,17252,20,-3434,-4714,23,-354,-154,146
328,17292,-6,-3440,-4727,23,-354,-152,151
329,17208,16,-3340,-4720,23,-329,-145,137
330,17234,50,-3358,-4725,23,-360,-147,134
331,17270,24,-3384,-4729,23,-329,-143,141
332,17238,6,-3446,-4735,23,-343,-139,140
333,17250,42,-3362,-4732,23,-349,-159,144
334,17300,40,-3444,-4740,23,-339,-145,127
335,17356,50,-3396,-4724,23,-352,-138,130
336,17290,4,-3312,-4744,23,-339,-149,143
337,17284,58,-3318,-4734,23,-337,-160,150
338,17304,-38,-3384,-4729,23,-348,-142,142
339,17204,8,-3406,-4728,23,-348,-145,142
340,17288,66,-3320,-4721,23,-357,-151,147
341,17240,-20,-3392,-4738,23,-351,-148,129
342,17210,-4,-3474,-4730,23,-332,-149,132
343,17294,32,-3360,-4728,23,-338,-167,136
344,17296,2,-3418,-4732,23,-352,-157,145
345,17300,52,-3386,-4719,23,-342,-148,149
346,17266,24,-3346,-4731,23,-339,-143,137
347,17252,8,-3442,-4735,23,-349,-123,144
348,17328,-4,-3302,-4723,23,-344,-157,132
349,17246,26,-3384,-4724,23,-349,-140,119
350,17242,48,-3420,-4720,23,-354,-148,131
351,17228,20,-3426,-4725,23,-350,-158,129
352,17222,26,-3442,-4725,23,-358,-147,141
353,17322,52,-3516,-4740,23,-344,-152,122
354,17280,4,-3412,-4720,23,-342,-153,129
355,17274,2,-3368,-4730,23,-361,-146,139
356,17266,24,-3348,-4730,23,-351,-158,133
357,17260,14,-3418,-4728,23,-338,-152,145
358,17244,0,-3468,-4729,23,-349,-162,137
359,17294,-30,-3404,-4718,23,-346,-134,145
360,17250,58,-3402,-4718,23,-329,-147,136
361,17296,-36,-3326,-4729,23,-359,-148,138
362,17264,48,-3354,-4724,23,-355,-141,146
363,17288,38,-3368,-4731,23,-354,-148,130
364,17252,70,-3424,-4731,23,-348,-144,151
365,17228,-4,-3416,-4731,23,-342,-151,128
366,17282,4,-3462,-4728,23,-370,-156,134
367,17306,-2,-3336,-4741,23,-346,-166,137
368,17282,30,-3432,-4719,23,-353,-153,131
369,17254,38,-3294,-4719,23,-353,-149,137
370,17266,4,-3370,-4730,23,-364,-152,148
371,17310,40,-3356,-4731,23,-338,-141,144
372,17226,22,-3370,-4731,23,-350,-158,139
373,17292,46,-3400,-4722,23,-349,-158,129
374,17278,8,-3418,-4721,23,-349,-151,146
375,17266,42,-3340,-4728,23,-336,-138,144
376,17342,28,-3296,-4724,23,-351,-152,160
377,17250,-36,-3426,-4727,23,-326,-143,131
378,17278,8,-3388,-4733,23,-342,-154,137
379,17304,12,-3414,-4719,23,-334,-152,149
380,17286,42,-3334,-4733,23,-346,-141,137
381,17246,28,-3430,-4737,23,-350,-147,133
382,17258,30,-3448,-4737,23,-333,-164,141
383,17248,32,-3388,-4722,23,-332,-157,137
384,17314,-108,-3380,-4719,23,-343,-150,144
385,17272,40,-3292,-4722,23,-360,-159,140
386,17308,-14,-3454,-4722,23,-353,-144,141
387,17280,6,-3462,-4725,23,-342,-132,130
388,17280,-4,-3324,-4727,23,-352,-156,142
389,17256,-18,-3446,-4726,23,-347,-163,138
390,17244,48,-3408,-4716,23,-352,-152,139
391,17284,4,-3374,-4731,23,-344,-163,135
392,17262,-38,-3306,-4720,23,-345,-139,149
393,17280,-4,-3324,-4722,23,-345,-157,132
394,17312,10,-3446,-4724,23,-334,-148,128
395,17264,60,-3438,-4720,23,-359,-157,140
396,17264,26,-3336,-4724,23,-348,-157,139
397,17276,88,-3394,-4720,23,-349,-161,135
398,17274,-44,-3428,-4726,23,-360,-151,131
399,17260,10,-3410,-4724,23,-354,-154,124
400,17270,-42,-3328,-4731,23,-336,-173,141
401,17242,52,-3304,-4717,23,-341,-147,135
402,17308,-22,-3470,-4731,23,-351,-159,137
403,17232,32,-3310,-4729,23,-340,-173,158
404,17306,22,-3318,-4725,23,-342,-146,130
405,17262,0,-3420,-4719,23,-333,-149,144
406,17302,14,-3394,-4732,23,-347,-163,130
407,17266,-46,-3386,-4711,23,-344,-144,134
408,17256,36,-3346,-4715,23,-353,-145,151
409,17270,78,-3438,-4726,23,-337,-154,128
410,17364,10,-3464,-4718,23,-344,-146,130
411,17240,-44,-3400,-4723,23,-345,-158,141
412,17354,-28,-3412,-4727,23,-358,-153,141
413,17298,16,-3390,-4727,23,-352,-150,140
414,17260,12,-3370,-4724,23,-338,-158,135
415,17280,34,-3308,-4724,23,-339,-148,129
416,17276,16,-3388,-4727,23,-342,-166,123
417,17280,24,-3442,-4712,23,-340,-152,139
418,17264,6,-3356,-4724,23,-355,-147,139
419,17270,-22,-3416,-4724,23,-351,-147,137
420,17212,-44,-3406,-4720,23,-360,-146,129
421,17248,18,-3454,-4729,23,-360,-151,141
422,17224,-12,-3406,-4722,23,-345,-142,133
423,17272,-56,-3384,-4718,23,-343,-149,143
424,17332,-8,-3418,-4736,23,-346,-137,135
425,17232,-24,-3374,-4729,23,-354,-149,135
426,17248,-14,-3378,-4722,23,-345,-160,135
427,17278,18,-3362,-4726,23,-352,-163,127
428,17330,-30,-3418,-4713,23,-345,-143,140
429,17324,-4,-3350,-4714,23,-349,-148,147
430,17284,26,-3436,-4717,23,-350,-160,149
431,17284,20,-3482,-4719,23,-350,-138,137
432,17206,-34,-3394,-4726,23,-352,-157,129
433,17284,-12,-3358,-4723,23,-353,-148,139
434,17304,2,-3272,-4727,23,-346,-142,134
435,17258,-14,-3470,-4717,23,-351,-148,140
436,17266,10,-3478,-4714,23,-349,-158,132
437,17274,48,-3412,-4720,23,-338,-153,148
438,17246,28,-3462,-4719,23,-336,-145,135
439,17256,8,-3352,-4720,23,-342,-164,142
440,17216,40,-3364,-4727,23,-342,-151,143
441,17318,-24,-3374,-4717,23,-355,-141,145
442,17294,28,-3438,-4723,23,-338,-140,118
443,17246,104,-3382,-4716,23,-359,-143,131
444,17316,2,-3402,-4712,23,-348,-145,121
445,17258,-6,-3378,-4719,23,-348,-152,145
446,17308,-36,-3410,-4712,23,-341,-164,137
447,17216,-2,-3394,-4710,23,-340,-155,140
448,17278,66,-3406,-4720,23,-350,-153,150
449,17280,-38,-3322,-4719,23,-352,-138,140
450,17332,-28,-3422,-4729,23,-347,-148,131
451,17294,16,-3344,-4708,23,-342,-150,141
452,17244,22,-3308,-4726,23,-343,-149,161
453,17306,48,-3354,-4726,23,-363,-161,153
454,17290,-38,-3388,-4714,23,-347,-152,129
455,17288,-14,-3388,-4710,23,-337,-150,139
456,17244,18,-3470,-4708,23,-341,-158,142
457,17274,-8,-3392,-4717,23,-355,-150,129
458,17234,48,-3340,-4721,23,-347,-143,137
459,17300,10,-3414,-4708,23,-342,-145,139
460,17294,60,-3382,-4714,23,-354,-142,143
461,17258,30,-3382,-4720,23,-335,-142,130
462,17252,-28,-3422,-4717,23,-350,-146,142
463,17186,12,-3336,-4724,23,-349,-149,146
464,17324,32,-3456,-4715,23,-352,-149,150
465,17306,-18,-3414,-4719,23,-346,-149,143
466,17226,-14,-3446,-4703,23,-348,-128,142
467,17230,-46,-3348,-4720,23,-349,-147,143
468,17258,-16,-3450,-4715,23,-337,-154,144
469,17300,-14,-3456,-4713,23,-338,-130,129
470,17360,6,-3464,-4714,23,-343,-139,147
471,17270,6,-3418,-4716,23,-350,-159,143
472,17292,-12,-3372,-4720,23,-329,-146,140
473,17326,10,-3372,-4719,23,-353,-137,145
474,17266,42,-3444,-4717,23,-335,-153,128
475,17258,-4,-3336,-4706,23,-350,-156,137
476,17226,-12,-3276,-4724,23,-358,-142,142
477,17276,-70,-3370,-4715,23,-344,-142,147
478,17316,0,-3414,-4721,23,-351,-148,134
479,17278,-18,-3324,-4726,23,-359,-139,139
480,17280,-18,-3392,-4713,23,-342,-163,143
481,17242,18,-3392,-4722,23,-341,-148,142
482,17266,20,-3346,-4715,23,-349,-141,136
483,17350,10,-3386,-4712,23,-344,-152,124
484,17256,-10,-3360,-4717,23,-343,-154,144
485,17258,-82,-3412,-4714,23,-350,-149,150
486,17302,2,-3370,-4721,23,-333,-138,144
487,17280,72,-3406,-4716,23,-346,-137,143
488,17240,10,-3392,-4716,23,-341,-155,134
489,17250,-16,-3408,-4710,23,-339,-140,134
490,17322,-58,-3394,-4708,23,-356,-143,139
491,17272,-34,-3428,-4718,23,-333,-141,140
492,17236,-2,-3418,-4718,23,-355,-139,129
493,17304,6,-3478,-4715,23,-342,-149,149
494,17282,-30,-3408,-4715,23,-347,-147,147
495,17332,64,-3416,-4724,23,-335,-153,141
496,17238,-44,-3362,-4708,23,-354,-141,139
497,17236,-34,-3394,-4714,23,-355,-162,157
498,17352,40,-3406,-4714,23,-360,-146,148
499,17298,-4,-3366,-4712,23,-356,-174,135
500,17262,-8,-3432,-4717,23,-363,-144,143
501,17246,8,-3414,-4705,23,-358,-146,131
502,17202,-26,-3254,-4702,23,-347,-157,147
503,17224,36,-3404,-4702,23,-344,-163,131
504,17270,-22,-3358,-4712,23,-341,-152,147
505,17264,-16,-3406,-4716,23,-354,-152,150
506,17268,-20,-3400,-4712,23,-334,-150,145
507,17300,14,-3342,-4710,23,-356,-152,137
508,17260,-14,-3438,-4702,23,-356,-143,140
509,17222,-8,-3456,-4716,23,-353,-155,132
510,17298,18,-3384,-4707,23,-348,-160,149
511,17288,16,-3402,-4706,23,-356,-158,138
512,17354,-10,-3366,-4703,23,-344,-151,141
513,17288,6,-3366,-4713,23,-350,-157,137
514,17318,32,-3452,-4702,23,-344,-144,139
515,17276,-16,-3376,-4720,23,-348,-153,147
516,17272,26,-3406,-4714,23,-338,-136,141
517,17266,50,-3420,-4706,23,-343,-153,137
518,17294,-2,-3422,-4712,23,-339,-151,143
519,17310,2,-3436,-4717,23,-347,-136,142
520,17288,-32,-3420,-4713,23,-355,-141,139
521,17288,48,-3356,-4723,23,-352,-154,138
522,17272,30,-3378,-4707,23,-352,-145,148
523,17278,4,-3470,-4710,23,-338,-152,130
524,17264,36,-3436,-4702,23,-349,-135,145
525,17266,-42,-3320,-4726,23,-357,-149,144
526,17348,82,-3342,-4713,23,-351,-137,150
527,17260,28,-3350,-4709,23,-347,-152,140
528,17272,-8,-3420,-4707,23,-341,-146,129
529,17316,58,-3384,-4709,23,-345,-162,130
530,17290,-48,-3396,-4714,23,-334,-158,133
531,17262,14,-3366,-4712,23,-351,-149,143
532,17300,-4,-3480,-4705,23,-348,-144,138
533,17272,22,-3432,-4709,23,-322,-148,155
534,17232,-18,-3390,-4717,23,-357,-150,153
535,17304,46,-3404,-4710,23,-339,-154,141
536,17274,52,-3430,-4708,23,-334,-153,136
537,17312,-6,-3392,-4715,23,-361,-144,153
538,17262,-8,-3308,-4719,23,-349,-146,140
539,17278,-108,-3354,-4712,23,-336,-149,143
540,17264,-4,-3438,-4714,23,-350,-153,144
541,17306,-8,-3352,-4710,23,-340,-145,130
542,17178,-28,-3390,-4698,23,-338,-154,151
543,17276,-16,-3418,-4712,23,-357,-163,145
544,17266,70,-3354,-4706,23,-331,-164,129
545,17222,6,-3378,-4706,23,-338,-147,139
546,17290,-20,-3378,-4713,23,-355,-151,143
547,17240,-2,-3384,-4719,23,-358,-153,136
548,17258,22,-3354,-4710,23,-356,-148,130
549,17242,60,-3406,-4711,23,-340,-146,138
550,17210,36,-3358,-4707,23,-355,-144,146
551,17324,2,-3368,-4719,23,-357,-158,137
552,17250,6,-3342,-4710,23,-352,-148,152
553,17300,-8,-3448,-4712,23,-362,-143,147
554,17238,-6,-3464,-4716,23,-343,-154,130
555,17266,32,-3386,-4713,23,-341,-139,132
556,17310,30,-3436,-4709,23,-347,-138,135
557,17238,-16,-3498,-4702,23,-356,-145,136
558,17266,44,-3354,-4708,23,-348,-147,142
559,17250,-48,-3326,-4711,23,-343,-144,140
560,17246,-8,-3270,-4716,23,-353,-150,135
561,17258,36,-3366,-4721,23,-345,-158,134
562,17278,-10,-3310,-4704,23,-343,-138,146
563,17274,-18,-3434,-4708,23,-341,-142,149
564,17290,32,-3358,-4717,23,-358,-140,133
565,17280,28,-3402,-4710,23,-352,-154,138
566,17312,-24,-3438,-4715,23,-345,-155,136
567,17276,0,-3380,-4705,23,-352,-156,134
568,17216,0,-3364,-4703,23,-346,-133,138
569,17246,58,-3354,-4707,23,-341,-147,138
570,17290,8,-3450,-4718,23,-349,-155,139
571,17192,22,-3366,-4706,23,-353,-145,132
572,17294,12,-3346,-4706,23,-354,-156,133
573,17262,-10,-3428,-4715,23,-355,-148,138
574,17278,38,-3364,-4712,23,-326,-166,142
575,17302,-12,-3326,-4707,23,-343,-145,137
576,17248,-14,-3438,-4707,23,-351,-149,137
577,17310,4,-3340,-4704,23,-344,-167,147
578,17244,-28,-3406,-4705,23,-341,-138,146
579,17238,-22,-3332,-4705,23,-340,-148,144
580,17302,22,-3400,-4707,23,-342,-148,136
581,17246,-24,-3368,-4711,23,-349,-145,141
582,17302,-30,-3404,-4707,23,-344,-134,140
583,17278,16,-3320,-4693,23,-328,-154,131
584,17196,20,-3450,-4704,23,-354,-140,141
585,17250,44,-3372,-4710,23,-346,-149,135
586,17246,18,-3346,-4706,23,-348,-141,128
587,17268,18,-3414,-4697,23,-355,-140,141
588,17326,34,-3358,-4718,23,-337,-143,141
589,17320,-32,-3366,-4713,23,-338,-154,138
590,17260,20,-3366,-4705,23,-351,-152,135
591,17274,52,-3390,-4708,23,-340,-152,140
592,17234,26,-3376,-4708,23,-350,-139,126
593,17258,-12,-3480,-4706,23,-346,-166,125
594,17318,64,-3426,-4718,23,-367,-145,143
595,17262,26,-3374,-4716,23,-349,-144,128
596,17300,-14,-3420,-4701,23,-353,-147,150
597,17280,-4,-3368,-4705,23,-350,-148,133
598,17280,12,-3536,-4709,23,-350,-144,141
599,17280,34,-3276,-4717,23,-343,-148,148
600,17282,-14,-3392,-4711,23,-341,-146,142
601,17320,-2,-3446,-4704,23,-361,-148,136
602,17258,32,-3316,-4712,23,-345,-146,145
603,17294,-26,-3356,-4704,23,-351,-156,130
604,17326,-10,-3342,-4697,23,-344,-167,136
605,17224,26,-3432,-4696,23,-356,-148,137
606,17244,-36,-3318,-4705,23,-342,-154,138
607,17240,-6,-3426,-4706,23,-347,-133,129
608,17272,28,-3490,-4697,23,-341,-155,140
609,17258,16,-3380,-4708,23,-346,-141,140
610,17310,36,-3478,-4714,23,-357,-159,147
611,17222,36,-3424,-4712,23,-352,-159,140
612,17324,36,-3350,-4711,23,-347,-142,132
613,17322,-8,-3330,-4704,23,-356,-151,140
614,17220,12,-3374,-4698,23,-323,-150,138
615,17278,-18,-3378,-4707,23,-338,-164,132
616,17292,58,-3474,-4708,23,-343,-148,137
617,17184,-8,-3470,-4714,23,-338,-162,140
618,17264,6,-3462,-4708,23,-344,-143,138
619,17268,56,-3388,-4704,23,-343,-142,138
620,17306,2,-3414,-4712,23,-352,-141,145
621,17182,60,-3334,-4698,23,-337,-146,146
622,17282,-40,-3416,-4707,23,-344,-149,122
623,17218,4,-3352,-4707,23,-344,-159,142
624,17232,10,-3454,-4708,23,-336,-163,146
625,17232,30,-3292,-4701,23,-353,-164,142
626,17284,24,-3460,-4714,23,-340,-141,150
627,17302,90,-3308,-4707,23,-340,-156,149
628,17340,36,-3450,-4696,23,-343,-146,123
629,17308,-6,-3394,-4704,23,-339,-144,136
630,17298,-18,-3458,-4707,23,-352,-146,133
631,17268,20,-3308,-4709,23,-331,-149,142
632,17314,16,-3338,-4692,23,-344,-152,140
633,17278,-18,-3386,-4707,23,-350,-145,143
634,17262,0,-3308,-4704,23,-335,-153,134
635,17330,34,-3448,-4706,23,-355,-163,134
636,17246,-14,-3476,-4707,23,-348,-166,132
637,17390,16,-3334,-4704,23,-348,-140,133
638,17286,0,-3422,-4702,23,-341,-142,136
639,17226,40,-3448,-4716,23,-344,-139,149
640,17280,42,-3316,-4711,23,-339,-153,144
641,17294,14,-3428,-4699,23,-363,-157,138
642,17276,-32,-3372,-4702,23,-347,-160,126
643,17312,26,-3386,-4698,23,-342,-146,140
644,17234,-10,-3430,-4702,23,-345,-140,135
645,17298,26,-3382,-4706,23,-353,-149,135
646,17256,28,-3402,-4707,23,-345,-153,136
647,17328,-14,-3346,-4703,23,-338,-138,137
648,17312,-24,-3402,-4692,23,-340,-152,132
649,17258,2,-3502,-4708,23,-347,-153,153
650,17288,38,-3392,-4695,23,-334,-160,128
651,17252,46,-3428,-4707,23,-357,-138,135
652,17216,-30,-3298,-4700,23,-347,-155,139
653,17278,2,-3474,-4699,23,-342,-149,128
654,17278,-32,-3362,-4698,23,-339,-154,128
655,17298,-18,-3454,-4702,23,-356,-160,146
656,17238,6,-3398,-4700,23,-355,-134,133
657,17302,14,-3390,-4710,23,-341,-159,146
658,17266,-26,-3434,-4707,23,-349,-157,134
659,17212,50,-3494,-4704,23,-353,-138,128
660,17276,-14,-3508,-4700,23,-343,-150,136
661,17330,-38,-3360,-4702,23,-352,-147,146
662,17310,-56,-3356,-4707,23,-343,-142,140
663,17226,26,-3416,-4699,23,-359,-148,148
664,17320,28,-3392,-4700,23,-354,-155,140
665,17274,-12,-3440,-4709,23,-348,-148,127
666,17290,-26,-3390,-4701,23,-341,-157,136
667,17236,16,-3448,-4702,23,-341,-144,136
668,17308,78,-3478,-4701,23,-344,-150,145
669,17324,-12,-3338,-4707,23,-343,-148,142
670,17208,-30,-3362,-4711,23,-341,-158,138
671,17268,8,-3440,-4713,23,-353,-161,142
672,17294,78,-3426,-4698,23,-348,-145,122
673,17266,14,-3490,-4703,23,-349,-136,136
674,17262,44,-3410,-4702,23,-356,-155,138
675,17342,32,-3442,-4703,23,-341,-158,137
676,17352,98,-3428,-4705,23,-345,-153,153
677,17312,-12,-3404,-4698,23,-326,-152,131
678,17262,0,-3360,-4708,23,-357,-146,135
679,17282,-22,-3352,-4709,23,-341,-152,137
680,17290,6,-3274,-4696,23,-351,-139,133
681,17222,46,-3440,-4696,23,-347,-140,130
682,17216,30,-3392,-4701,23,-337,-150,139
683,17252,42,-3394,-4703,23,-347,-159,149
684,17274,34,-3374,-4702,23,-342,-145,140
685,17288,32,-3344,-4697,23,-339,-155,142
686,17226,-16,-3470,-4700,23,-350,-151,134
687,17254,6,-3394,-4711,23,-352,-139,131
688,17286,2,-3346,-4691,23,-350,-165,141
689,17288,36,-3420,-4706,23,-346,-148,133
690,17240,20,-3436,-4702,23,-358,-147,134
691,17240,-2,-3334,-4692,23,-344,-150,138
692,17266,8,-3400,-4693,23,-348,-158,146
693,17290,42,-3432,-4703,23,-344,-146,148
694,17280,30,-3354,-4698,23,-341,-162,143
695,17288,52,-3426,-4708,23,-356,-159,141
696,17282,8,-3342,-4697,23,-338,-144,142
697,17248,6,-3440,-4705,23,-331,-161,149
698,17224,-86,-3362,-4701,23,-356,-142,152
699,17308,4,-3356,-4704,23,-344,-145,134
700,17252,54,-3436,-4696,23,-347,-146,143
701,17266,-16,-3444,-4701,23,-352,-156,148
702,17242,38,-3484,-4697,23,-346,-150,147
703,17220,-22,-3390,-4697,23,-348,-138,134
704,17322,-6,-3488,-4688,23,-358,-144,137
705,17306,-102,-3476,-4705,23,-349,-155,144
706,17260,26,-3266,-4707,23,-342,-147,130
707,17294,22,-3366,-4686,23,-348,-164,147
708,17250,28,-3374,-4691,23,-337,-151,141
709,17254,40,-3468,-4692,23,-344,-158,137
710,17244,26,-3438,-4703,23,-345,-158,129
711,17308,-30,-3356,-4707,23,-327,-150,137
712,17266,-30,-3418,-4706,23,-350,-150,134
713,17324,34,-3414,-4706,23,-349,-155,147
714,17242,46,-3406,-4699,23,-354,-155,140
715,17224,-16,-3336,-4698,23,-353,-148,139
716,17260,32,-3318,-4705,23,-334,-167,144
717,17292,-10,-3362,-4697,23,-344,-133,132
718,17260,8,-3358,-4699,23,-346,-143,118
719,17234,8,-3374,-4687,23,-352,-157,135
720,17262,14,-3472,-4694,23,-354,-149,138
721,17284,16,-3404,-4690,23,-359,-135,146
722,17294,4,-3410,-4707,23,-355,-141,135
723,17262,-14,-3460,-4697,23,-342,-148,146
724,17246,22,-3424,-4708,23,-342,-152,131
725,17312,-14,-3434,-4698,23,-341,-147,128
726,17260,8,-3482,-4702,23,-347,-145,148
727,17286,-2,-3454,-4706,23,-352,-140,138
728,17290,2,-3420,-4711,23,-351,-167,138
729,17356,28,-3352,-4700,23,-345,-148,149
730,17260,-6,-3344,-4687,23,-343,-169,142
731,17314,60,-3332,-4702,23,-339,-134,142
732,17220,4,-3318,-4693,23,-350,-148,142
733,17272,-36,-3364,-4699,23,-338,-145,134
734,17250,0,-3396,-4699,23,-352,-133,138
735,17244,8,-3456,-4695,23,-339,-142,150
736,17276,-26,-3446,-4710,23,-354,-151,131
737,17328,-6,-3406,-4698,23,-355,-154,156
738,17304,26,-3428,-4704,23,-349,-161,142
739,17214,-48,-3410,-4701,23,-340,-144,132
740,17250,-44,-3368,-4693,23,-355,-150,145
741,17264,56,-3426,-4694,23,-354,-142,145
742,17240,30,-3420,-4700,23,-352,-166,146
743,17330,38,-3404,-4693,23,-353,-157,131
744,17294,38,-3394,-4698,23,-343,-161,137
745,17306,-34,-3464,-4687,23,-354,-153,129
746,17260,0,-3392,-4695,23,-338,-158,135
747,17210,58,-3386,-4698,23,-344,-150,132
748,17286,24,-3414,-4695,23,-340,-140,141
749,17290,64,-3392,-4696,23,-346,-153,146
750,17256,34,-3336,-4700,23,-340,-158,140
751,17306,-2,-3382,-4696,23,-339,-160,125
752,17244,4,-3370,-4695,23,-336,-142,144
753,17304,48,-3370,-4709,23,-339,-133,142
754,17248,34,-3506,-4699,23,-349,-144,139
755,17284,-34,-3328,-4696,23,-350,-152,149
756,17294,44,-3348,-4687,23,-346,-144,140
757,17294,30,-3450,-4697,23,-345,-148,134
758,17316,54,-3342,-4688,23,-355,-139,142
759,17240,18,-3394,-4696,23,-344,-163,133
760,17302,-46,-3384,-4688,23,-354,-150,150
761,17310,8,-3400,-4703,23,-361,-146,141
762,17310,66,-3306,-4701,23,-336,-147,138
763,17260,22,-3388,-4694,23,-343,-166,140
764,17184,8,-3346,-4695,23,-351,-142,144
765,17266,46,-3564,-4709,23,-348,-157,143
766,17254,26,-3288,-4715,23,-348,-151,131
767,17264,-44,-3380,-4704,23,-352,-155,148
768,17266,18,-3348,-4700,23,-338,-154,134
769,17264,-36,-3388,-4706,23,-331,-139,150
770,17284,2,-3360,-4695,23,-357,-148,144
771,17264,12,-3300,-4700,23,-346,-157,134
772,17294,-70,-3290,-4687,23,-349,-138,139
773,17274,30,-3384,-4696,23,-346,-147,133
774,17310,38,-3382,-4699,23,-348,-146,143
775,17304,-52,-3392,-4698,23,-346,-149,141
776,17268,18,-3416,-4685,23,-337,-153,148
777,17312,22,-3428,-4691,23,-340,-141,142
778,17248,10,-3424,-4690,23,-339,-150,137
779,17316,40,-3370,-4698,23,-341,-137,145
780,17284,50,-3352,-4693,23,-358,-143,129
781,17252,-26,-3334,-4687,23,-348,-160,142
782,17342,-6,-3380,-4687,23,-343,-148,128
783,17294,28,-3434,-4703,23,-345,-144,147
784,17240,10,-3350,-4696,23,-350,-147,131
785,17230,2,-3332,-4692,23,-349,-158,141
786,17306,14,-3316,-4699,23,-351,-144,134
787,17266,40,-3406,-4698,23,-350,-146,131
788,17276,56,-3416,-4696,23,-326,-147,147
789,17270,78,-3410,-4699,23,-357,-141,137
790,17270,8,-3408,-4691,23,-334,-146,123
791,17266,34,-3466,-4698,23,-349,-151,135
792,17218,16,-3416,-4693,23,-352,-152,154
793,17272,22,-3450,-4689,23,-350,-154,141
794,17240,-14,-3466,-4701,23,-356,-146,130
795,17296,30,-3360,-4693,23,-343,-141,151
796,17296,50,-3412,-4691,23,-350,-167,128
797,17254,44,-3506,-4694,23,-333,-154,151
798,17206,12,-3462,-4688,23,-334,-165,129
799,17292,-22,-3372,-4696,23,-350,-150,147
800,17274,30,-3358,-4695,23,-349,-148,137
801,17276,-10,-3398,-4701,23,-359,-152,131
802,17316,40,-3392,-4696,23,-336,-149,135
803,17192,38,-3394,-4700,23,-344,-144,144
804,17310,12,-3500,-4701,23,-328,-151,136
805,17232,50,-3458,-4692,23,-347,-139,149
806,17280,20,-3356,-4706,23,-342,-159,130
807,17296,-22,-3362,-4695,23,-340,-157,137
808,17216,20,-3386,-4696,23,-342,-147,130
809,17302,30,-3438,-4693,23,-344,-147,137
810,17240,48,-3356,-4696,23,-349,-137,142
811,17280,14,-3378,-4691,23,-341,-144,141
812,17254,36,-3426,-4688,23,-363,-142,133
813,17324,14,-3364,-4689,23,-350,-156,141
814,17280,-26,-3382,-4693,23,-342,-149,144
815,17294,-4,-3380,-4698,23,-353,-154,137
816,17290,92,-3466,-4697,23,-354,-145,140
817,17310,22,-3384,-4692,23,-361,-138,143
818,17286,-6,-3494,-4690,23,-343,-139,140
819,17262,0,-3416,-4699,23,-346,-147,136
820,17308,46,-3406,-4692,23,-343,-154,139
821,17226,42,-3340,-4687,23,-347,-149,136
822,17252,8,-3384,-4687,23,-356,-151,147
823,17238,88,-3332,-4703,23,-343,-150,141
824,17300,4,-3396,-4700,23,-364,-144,136
825,17280,-12,-3378,-4692,23,-339,-154,136
826,17262,50,-3296,-4693,23,-337,-143,140
827,17286,74,-3510,-4685,23,-362,-149,141
828,17300,-24,-3408,-4690,23,-354,-150,142
829,17264,4,-3438,-4690,23,-341,-145,152
830,17270,14,-3494,-4696,23,-353,-150,141
831,17212,34,-3392,-4691,23,-350,-143,133
832,17284,50,-3360,-4693,23,-352,-140,127
833,17240,2,-3450,-4696,23,-344,-144,136
834,17240,10,-3446,-4701,23,-358,-147,134
835,17262,2,-3422,-4694,23,-337,-159,133
836,17362,40,-3386,-4705,23,-343,-149,133
837,17220,6,-3430,-4699,23,-346,-157,133
838,17250,18,-3376,-4690,23,-345,-148,136
839,17306,16,-3366,-4687,23,-354,-154,131
840,17288,-30,-3452,-4692,23,-359,-148,130
841,17224,28,-3396,-4702,23,-356,-145,143
842,17324,36,-3402,-4695,23,-345,-175,126
843,17262,28,-3368,-4691,23,-348,-154,138
844,17268,-8,-3382,-4699,23,-341,-157,140
845,17288,-22,-3398,-4685,23,-335,-147,130
846,17234,40,-3462,-4691,23,-350,-145,124
847,17278,-26,-3372,-4695,23,-336,-156,143
848,17314,-10,-3472,-4690,23,-343,-149,128
849,17244,8,-3298,-4698,23,-340,-129,152
850,17248,-40,-3332,-4700,23,-349,-163,134
851,17248,22,-3338,-4692,23,-339,-149,144
852,17274,24,-3416,-4688,23,-347,-153,122
853,17284,10,-3406,-4693,23,-343,-144,140
854,17242,-10,-3372,-4698,23,-347,-149,130
855,17306,-78,-3366,-4696,23,-345,-146,130
856,17236,70,-3496,-4695,23,-357,-156,144
857,17290,-16,-3364,-4696,23,-337,-149,144
858,17306,22,-3356,-4700,23,-345,-152,143
859,17254,14,-3382,-4699,23,-352,-160,141
860,17306,-10,-3420,-4694,23,-337,-141,132
861,17216,26,-3500,-4694,23,-345,-148,142
862,17214,12,-3370,-4689,23,-342,-151,139
863,17282,16,-3474,-4686,23,-351,-154,136
864,17190,28,-3452,-4690,23,-341,-134,144
865,17238,16,-3380,-4696,23,-349,-144,141
866,17226,32,-3468,-4704,23,-351,-153,158
867,17272,-96,-3422,-4694,23,-336,-153,141
868,17258,-4,-3406,-4685,23,-358,-151,137
869,17242,24,-3444,-4700,23,-341,-144,142
870,17236,50,-3408,-4696,23,-348,-153,127
871,17250,18,-3402,-4688,23,-339,-146,136
872,17248,28,-3334,-4686,23,-359,-150,140
873,17270,58,-3476,-4699,23,-346,-161,132
874,17242,30,-3462,-4699,23,-348,-159,131
875,17328,0,-3362,-4696,23,-361,-160,143
876,17250,-8,-3296,-4699,23,-354,-148,133
877,17256,54,-3466,-4694,23,-358,-125,140
878,17280,12,-3364,-4689,23,-358,-160,139
879,17250,44,-3324,-4698,23,-345,-153,134
880,17308,28,-3354,-4687,23,-356,-140,136
881,17282,10,-3430,-4699,23,-341,-149,143
882,17262,4,-3420,-4693,23,-356,-140,147
883,17288,24,-3442,-4701,23,-352,-153,149
884,17266,-14,-3370,-4702,23,-334,-154,142
885,17248,28,-3376,-4692,23,-337,-146,136
886,17270,-16,-3476,-4694,23,-351,-151,133
887,17256,58,-3444,-4706,23,-340,-161,134
888,17272,80,-3464,-4684,23,-343,-155,137
889,17252,28,-3400,-4685,23,-343,-155,143
890,17302,34,-3504,-4689,23,-351,-145,138
891,17282,-28,-3450,-4701,23,-367,-161,153
892,17280,-6,-3336,-4706,23,-345,-143,136
893,17300,34,-3352,-4697,23,-354,-156,130
894,17314,50,-3458,-4696,23,-356,-151,138
895,17258,12,-3400,-4691,23,-336,-163,139
896,17300,0,-3470,-4694,23,-334,-146,133
897,17230,26,-3380,-4696,23,-342,-152,138
898,17246,-26,-3460,-4701,23,-350,-149,146
899,17280,-26,-3448,-4699,23,-343,-147,138
900,17252,40,-3456,-4689,23,-351,-156,139
901,17284,-40,-3450,-4702,23,-343,-151,134
902,17244,28,-3368,-4691,23,-340,-134,131
903,17256,-18,-3392,-4690,23,-342,-149,140
904,17318,6,-3412,-4694,23,-328,-140,135
905,17286,16,-3412,-4693,23,-342,-153,136
906,17302,-60,-3420,-4691,23,-342,-150,133
907,17286,-40,-3436,-4686,23,-351,-140,130
908,17250,4,-3498,-4685,23,-343,-144,142
909,17268,-12,-3462,-4693,23,-347,-153,137
910,17272,-2,-3408,-4694,23,-343,-132,131
911,17270,22,-3486,-4686,23,-346,-132,130
912,17282,0,-3408,-4685,23,-349,-143,141
913,17262,8,-3372,-4695,23,-353,-148,137
914,17276,-34,-3406,-4691,23,-352,-140,142
915,17272,18,-3510,-4694,23,-341,-148,145
916,17302,22,-3364,-4699,23,-355,-143,133
917,17280,-8,-3388,-4684,23,-354,-148,148
918,17260,-24,-3428,-4694,23,-346,-159,133
919,17282,6,-3340,-4681,23,-337,-145,130
920,17276,50,-3422,-4699,23,-343,-158,146
921,17272,2,-3412,-4687,23,-337,-157,141
922,17300,2,-3402,-4693,23,-335,-154,140
923,17282,-14,-3366,-4685,23,-344,-152,145
924,17260,-60,-3396,-4694,23,-346,-149,139
925,17282,14,-3436,-4679,23,-340,-146,129
926,17290,108,-3438,-4695,23,-352,-144,141
927,17288,54,-3450,-4696,23,-352,-142,145
928,17332,26,-3376,-4708,23,-346,-157,135
929,17298,-16,-3344,-4693,23,-337,-142,136
930,17192,58,-3480,-4686,23,-341,-163,142
931,17264,-52,-3336,-4687,23,-359,-154,136
932,17274,-8,-3444,-4698,23,-341,-165,135
933,17256,20,-3406,-4699,23,-347,-162,136
934,17250,36,-3290,-4685,23,-347,-144,155
935,17320,-12,-3330,-4695,23,-352,-151,128
936,17238,-36,-3412,-4699,23,-350,-161,124
937,17306,28,-3378,-4695,23,-346,-139,138
938,17298,18,-3366,-4701,23,-323,-154,142
939,17236,-10,-3370,-4703,23,-344,-146,137
940,17208,2,-3446,-4692,23,-347,-148,125
941,17282,62,-3400,-4702,23,-339,-144,144
942,17276,2,-3410,-4688,23,-329,-152,143
943,17176,-10,-3396,-4697,23,-342,-164,138
944,17262,18,-3336,-4689,23,-349,-147,142
945,17296,-4,-3354,-4686,23,-364,-139,142
946,17358,-40,-3384,-4695,23,-358,-141,136
947,17270,82,-3356,-4695,23,-340,-151,129
948,17302,8,-3494,-4682,23,-353,-152,151
949,17252,10,-3408,-4692,23,-352,-147,142
950,17314,4,-3386,-4689,23,-351,-156,148
951,17316,66,-3384,-4693,23,-351,-148,142
952,17330,-26,-3396,-4690,23,-349,-146,141
953,17284,38,-3428,-4695,23,-345,-154,137
954,17274,36,-3448,-4688,23,-354,-139,130
955,17274,22,-3438,-4691,23,-342,-144,139
956,17268,12,-3362,-4685,23,-334,-154,136
957,17304,-12,-3336,-4705,23,-352,-141,142
958,17288,-4,-3446,-4692,23,-344,-144,138
959,17296,24,-3324,-4693,23,-351,-157,125
960,17294,-10,-3398,-4688,23,-336,-166,123
961,17204,44,-3406,-4693,23,-344,-147,149
962,17256,-4,-3422,-4687,23,-339,-148,145
963,17254,6,-3464,-4688,23,-342,-144,156
964,17252,30,-3510,-4689,23,-356,-139,142
965,17286,48,-3366,-4692,23,-342,-137,127
966,17204,-30,-3440,-4693,23,-338,-157,135
967,17282,48,-3360,-4694,23,-346,-146,126
968,17274,-26,-3326,-4680,23,-338,-150,146
969,17272,76,-3452,-4696,23,-358,-147,132
970,17322,8,-3442,-4690,23,-335,-147,148
971,17318,50,-3460,-4701,23,-342,-151,142
972,17260,-2,-3416,-4688,23,-338,-131,133
973,17300,-34,-3418,-4680,23,-327,-133,150
974,17346,8,-3350,-4703,23,-352,-143,142
975,17312,74,-3444,-4695,23,-351,-141,138
976,17338,36,-3396,-4689,23,-355,-152,148
977,17226,22,-3358,-4682,23,-361,-167,130
978,17276,-34,-3336,-4693,23,-352,-147,131
979,17208,38,-3318,-4694,23,-345,-148,135
980,17194,0,-3426,-4693,23,-354,-144,138
981,17252,36,-3412,-4682,23,-328,-150,131
982,17178,-50,-3348,-4690,23,-341,-147,143
983,17260,-26,-3458,-4693,23,-343,-156,137
984,17268,0,-3366,-4697,23,-343,-138,134
985,17302,12,-3340,-4692,23,-345,-169,141
986,17308,20,-3396,-4689,23,-341,-147,138
987,17290,-12,-3526,-4687,23,-337,-157,153
988,17306,8,-3372,-4691,23,-350,-147,143
989,17254,50,-3410,-4680,23,-339,-160,130
990,17296,20,-3484,-4687,23,-337,-170,141
991,17256,-26,-3410,-4686,23,-343,-147,138
992,17268,-10,-3430,-4689,23,-340,-134,141
993,17274,42,-3358,-4692,23,-359,-149,147
994,17278,-10,-3340,-4686,23,-342,-152,141
995,17254,32,-3496,-4686,23,-338,-152,135
