,acc_X,acc_Y,acc_Z,temp,tempC,gyr_X,gyr_Y,gyr_Z
0,2161,0,-417,-4729,23,-360,-140,128
1,2154,3,-415,-4730,23,-329,-142,122
2,2154,3,-428,-4725,23,-345,-162,142
3,2156,-1,-426,-4733,23,-346,-146,135
4,2165,5,-439,-4743,23,-341,-147,120
5,2162,11,-412,-4721,23,-350,-156,125
6,2160,8,-414,-4725,23,-349,-151,141
7,2161,10,-429,-4741,23,-344,-156,142
8,2151,1,-411,-4730,23,-342,-154,152
9,2160,-1,-430,-4737,23,-334,-145,137
10,2157,7,-437,-4733,23,-353,-164,153
11,2149,2,-415,-4725,23,-349,-139,134
12,2158,3,-428,-4729,23,-347,-151,131
13,2163,-1,-427,-4735,23,-346,-146,139
14,2150,3,-434,-4728,23,-345,-167,146
15,2151,-6,-421,-4734,23,-352,-150,138
16,2155,8,-438,-4722,23,-341,-168,143
17,2170,1,-420,-4736,23,-360,-163,155
18,2145,-4,-433,-4731,23,-340,-147,139
19,2155,3,-426,-4730,23,-334,-160,144
20,2166,-1,-411,-4726,23,-330,-142,122
21,2173,1,-415,-4734,23,-333,-142,147
22,2157,-1,-421,-4730,23,-368,-132,138
23,2157,4,-425,-4726,23,-342,-136,148
24,2168,-1,-425,-4729,23,-327,-160,144
25,2165,-7,-433,-4724,23,-340,-146,142
26,2152,-8,-422,-4734,23,-356,-174,130
27,2162,4,-425,-4720,23,-348,-151,140
28,2159,3,-429,-4731,23,-348,-151,130
29,2163,9,-434,-4728,23,-334,-139,142
30,2146,0,-427,-4739,23,-339,-155,140
31,2165,-2,-447,-4733,23,-347,-150,149
32,2165,3,-417,-4724,23,-351,-142,153
33,2167,-4,-424,-4733,23,-332,-152,138
34,2155,5,-416,-4735,23,-362,-158,135
35,2151,2,-430,-4711,23,-331,-163,158
36,2164,10,-432,-4729,23,-344,-160,128
37,2144,1,-426,-4735,23,-357,-156,142
38,2160,-9,-429,-4733,23,-353,-156,146
39,2157,6,-440,-4726,23,-338,-142,142
40,2170,-4,-425,-4710,23,-357,-142,135
41,2162,-6,-422,-4737,23,-346,-159,152
42,2164,-10,-423,-4726,23,-338,-151,120
43,2155,1,-415,-4741,23,-335,-149,141
44,2172,1,-423,-4736,23,-342,-162,127
45,2159,16,-430,-4726,23,-330,-137,135
46,2168,-1,-425,-4726,23,-333,-145,124
47,2159,3,-419,-4728,23,-352,-165,130
48,2160,-6,-434,-4736,23,-346,-147,142
49,2145,-2,-423,-4725,23,-356,-146,159
50,2164,17,-429,-4712,23,-333,-146,135
51,2153,6,-428,-4722,23,-348,-129,144
52,2163,-8,-430,-4732,23,-346,-168,149
53,2159,4,-432,-4743,23,-350,-143,139
54,2163,-5,-424,-4738,23,-326,-141,140
55,2163,0,-415,-4720,23,-334,-156,127
56,2154,5,-423,-4734,23,-346,-141,132
57,2163,-9,-417,-4720,23,-351,-149,128
58,2158,1,-413,-4736,23,-333,-154,137
59,2164,4,-416,-4729,23,-348,-158,126
60,2160,-9,-435,-4717,23,-351,-153,130
61,2167,11,-425,-4719,23,-335,-153,151
62,2155,1,-422,-4723,23,-343,-135,152
63,2165,-2,-437,-4724,23,-325,-152,133
64,2147,7,-433,-4716,23,-362,-139,149
65,2156,1,-425,-4718,23,-336,-141,141
66,2151,-4,-419,-4702,23,-334,-143,154
67,2168,4,-425,-4723,23,-360,-153,134
68,2159,-4,-430,-4724,23,-352,-154,138
69,2165,7,-422,-4727,23,-351,-144,135
70,2162,4,-412,-4729,23,-344,-148,144
71,2165,-4,-443,-4739,23,-332,-138,120
72,2160,-2,-413,-4747,23,-343,-173,136
73,2168,-7,-420,-4731,23,-343,-160,126
74,2162,5,-424,-4721,23,-336,-150,138
75,2157,2,-425,-4733,23,-346,-130,140
76,2156,4,-424,-4734,23,-342,-126,125
77,2161,3,-430,-4719,23,-370,-150,135
78,2168,-9,-422,-4732,23,-348,-133,122
79,2168,11,-421,-4731,23,-324,-156,125
80,2167,9,-423,-4717,23,-360,-156,155
81,2168,10,-422,-4722,23,-332,-162,139
82,2159,-4,-415,-4739,23,-357,-154,139
83,2158,-3,-421,-4725,23,-341,-145,140
84,2155,3,-411,-4728,23,-330,-149,130
85,2164,-4,-416,-4724,23,-350,-160,139
86,2154,-4,-430,-4734,23,-354,-153,144
87,2158,9,-421,-4737,23,-345,-155,140
88,2153,-12,-421,-4722,23,-354,-148,131
89,2159,9,-421,-4731,23,-328,-170,136
90,2158,1,-436,-4730,23,-342,-141,155
91,2164,10,-423,-4732,23,-355,-163,128
92,2163,-6,-414,-4727,23,-350,-159,133
93,2155,5,-427,-4729,23,-332,-163,148
94,2152,-5,-429,-4729,23,-337,-154,148
95,2151,3,-412,-4728,23,-343,-145,146
96,2161,-1,-426,-4731,23,-335,-158,135
97,2169,0,-429,-4730,23,-361,-128,151
98,2166,3,-434,-4732,23,-340,-158,134
99,2156,-5,-434,-4726,23,-317,-141,149
100,2153,-4,-419,-4729,23,-339,-133,132
101,2159,-4,-423,-4714,23,-349,-144,139
102,2163,8,-422,-4728,23,-345,-150,138
103,2165,6,-423,-4724,23,-353,-186,144
104,2164,3,-414,-4736,23,-348,-157,146
105,2162,1,-435,-4724,23,-351,-160,146
106,2156,2,-428,-4740,23,-344,-155,151
107,2156,4,-416,-4731,23,-353,-155,151
108,2161,9,-425,-4721,23,-339,-135,139
109,2155,10,-429,-4724,23,-341,-141,121
110,2158,2,-417,-4718,23,-353,-152,146
111,2156,0,-425,-4739,23,-348,-141,146
112,2160,0,-430,-4724,23,-330,-159,134
113,2164,-3,-426,-4721,23,-347,-143,137
114,2152,1,-415,-4734,23,-342,-148,141
115,2159,-10,-418,-4736,23,-335,-154,136
116,2162,-4,-439,-4723,23,-353,-162,141
117,2169,5,-420,-4722,23,-348,-170,134
118,2160,0,-428,-4726,23,-354,-133,152
119,2169,8,-417,-4743,23,-340,-147,133
120,2166,-10,-433,-4727,23,-362,-141,143
121,2169,-9,-431,-4737,23,-349,-167,121
122,2166,1,-422,-4734,23,-333,-143,140
123,2151,-1,-418,-4734,23,-318,-163,135
124,2161,-10,-419,-4735,23,-351,-156,134
125,2158,-6,-424,-4725,23,-332,-135,132
126,2157,-7,-424,-4733,23,-329,-162,137
127,2166,3,-432,-4727,23,-341,-159,138
128,2157,3,-416,-4731,23,-336,-152,127
129,2152,-2,-420,-4736,23,-357,-128,139
130,2157,-1,-422,-4720,23,-342,-149,128
131,2154,0,-432,-4724,23,-357,-144,125
132,2155,7,-430,-4728,23,-343,-154,124
133,2166,7,-432,-4722,23,-346,-150,146
134,2167,-5,-430,-4716,23,-351,-153,123
135,2159,4,-421,-4734,23,-349,-156,163
136,2160,4,-424,-4739,23,-358,-159,148
137,2165,0,-419,-4745,23,-350,-125,146
138,2166,3,-424,-4729,23,-331,-170,159
139,2157,8,-435,-4721,23,-356,-162,141
140,2169,1,-418,-4722,23,-358,-167,148
141,2163,4,-417,-4722,23,-363,-159,134
142,2165,4,-421,-4740,23,-338,-135,141
143,2161,4,-428,-4725,23,-336,-158,133
144,2166,7,-419,-4743,23,-344,-139,121
145,2163,5,-419,-4736,23,-344,-135,149
146,2155,-4,-416,-4734,23,-336,-133,152
147,2161,-1,-425,-4724,23,-345,-153,129
148,2161,3,-430,-4729,23,-365,-135,120
149,2162,5,-433,-4727,23,-356,-147,146
150,2167,2,-425,-4729,23,-343,-158,139
151,2158,5,-428,-4732,23,-349,-150,143
152,2151,2,-421,-4727,23,-350,-149,129
153,2156,-3,-440,-4727,23,-351,-165,152
154,2156,-8,-429,-4735,23,-339,-138,146
155,2154,7,-421,-4733,23,-363,-151,130
156,2161,0,-417,-4729,23,-333,-153,139
157,2172,-6,-425,-4718,23,-347,-144,148
158,2161,-1,-422,-4732,23,-356,-149,146
159,2155,7,-424,-4723,23,-339,-145,144
160,2164,4,-433,-4722,23,-345,-157,143
161,2164,4,-418,-4727,23,-336,-145,132
162,2162,4,-417,-4720,23,-338,-154,147
163,2161,-2,-425,-4738,23,-337,-142,132
164,2151,-10,-414,-4727,23,-347,-147,120
165,2157,-1,-432,-4725,23,-342,-154,124
166,2152,-4,-440,-4728,23,-339,-141,129
167,2166,0,-424,-4707,23,-341,-146,144
168,2150,-2,-419,-4730,23,-334,-146,134
169,2166,1,-437,-4732,23,-347,-139,124
170,2162,3,-426,-4734,23,-348,-144,126
171,2165,7,-421,-4728,23,-330,-145,133
172,2170,-1,-431,-4726,23,-322,-135,143
173,2162,-6,-424,-4738,23,-347,-135,124
174,2164,7,-431,-4713,23,-354,-169,113
175,2162,-2,-433,-4723,23,-346,-164,131
176,2158,-2,-424,-4724,23,-354,-146,135
177,2164,4,-426,-4724,23,-355,-162,139
178,2153,-10,-425,-4726,23,-334,-128,130
179,2162,-5,-431,-4730,23,-324,-126,151
180,2169,0,-416,-4732,23,-330,-159,130
181,2159,3,-424,-4728,23,-335,-150,145
182,2159,1,-437,-4726,23,-329,-155,137
183,2155,-9,-435,-4723,23,-340,-151,151
184,2163,2,-415,-4720,23,-334,-141,139
185,2158,6,-425,-4733,23,-338,-156,144
186,2158,1,-419,-4720,23,-357,-150,138
187,2160,-4,-421,-4725,23,-344,-128,125
188,2161,2,-412,-4737,23,-343,-152,141
189,2156,0,-427,-4724,23,-345,-161,139
190,2162,-10,-430,-4724,23,-336,-169,161
191,2172,1,-425,-4720,23,-353,-140,156
192,2158,10,-415,-4705,23,-329,-149,151
193,2161,-3,-423,-4723,23,-337,-155,162
194,2158,0,-433,-4719,23,-340,-158,134
195,2164,-1,-431,-4728,23,-353,-153,143
196,2159,-5,-427,-4724,23,-340,-152,136
197,2157,-3,-423,-4737,23,-358,-126,126
198,2157,3,-422,-4716,23,-341,-139,115
199,2163,4,-424,-4723,23,-351,-160,140
200,2157,1,-418,-4722,23,-339,-148,146
201,2157,-3,-417,-4732,23,-351,-142,146
202,2169,-3,-412,-4728,23,-358,-152,129
203,2156,11,-422,-4723,23,-356,-151,156
204,2154,2,-432,-4732,23,-358,-135,129
205,2162,11,-426,-4732,23,-331,-146,127
206,2156,3,-426,-4725,23,-339,-154,135
207,2162,5,-445,-4730,23,-341,-138,144
208,2159,-4,-421,-4720,23,-343,-143,151
209,2152,2,-416,-4725,23,-338,-136,125
210,2143,-2,-441,-4733,23,-361,-163,133
211,2163,0,-429,-4726,23,-372,-176,137
212,2161,-3,-434,-4725,23,-341,-153,138
213,2154,4,-427,-4720,23,-346,-139,146
214,2160,-6,-429,-4727,23,-354,-156,134
215,2164,-1,-415,-4724,23,-343,-150,144
216,2161,-1,-435,-4730,23,-339,-153,136
217,2157,-8,-434,-4721,23,-343,-146,136
218,2155,0,-428,-4739,23,-353,-132,135
219,2156,7,-414,-4727,23,-351,-146,130
220,2162,5,-429,-4721,23,-354,-156,143
221,2153,13,-439,-4733,23,-345,-147,161
222,2159,3,-426,-4719,23,-340,-141,139
223,2161,2,-429,-4729,23,-340,-149,141
224,2162,-5,-426,-4727,23,-351,-165,132
225,2156,7,-408,-4715,23,-338,-146,134
226,2177,2,-430,-4733,23,-334,-159,140
227,2151,3,-422,-4730,23,-340,-158,138
228,2158,6,-418,-4726,23,-350,-160,145
229,2167,1,-425,-4728,23,-350,-127,150
230,2163,9,-434,-4734,23,-349,-155,142
231,2162,9,-432,-4725,23,-345,-147,148
232,2158,9,-422,-4726,23,-350,-147,150
233,2158,1,-424,-4720,23,-346,-145,147
234,2153,2,-408,-4717,23,-346,-157,148
235,2158,0,-425,-4724,23,-335,-165,144
236,2157,14,-436,-4718,23,-340,-156,127
237,2167,9,-439,-4714,23,-341,-143,138
238,2157,-7,-418,-4725,23,-346,-134,140
239,2158,0,-432,-4724,23,-356,-154,133
240,2157,3,-430,-4733,23,-337,-166,142
241,2161,-5,-416,-4733,23,-357,-145,115
242,2147,6,-419,-4730,23,-347,-152,139
243,2153,2,-433,-4721,23,-364,-145,123
244,2160,-1,-434,-4730,23,-339,-145,143
245,2151,-7,-420,-4725,23,-351,-146,138
246,2151,3,-425,-4724,23,-340,-139,140
247,2153,-6,-425,-4724,23,-322,-137,131
248,2159,-3,-425,-4742,23,-348,-146,139
249,2156,-12,-429,-4729,23,-357,-158,159
250,2155,-4,-422,-4730,23,-338,-147,139
251,2163,0,-423,-4741,23,-358,-153,148
252,2153,-3,-425,-4731,23,-351,-150,144
253,2165,3,-421,-4723,23,-355,-141,144
254,2159,1,-431,-4723,23,-355,-163,141
255,2159,-6,-419,-4737,23,-351,-153,138
256,2161,5,-406,-4722,23,-349,-141,147
257,2168,1,-417,-4736,23,-354,-158,141
258,2156,-10,-423,-4723,23,-340,-162,150
259,2164,0,-419,-4727,23,-341,-147,151
260,2152,2,-423,-4724,23,-354,-164,123
261,2174,3,-422,-4716,23,-335,-155,140
262,2158,8,-427,-4735,23,-340,-126,143
263,2153,11,-437,-4722,23,-355,-157,141
264,2155,-7,-408,-4720,23,-333,-147,146
265,2161,2,-438,-4711,23,-345,-146,143
266,2158,0,-425,-4742,23,-338,-151,131
267,2161,-7,-418,-4723,23,-351,-152,138
268,2150,-6,-430,-4733,23,-348,-165,147
269,2156,6,-413,-4715,23,-337,-163,141
270,2166,-2,-428,-4727,23,-335,-159,156
271,2156,-5,-425,-4733,23,-355,-160,125
272,2158,-3,-436,-4754,23,-345,-160,140
273,2161,-2,-424,-4721,23,-342,-154,137
274,2151,-1,-423,-4725,23,-329,-142,124
275,2163,3,-427,-4717,23,-336,-151,152
276,2159,4,-434,-4727,23,-326,-142,132
277,2155,0,-427,-4715,23,-341,-162,154
278,2155,-5,-431,-4722,23,-343,-171,159
279,2166,-8,-438,-4735,23,-342,-142,121
280,2157,-4,-428,-4720,23,-323,-148,148
281,2157,5,-431,-4718,23,-327,-163,138
282,2158,0,-415,-4734,23,-330,-138,135
283,2155,3,-429,-4730,23,-347,-157,131
284,2171,8,-414,-4730,23,-341,-153,130
285,2158,6,-425,-4734,23,-339,-150,148
286,2159,2,-431,-4713,23,-348,-149,160
287,2157,-3,-431,-4728,23,-348,-153,136
288,2164,11,-431,-4723,23,-349,-147,137
289,2168,-7,-415,-4734,23,-357,-144,142
290,2161,-5,-432,-4728,23,-344,-144,138
291,2170,1,-425,-4720,23,-351,-149,124
292,2148,6,-427,-4735,23,-352,-143,134
293,2168,-1,-420,-4730,23,-336,-160,125
294,2161,3,-436,-4724,23,-337,-138,134
295,2160,-2,-407,-4727,23,-338,-147,128
296,2156,6,-431,-4716,23,-337,-155,139
297,2154,4,-417,-4714,23,-342,-153,136
298,2168,3,-420,-4717,23,-332,-136,133
299,2153,-1,-431,-4715,23,-336,-157,141
300,2165,-2,-423,-4725,23,-356,-145,133
301,2165,-1,-422,-4726,23,-350,-147,130
302,2155,-3,-432,-4734,23,-357,-166,138
303,2158,-5,-444,-4732,23,-352,-140,134
304,2156,10,-428,-4719,23,-339,-153,134
305,2159,-3,-423,-4732,23,-343,-143,136
306,2163,3,-409,-4732,23,-342,-149,147
307,2158,-1,-432,-4730,23,-351,-140,157
308,2166,-8,-425,-4732,23,-342,-160,119
309,2156,2,-429,-4726,23,-345,-143,142
310,2158,-5,-416,-4709,23,-338,-151,145
311,2160,-1,-431,-4748,23,-340,-156,141
312,2163,-10,-416,-4735,23,-339,-141,149
313,2165,-4,-424,-4723,23,-338,-144,133
314,2154,-10,-429,-4735,23,-327,-160,133
315,2160,-1,-435,-4716,23,-350,-145,127
316,2160,-4,-424,-4728,23,-346,-152,145
317,2151,4,-429,-4717,23,-347,-153,133
318,2169,4,-422,-4731,23,-337,-138,124
319,2154,-4,-427,-4730,23,-338,-150,129
320,2150,0,-441,-4724,23,-338,-166,128
321,2159,-1,-418,-4718,23,-335,-168,137
322,2161,-7,-427,-4717,23,-337,-137,141
323,2163,5,-437,-4715,23,-339,-158,142
324,2160,5,-437,-4730,23,-319,-167,160
325,2164,9,-430,-4722,23,-338,-169,140
326,2166,-3,-426,-4740,23,-346,-140,141
327,2172,7,-423,-4723,23,-347,-159,141
328,2155,4,-424,-4723,23,-352,-136,146
329,2162,-3,-436,-4723,23,-353,-158,129
330,2158,8,-424,-4717,23,-345,-143,146
331,2154,-2,-417,-4731,23,-344,-130,153
332,2162,-2,-414,-4722,23,-355,-144,153
333,2163,-6,-421,-4731,23,-337,-134,142
334,2163,4,-423,-4737,23,-335,-162,144
335,2161,3,-432,-4720,23,-337,-171,138
336,2156,2,-431,-4717,23,-357,-171,133
337,2166,2,-427,-4730,23,-352,-153,139
338,2168,1,-431,-4718,23,-359,-140,130
339,2161,5,-432,-4736,23,-342,-143,147
340,2159,4,-429,-4725,23,-337,-143,139
341,2162,0,-418,-4732,23,-355,-130,133
342,2156,-6,-432,-4713,23,-337,-157,139
343,2167,3,-422,-4735,23,-354,-163,134
344,2157,0,-431,-4720,23,-350,-148,127
345,2156,0,-425,-4738,23,-366,-163,117
346,2166,8,-418,-4711,23,-343,-142,140
347,2156,6,-429,-4733,23,-342,-137,143
348,2152,5,-427,-4732,23,-343,-146,138
349,2157,2,-419,-4722,23,-347,-147,135
350,2162,10,-426,-4729,23,-331,-150,126
351,2167,-3,-416,-4720,23,-353,-144,140
352,2157,-1,-420,-4732,23,-347,-161,136
353,2157,8,-417,-4723,23,-357,-161,135
354,2162,-17,-433,-4720,23,-348,-162,124
355,2171,-4,-430,-4708,23,-344,-158,132
356,2160,5,-421,-4726,23,-335,-134,132
357,2159,5,-423,-4722,23,-327,-131,146
358,2159,-1,-433,-4736,23,-336,-136,141
359,2161,3,-427,-4721,23,-354,-142,132
360,2151,-4,-414,-4729,23,-337,-146,122
361,2155,-12,-428,-4727,23,-360,-135,130
362,2165,-2,-425,-4731,23,-354,-172,124
363,2156,4,-426,-4719,23,-347,-156,135
364,2153,7,-437,-4730,23,-351,-146,142
365,2163,-6,-430,-4730,23,-370,-156,152
366,2161,9,-436,-4729,23,-333,-163,126
367,2174,1,-431,-4719,23,-336,-136,119
368,2166,-4,-429,-4736,23,-333,-148,144
369,2156,-9,-421,-4726,23,-346,-144,140
370,2168,8,-429,-4713,23,-351,-153,152
371,2173,-1,-439,-4725,23,-344,-147,149
372,2162,3,-414,-4732,23,-346,-156,135
373,2164,-2,-420,-4724,23,-347,-165,125
374,2161,-2,-420,-4728,23,-335,-150,131
375,2163,-10,-441,-4724,23,-338,-145,140
376,2158,-1,-426,-4734,23,-357,-148,148
377,2160,-3,-427,-4731,23,-367,-163,134
378,2163,1,-438,-4712,23,-337,-166,149
379,2164,2,-414,-4719,23,-354,-135,139
380,2157,7,-427,-4720,23,-345,-138,134
381,2163,-7,-437,-4718,23,-346,-141,142
382,2157,-7,-436,-4709,23,-333,-150,142
383,2163,6,-412,-4719,23,-353,-150,134
384,2154,5,-432,-4714,23,-351,-143,130
385,2164,-6,-420,-4720,23,-362,-139,146
386,2171,-3,-425,-4722,23,-341,-164,145
387,2163,-4,-430,-4719,23,-358,-159,146
388,2159,6,-427,-4720,23,-350,-141,146
389,2164,6,-419,-4719,23,-345,-157,135
390,2163,-8,-432,-4728,23,-346,-139,130
391,2161,3,-425,-4713,23,-334,-161,133
392,2167,11,-422,-4725,23,-330,-159,140
393,2169,2,-425,-4716,23,-326,-143,146
394,2157,-5,-419,-4710,23,-350,-153,139
395,2170,10,-424,-4715,23,-344,-151,138
396,2160,-4,-434,-4723,23,-355,-149,128
397,2161,-12,-424,-4723,23,-356,-152,147
398,2162,3,-422,-4728,23,-345,-141,145
399,2158,-4,-424,-4718,23,-337,-158,145
400,2151,-2,-411,-4713,23,-332,-138,137
401,2153,-3,-427,-4728,23,-337,-159,144
402,2163,-12,-419,-4715,23,-331,-158,127
403,2158,10,-430,-4723,23,-348,-139,136
404,2156,-6,-415,-4742,23,-346,-148,131
405,2164,-1,-418,-4727,23,-337,-144,143
406,2162,3,-430,-4727,23,-359,-144,142
407,2157,-2,-427,-4718,23,-340,-158,128
408,2159,-9,-434,-4732,23,-337,-144,136
409,2163,2,-414,-4719,23,-344,-141,125
410,2157,-7,-438,-4732,23,-332,-142,130
411,2160,5,-431,-4714,23,-332,-152,140
412,2166,7,-424,-4724,23,-351,-152,144
413,2164,1,-441,-4725,23,-341,-158,157
414,2165,7,-417,-4714,23,-342,-143,140
415,2159,-3,-417,-4725,23,-359,-190,133
416,2161,-2,-417,-4719,23,-347,-162,139
417,2158,5,-422,-4737,23,-358,-160,145
418,2157,0,-413,-4732,23,-340,-144,138
419,2155,-12,-426,-4728,23,-344,-166,140
420,2167,5,-425,-4728,23,-355,-137,123
421,2168,0,-427,-4730,23,-346,-159,133
422,2162,14,-424,-4724,23,-330,-163,143
423,2150,-4,-436,-4724,23,-338,-147,145
424,2165,3,-416,-4730,23,-336,-170,157
425,2157,-5,-428,-4721,23,-341,-165,134
426,2160,-3,-424,-4731,23,-333,-154,139
427,2163,1,-422,-4714,23,-346,-149,153
428,2163,5,-440,-4734,23,-352,-136,135
429,2157,5,-427,-4731,23,-355,-144,136
430,2157,6,-427,-4723,23,-329,-142,139
431,2169,4,-440,-4714,23,-326,-159,119
432,2157,6,-423,-4713,23,-356,-142,132
433,2157,11,-411,-4723,23,-340,-151,141
434,2159,-7,-427,-4723,23,-346,-151,152
435,2166,-3,-417,-4727,23,-334,-146,134
436,2159,0,-422,-4723,23,-353,-141,151
437,2161,-1,-426,-4724,23,-340,-144,139
438,2156,4,-428,-4729,23,-330,-139,139
439,2152,-1,-433,-4718,23,-328,-141,136
440,2173,2,-436,-4727,23,-350,-161,146
441,2164,-1,-418,-4717,23,-337,-148,132
442,2158,1,-406,-4707,23,-346,-163,113
443,2149,7,-430,-4725,23,-365,-158,163
444,2160,7,-416,-4732,23,-353,-155,146
445,2156,5,-453,-4729,23,-332,-160,131
446,2157,8,-437,-4729,23,-344,-154,141
447,2154,-13,-433,-4728,23,-358,-151,121
448,2152,5,-420,-4727,23,-342,-146,163
449,2157,3,-427,-4734,23,-352,-151,130
450,2152,6,-445,-4722,23,-343,-147,153
451,2151,1,-446,-4726,23,-356,-161,135
452,2166,1,-436,-4712,23,-338,-155,137
453,2159,-10,-417,-4719,23,-352,-167,142
454,2162,9,-402,-4715,23,-347,-146,153
455,2170,-3,-423,-4730,23,-345,-154,131
456,2160,12,-415,-4709,23,-334,-123,149
457,2162,4,-429,-4724,23,-353,-161,150
458,2162,1,-425,-4735,23,-331,-140,130
459,2153,6,-418,-4723,23,-344,-141,147
460,2151,-5,-436,-4728,23,-350,-142,134
461,2159,0,-423,-4711,23,-346,-162,152
462,2164,6,-442,-4738,23,-357,-159,141
463,2161,-10,-427,-4719,23,-358,-164,127
464,2163,16,-427,-4729,23,-338,-167,144
465,2153,7,-417,-4740,23,-351,-155,138
466,2157,1,-416,-4718,23,-348,-157,121
467,2167,1,-427,-4716,23,-347,-155,147
468,2164,-9,-438,-4730,23,-340,-138,130
469,2155,4,-432,-4712,23,-352,-150,147
470,2170,-5,-432,-4724,23,-346,-159,138
471,2167,-1,-425,-4728,23,-340,-151,146
472,2163,-9,-419,-4726,23,-347,-162,147
473,2160,0,-442,-4719,23,-345,-137,133
474,2170,6,-417,-4718,23,-336,-146,126
475,2166,5,-422,-4727,23,-337,-135,122
476,2153,1,-425,-4723,23,-323,-154,141
477,2153,3,-422,-4727,23,-338,-157,125
478,2162,3,-425,-4717,23,-350,-167,133
479,2154,6,-429,-4710,23,-350,-158,133
480,2163,1,-418,-4725,23,-346,-162,125
481,2169,1,-426,-4710,23,-333,-160,144
482,2168,-5,-440,-4713,23,-340,-140,155
483,2163,-1,-417,-4726,23,-340,-156,144
484,2153,3,-428,-4718,23,-358,-165,129
485,2159,-1,-428,-4730,23,-344,-145,116
486,2164,8,-424,-4731,23,-360,-144,139
487,2158,0,-429,-4731,23,-325,-153,139
488,2148,2,-424,-4736,23,-343,-152,153
489,2155,-2,-426,-4725,23,-365,-157,146
490,2155,2,-422,-4706,23,-337,-146,140
491,2158,-4,-418,-4731,23,-352,-143,134
492,2165,-6,-445,-4719,23,-339,-136,143
493,2158,7,-432,-4714,23,-344,-160,134
494,2153,-2,-426,-4728,23,-340,-152,143
495,2157,4,-425,-4732,23,-352,-162,131
496,2161,3,-436,-4718,23,-346,-140,145
497,2161,4,-431,-4722,23,-346,-163,146
498,2174,-10,-436,-4724,23,-352,-149,154
499,2157,-2,-423,-4729,23,-341,-163,143
500,2149,3,-440,-4719,23,-361,-143,150
501,2164,-3,-428,-4698,23,-360,-160,139
502,2156,3,-418,-4730,23,-348,-143,136
503,2161,-1,-424,-4714,23,-334,-161,141
504,2169,1,-429,-4725,23,-347,-163,136
505,2167,-3,-420,-4715,23,-341,-168,127
506,2170,-8,-424,-4736,23,-333,-146,144
507,2159,6,-430,-4725,23,-338,-153,132
508,2149,1,-421,-4730,23,-355,-150,144
509,2159,-5,-431,-4721,23,-336,-144,145
510,2162,1,-419,-4726,23,-349,-167,140
511,2147,9,-416,-4720,23,-343,-168,130
512,2164,3,-420,-4716,23,-347,-136,138
513,2156,-7,-435,-4717,23,-344,-142,136
514,2157,15,-430,-4724,23,-336,-143,126
515,2166,-1,-422,-4726,23,-331,-144,129
516,2163,-3,-433,-4725,23,-360,-159,129
517,2165,-8,-421,-4723,23,-341,-152,144
518,2157,10,-415,-4716,23,-351,-155,158
519,2155,6,-422,-4734,23,-353,-143,118
520,2161,-1,-425,-4728,23,-344,-138,129
521,2145,3,-428,-4723,23,-347,-140,146
522,2161,7,-424,-4720,23,-343,-154,146
523,2161,-2,-429,-4722,23,-338,-156,132
524,2173,-2,-432,-4717,23,-349,-147,134
525,2160,-5,-424,-4731,23,-335,-155,152
526,2157,-1,-423,-4725,23,-331,-164,143
527,2161,0,-442,-4726,23,-336,-145,137
528,2156,5,-430,-4741,23,-349,-136,154
529,2154,-2,-414,-4725,23,-334,-150,146
530,2154,-6,-425,-4725,23,-344,-161,146
531,2153,9,-429,-4727,23,-358,-138,142
532,2157,-9,-429,-4720,23,-363,-142,139
533,2159,-4,-424,-4727,23,-352,-150,148
534,2156,5,-428,-4708,23,-334,-147,140
535,2165,9,-437,-4726,23,-346,-147,130
536,2147,17,-416,-4716,23,-341,-146,160
537,2160,-2,-429,-4718,23,-343,-141,132
538,2166,1,-412,-4711,23,-356,-145,144
539,2160,11,-419,-4709,23,-328,-168,142
540,2150,-4,-435,-4726,23,-344,-155,142
541,2159,10,-417,-4725,23,-344,-154,134
542,2166,4,-414,-4720,23,-323,-171,139
543,2167,-5,-419,-4720,23,-321,-155,136
544,2174,2,-434,-4738,23,-348,-152,152
545,2154,2,-425,-4732,23,-341,-151,140
546,2161,3,-418,-4713,23,-348,-145,132
547,2158,-4,-432,-4707,23,-333,-135,115
548,2162,2,-410,-4717,23,-354,-147,156
549,2160,8,-426,-4721,23,-349,-139,130
550,2159,-2,-431,-4727,23,-351,-146,135
551,2158,6,-431,-4722,23,-348,-143,138
552,2151,1,-417,-4732,23,-388,-132,143
553,2166,-9,-423,-4735,23,-332,-143,143
554,2162,9,-424,-4712,23,-342,-152,144
555,2156,1,-416,-4729,23,-359,-142,136
556,2154,0,-436,-4719,23,-351,-154,144
557,2155,-2,-421,-4727,23,-353,-166,139
558,2180,1,-432,-4730,23,-352,-149,140
559,2160,0,-427,-4722,23,-355,-136,141
560,2167,9,-433,-4725,23,-338,-144,133
561,2164,-2,-424,-4719,23,-333,-149,129
562,2153,-5,-426,-4725,23,-356,-150,143
563,2155,-5,-422,-4728,23,-341,-156,135
564,2160,-2,-421,-4711,23,-341,-151,140
565,2156,0,-414,-4721,23,-343,-156,125
566,2162,-5,-416,-4717,23,-347,-158,130
567,2167,3,-420,-4719,23,-342,-163,148
568,2157,-5,-427,-4723,23,-351,-148,140
569,2162,1,-428,-4725,23,-352,-142,119
570,2160,-7,-436,-4738,23,-336,-144,145
571,2163,2,-429,-4713,23,-340,-152,137
572,2159,-3,-417,-4715,23,-348,-162,129
573,2164,-7,-426,-4725,23,-344,-144,124
574,2153,-1,-404,-4724,23,-351,-159,143
575,2164,-7,-437,-4724,23,-351,-152,132
576,2163,-3,-426,-4735,23,-339,-146,140
577,2171,0,-429,-4732,23,-339,-135,154
578,2155,-2,-413,-4733,23,-350,-154,142
579,2166,8,-431,-4734,23,-350,-138,142
580,2157,0,-415,-4728,23,-356,-143,147
581,2158,-3,-428,-4737,23,-357,-136,142
582,2171,6,-413,-4731,23,-338,-169,126
583,2157,19,-440,-4727,23,-347,-136,156
584,2159,5,-408,-4728,23,-341,-142,153
585,2169,1,-416,-4717,23,-350,-144,135
586,2160,-1,-425,-4727,23,-353,-132,143
587,2166,15,-424,-4715,23,-347,-156,144
588,2156,-9,-426,-4738,23,-332,-159,141
589,2166,0,-431,-4728,23,-355,-164,133
590,2159,-3,-419,-4718,23,-347,-135,142
591,2165,2,-422,-4709,23,-359,-144,147
592,2148,-7,-425,-4727,23,-363,-142,145
593,2153,9,-426,-4744,23,-362,-161,140
594,2158,7,-431,-4727,23,-347,-166,147
595,2163,0,-413,-4731,23,-346,-145,147
596,2172,-3,-406,-4727,23,-359,-143,129
597,2160,9,-422,-4725,23,-335,-159,148
598,2159,-4,-433,-4715,23,-331,-157,119
599,2158,-4,-424,-4725,23,-354,-151,125
600,2165,-2,-427,-4729,23,-346,-153,111
601,2166,-2,-426,-4721,23,-353,-135,132
602,2163,-2,-433,-4717,23,-347,-156,152
603,2154,8,-431,-4722,23,-342,-158,125
604,2157,12,-425,-4724,23,-329,-148,141
605,2162,1,-410,-4734,23,-345,-136,135
606,2148,6,-423,-4721,23,-346,-156,141
607,2166,12,-428,-4727,23,-356,-159,142
608,2168,4,-415,-4725,23,-361,-149,131
609,2159,5,-423,-4725,23,-336,-151,141
610,2158,7,-413,-4727,23,-361,-157,143
611,2167,-3,-429,-4716,23,-349,-127,140
612,2158,10,-421,-4703,23,-346,-158,135
613,2150,7,-412,-4728,23,-332,-133,141
614,2150,-3,-430,-4709,23,-355,-139,134
615,2163,10,-427,-4730,23,-351,-161,141
616,2155,-1,-413,-4729,23,-348,-150,135
617,2157,-1,-415,-4731,23,-344,-161,130
618,2162,3,-425,-4722,23,-342,-165,135
619,2166,4,-435,-4713,23,-352,-143,117
620,2156,0,-431,-4718,23,-335,-156,132
621,2156,3,-424,-4717,23,-356,-149,144
622,2161,0,-435,-4725,23,-351,-154,123
623,2163,6,-429,-4733,23,-344,-153,134
624,2155,-5,-415,-4713,23,-356,-160,152
625,2153,-2,-426,-4730,23,-361,-137,143
626,2157,-6,-431,-4716,23,-347,-141,149
627,2149,4,-420,-4726,23,-346,-149,152
628,2155,6,-435,-4721,23,-343,-158,132
629,2162,-8,-418,-4714,23,-345,-162,136
630,2156,3,-423,-4706,23,-344,-151,152
631,2161,8,-417,-4732,23,-351,-158,153
632,2163,3,-421,-4724,23,-348,-157,130
633,2162,9,-436,-4714,23,-358,-136,117
634,2168,0,-417,-4702,23,-356,-143,126
635,2154,6,-421,-4732,23,-352,-147,148
636,2153,5,-428,-4718,23,-348,-157,128
637,2162,0,-428,-4736,23,-345,-148,148
638,2168,7,-422,-4732,23,-352,-166,124
639,2166,2,-420,-4724,23,-346,-171,138
640,2161,-8,-423,-4718,23,-325,-159,134
641,2157,8,-434,-4710,23,-347,-158,134
642,2154,11,-420,-4715,23,-342,-159,117
643,2150,1,-422,-4727,23,-343,-152,150
644,2150,-5,-427,-4714,23,-369,-132,141
645,2159,-2,-419,-4729,23,-349,-153,138
646,2169,-1,-421,-4731,23,-333,-150,155
647,2163,-3,-420,-4724,23,-354,-146,128
648,2152,1,-431,-4728,23,-348,-150,139
649,2157,-8,-428,-4722,23,-347,-149,151
650,2166,-1,-424,-4720,23,-343,-141,149
651,2152,4,-422,-4730,23,-344,-148,131
652,2163,-4,-422,-4715,23,-343,-174,141
653,2166,1,-423,-4733,23,-362,-150,147
654,2157,2,-426,-4728,23,-351,-134,140
655,2156,4,-432,-4718,23,-336,-158,129
656,2155,9,-425,-4724,23,-340,-149,127
657,2157,-1,-429,-4719,23,-347,-148,161
658,2159,0,-425,-4718,23,-336,-140,134
659,2160,5,-427,-4718,23,-351,-163,149
660,2166,13,-431,-4721,23,-328,-165,127
661,2159,-4,-419,-4727,23,-335,-146,154
662,2154,1,-420,-4726,23,-358,-143,128
663,2159,5,-430,-4724,23,-341,-155,145
664,2150,10,-422,-4720,23,-341,-149,136
665,2153,-2,-442,-4735,23,-347,-144,129
666,2160,11,-435,-4721,23,-349,-170,135
667,2158,-3,-432,-4723,23,-335,-146,139
668,2160,0,-426,-4727,23,-347,-157,155
669,2162,-2,-420,-4714,23,-336,-141,129
670,2154,-10,-428,-4722,23,-341,-155,147
671,2162,1,-433,-4715,23,-360,-143,124
672,2159,0,-431,-4715,23,-348,-150,145
673,2157,4,-423,-4731,23,-333,-160,133
674,2161,-5,-427,-4719,23,-367,-164,135
675,2156,7,-430,-4739,23,-337,-151,141
676,2157,2,-437,-4730,23,-365,-157,136
677,2166,-2,-430,-4719,23,-358,-140,141
678,2152,1,-421,-4709,23,-333,-140,143
679,2162,-3,-427,-4720,23,-352,-167,154
680,2156,-6,-424,-4722,23,-340,-148,136
681,2158,-4,-433,-4723,23,-348,-157,135
682,2157,-3,-423,-4726,23,-353,-132,133
683,2159,-7,-432,-4716,23,-345,-163,143
684,2168,9,-406,-4713,23,-328,-136,131
685,2149,1,-413,-4718,23,-360,-142,122
686,2151,2,-432,-4711,23,-339,-143,140
687,2156,-10,-417,-4727,23,-356,-137,141
688,2168,5,-427,-4731,23,-342,-158,131
689,2163,4,-412,-4737,23,-359,-163,133
690,2155,-1,-421,-4724,23,-340,-163,130
691,2165,-8,-431,-4726,23,-338,-170,136
692,2165,-1,-433,-4719,23,-347,-153,134
693,2170,-12,-430,-4721,23,-352,-144,142
694,2163,4,-434,-4708,23,-344,-149,152
695,2160,8,-431,-4727,23,-334,-161,126
696,2159,6,-423,-4741,23,-333,-167,144
697,2154,6,-436,-4723,23,-339,-145,130
698,2157,7,-430,-4726,23,-340,-144,124
699,2157,0,-425,-4731,23,-336,-163,140
700,2168,-4,-413,-4729,23,-360,-153,149
701,2165,-5,-430,-4713,23,-324,-158,149
702,2159,-2,-425,-4726,23,-358,-137,145
703,2161,3,-414,-4722,23,-351,-155,130
704,2165,-3,-424,-4712,23,-332,-157,136
705,2162,1,-415,-4724,23,-357,-137,137
706,2156,2,-418,-4729,23,-352,-147,144
707,2157,1,-423,-4718,23,-335,-155,137
708,2154,-2,-428,-4728,23,-341,-165,148
709,2155,-2,-425,-4719,23,-352,-144,133
710,2169,-5,-426,-4715,23,-334,-149,145
711,2150,7,-425,-4721,23,-324,-150,126
712,2163,0,-426,-4721,23,-336,-158,143
713,2165,9,-427,-4714,23,-360,-145,130
714,2162,4,-426,-4722,23,-343,-161,147
715,2166,-3,-426,-4722,23,-351,-138,142
716,2159,2,-437,-4733,23,-349,-143,132
717,2164,-2,-433,-4718,23,-348,-147,137
718,2165,-13,-411,-4723,23,-341,-174,148
719,2158,6,-431,-4716,23,-338,-155,129
720,2152,-11,-432,-4719,23,-347,-142,134
721,2148,-6,-410,-4723,23,-318,-137,145
722,2152,2,-419,-4724,23,-345,-148,149
723,2162,-3,-437,-4709,23,-352,-142,153
724,2166,10,-425,-4727,23,-339,-151,148
725,2163,-5,-417,-4712,23,-348,-146,130
726,2160,1,-420,-4712,23,-350,-150,147
727,2156,2,-416,-4715,23,-352,-134,137
728,2161,5,-438,-4719,23,-343,-164,136
729,2166,7,-418,-4713,23,-325,-159,142
730,2155,-1,-405,-4716,23,-344,-173,136
731,2156,3,-431,-4724,23,-350,-165,139
732,2151,-1,-409,-4730,23,-347,-147,146
733,2154,4,-415,-4718,23,-351,-148,144
734,2166,1,-432,-4711,23,-347,-155,146
735,2145,3,-424,-4736,23,-354,-136,150
736,2156,5,-436,-4718,23,-347,-147,167
737,2156,10,-425,-4713,23,-348,-155,117
738,2153,2,-419,-4732,23,-349,-151,139
739,2147,4,-419,-4708,23,-348,-136,135
740,2157,2,-433,-4725,23,-347,-139,132
741,2164,1,-420,-4721,23,-343,-146,134
742,2157,-2,-423,-4729,23,-337,-151,146
743,2164,0,-431,-4722,23,-357,-167,137
744,2162,-2,-423,-4713,23,-332,-129,132
745,2163,3,-434,-4730,23,-340,-147,147
746,2159,3,-424,-4735,23,-347,-161,133
747,2162,6,-432,-4734,23,-345,-170,133
748,2152,1,-429,-4737,23,-350,-160,125
749,2171,-5,-429,-4716,23,-361,-160,153
750,2151,2,-422,-4719,23,-349,-121,140
751,2155,-1,-435,-4710,23,-342,-157,137
752,2152,6,-429,-4715,23,-362,-140,156
753,2165,0,-419,-4719,23,-359,-133,139
754,2159,6,-438,-4710,23,-349,-155,139
755,2167,5,-430,-4713,23,-331,-170,142
756,2166,-3,-429,-4713,23,-322,-147,141
757,2159,1,-429,-4727,23,-352,-134,138
758,2166,1,-412,-4737,23,-371,-143,136
759,2163,-1,-416,-4710,23,-369,-146,142
760,2165,-7,-405,-4714,23,-327,-132,142
761,2154,-10,-418,-4720,23,-344,-133,148
762,2160,-2,-430,-4724,23,-346,-186,146
763,2164,-5,-431,-4739,23,-365,-135,125
764,2167,2,-437,-4717,23,-345,-152,138
765,2159,7,-414,-4705,23,-336,-162,133
766,2160,-3,-429,-4730,23,-360,-141,135
767,2158,5,-416,-4716,23,-354,-137,134
768,2161,8,-416,-4723,23,-334,-139,159
769,2163,0,-419,-4708,23,-355,-152,146
770,2166,14,-424,-4713,23,-347,-140,140
771,2149,-10,-439,-4720,23,-346,-134,159
772,2154,0,-423,-4742,23,-359,-148,148
773,2150,-3,-436,-4717,23,-339,-160,132
774,2156,11,-425,-4732,23,-343,-138,141
775,2165,-5,-426,-4721,23,-350,-153,146
776,2151,-1,-426,-4723,23,-342,-133,140
777,2154,5,-426,-4719,23,-333,-113,130
778,2151,-1,-431,-4712,23,-343,-128,145
779,2154,0,-419,-4732,23,-342,-151,144
780,2159,0,-425,-4717,23,-341,-141,146
781,2149,-13,-421,-4726,23,-344,-167,137
782,2159,5,-417,-4735,23,-343,-127,146
783,2162,-3,-421,-4724,23,-334,-176,144
784,2154,7,-416,-4729,23,-340,-154,130
785,2160,5,-436,-4721,23,-331,-144,145
786,2163,2,-432,-4733,23,-352,-152,158
787,2163,-3,-419,-4723,23,-353,-145,131
788,2153,4,-429,-4722,23,-345,-163,149
789,2165,3,-423,-4718,23,-355,-144,131
790,2169,-6,-432,-4729,23,-336,-176,152
791,2161,11,-403,-4726,23,-349,-143,130
792,2149,-1,-428,-4723,23,-354,-152,153
793,2157,1,-418,-4711,23,-339,-148,145
794,2161,2,-417,-4718,23,-330,-158,151
795,2152,-3,-428,-4707,23,-337,-125,133
796,2151,-7,-453,-4727,23,-338,-141,144
797,2160,-7,-430,-4722,23,-348,-144,135
798,2155,-4,-426,-4719,23,-356,-156,140
799,2152,8,-434,-4723,23,-351,-148,141
800,2166,3,-421,-4716,23,-369,-141,120
801,2149,5,-423,-4710,23,-352,-121,149
802,2154,0,-423,-4717,23,-340,-159,143
803,2162,-4,-437,-4727,23,-342,-152,121
804,2163,-1,-420,-4727,23,-341,-162,137
805,2170,4,-425,-4722,23,-345,-139,138
806,2155,2,-436,-4727,23,-352,-156,158
807,2149,1,-431,-4726,23,-351,-151,133
808,2156,-1,-429,-4725,23,-342,-158,143
809,2158,4,-429,-4721,23,-339,-168,126
810,2164,0,-427,-4717,23,-343,-139,138
811,2153,-2,-433,-4727,23,-361,-149,130
812,2149,0,-416,-4726,23,-343,-143,143
813,2154,-7,-434,-4723,23,-333,-144,146
814,2166,5,-418,-4715,23,-344,-169,149
815,2160,-5,-426,-4726,23,-345,-154,150
816,2157,3,-428,-4720,23,-348,-162,139
817,2158,1,-442,-4711,23,-341,-153,129
818,2159,-3,-418,-4729,23,-345,-157,138
819,2167,-7,-446,-4719,23,-350,-151,142
820,2159,-8,-413,-4730,23,-338,-137,143
821,2160,-4,-434,-4712,23,-354,-148,136
822,2158,1,-437,-4722,23,-352,-157,137
823,2157,3,-419,-4718,23,-356,-179,133
824,2152,2,-419,-4721,23,-351,-158,118
825,2158,6,-441,-4723,23,-336,-153,132
826,2170,4,-430,-4703,23,-348,-152,156
827,2159,8,-418,-4726,23,-352,-145,143
828,2154,-2,-432,-4704,23,-357,-155,147
829,2151,0,-406,-4715,23,-340,-154,153
830,2162,6,-426,-4718,23,-339,-146,144
831,2170,-4,-416,-4729,23,-354,-137,146
832,2158,-2,-435,-4720,23,-354,-146,140
833,2163,-4,-426,-4731,23,-341,-136,149
834,2158,8,-418,-4709,23,-346,-161,143
835,2154,1,-419,-4710,23,-359,-157,140
836,2158,0,-428,-4714,23,-348,-146,147
837,2157,14,-425,-4721,23,-353,-137,143
838,2159,3,-433,-4728,23,-350,-149,134
839,2160,-1,-412,-4703,23,-343,-167,149
840,2159,-3,-422,-4722,23,-356,-167,140
841,2160,-4,-426,-4718,23,-368,-146,147
842,2156,-3,-426,-4718,23,-346,-145,119
843,2168,-1,-433,-4718,23,-351,-152,140
844,2158,-4,-438,-4724,23,-352,-140,136
845,2160,7,-414,-4721,23,-334,-140,156
846,2163,-3,-415,-4734,23,-358,-165,133
847,2148,-4,-424,-4716,23,-346,-158,150
848,2158,1,-423,-4724,23,-332,-135,132
849,2163,1,-414,-4711,23,-351,-142,134
850,2163,-4,-429,-4722,23,-361,-135,143
851,2156,8,-435,-4716,23,-341,-144,148
852,2162,9,-425,-4706,23,-353,-146,147
853,2152,1,-418,-4715,23,-345,-129,145
854,2150,-9,-421,-4712,23,-342,-165,137
855,2156,-4,-433,-4719,23,-360,-150,127
856,2157,-5,-433,-4725,23,-339,-145,148
857,2164,-5,-417,-4732,23,-342,-143,142
858,2170,2,-440,-4710,23,-346,-146,139
859,2169,1,-426,-4733,23,-341,-175,144
860,2161,-10,-422,-4709,23,-337,-146,128
861,2174,-1,-418,-4721,23,-348,-171,134
862,2157,9,-426,-4729,23,-345,-144,140
863,2160,-6,-415,-4711,23,-367,-159,141
864,2161,2,-435,-4724,23,-348,-165,145
865,2159,-7,-420,-4725,23,-347,-128,138
866,2159,2,-430,-4719,23,-338,-147,154
867,2169,-5,-417,-4723,23,-355,-161,139
868,2170,6,-429,-4715,23,-352,-156,148
869,2156,-3,-410,-4703,23,-336,-138,151
870,2162,8,-415,-4714,23,-356,-145,130
871,2161,2,-424,-4733,23,-346,-139,128
872,2153,-11,-434,-4727,23,-363,-135,133
873,2160,1,-433,-4709,23,-355,-141,121
874,2171,-6,-423,-4714,23,-338,-155,133
875,2156,0,-421,-4723,23,-340,-138,143
876,2160,5,-417,-4716,23,-340,-144,123
877,2160,2,-424,-4728,23,-345,-151,130
878,2167,-2,-419,-4722,23,-356,-145,151
879,2162,-8,-432,-4713,23,-348,-160,136
880,2160,0,-429,-4717,23,-351,-157,133
881,2166,-3,-430,-4721,23,-335,-145,133
882,2154,12,-418,-4710,23,-350,-149,141
883,2159,10,-425,-4717,23,-343,-156,143
884,2162,2,-430,-4730,23,-332,-135,128
885,2156,3,-419,-4709,23,-351,-156,135
886,2158,-10,-426,-4732,23,-337,-162,142
887,2158,2,-424,-4724,23,-341,-154,142
888,2166,-13,-412,-4711,23,-342,-156,137
889,2163,3,-432,-4722,23,-349,-149,118
890,2170,3,-416,-4717,23,-343,-147,129
891,2176,5,-432,-4711,23,-343,-177,138
892,2161,-3,-426,-4729,23,-336,-161,134
893,2154,5,-427,-4720,23,-326,-154,130
894,2150,-4,-415,-4704,23,-341,-139,132
895,2158,9,-423,-4718,23,-345,-155,136
896,2166,8,-448,-4719,23,-356,-148,155
897,2161,6,-418,-4719,23,-348,-147,137
898,2158,0,-425,-4723,23,-359,-143,139
899,2170,11,-424,-4728,23,-337,-143,152
900,2151,6,-414,-4715,23,-332,-140,134
901,2170,4,-419,-4718,23,-340,-146,157
902,2162,-2,-427,-4718,23,-345,-149,131
903,2150,1,-422,-4709,23,-339,-145,132
904,2156,-1,-414,-4728,23,-346,-143,132
905,2163,-3,-421,-4716,23,-367,-151,144
906,2150,1,-411,-4721,23,-371,-152,145
907,2158,-1,-434,-4719,23,-351,-145,147
908,2153,-1,-419,-4722,23,-340,-161,151
909,2152,-8,-428,-4714,23,-335,-141,154
910,2164,1,-413,-4713,23,-336,-147,132
911,2158,-7,-439,-4729,23,-340,-162,132
912,2156,-5,-423,-4708,23,-339,-153,150
913,2143,2,-432,-4722,23,-349,-140,138
914,2158,5,-436,-4720,23,-333,-154,147
915,2161,1,-425,-4719,23,-357,-162,141
916,2153,5,-434,-4709,23,-352,-143,155
917,2169,5,-423,-4711,23,-358,-131,135
918,2154,7,-424,-4714,23,-345,-155,151
919,2153,-3,-417,-4712,23,-354,-145,138
920,2150,11,-431,-4730,23,-348,-151,127
921,2167,3,-428,-4731,23,-357,-153,143
922,2161,-1,-436,-4708,23,-336,-159,147
923,2166,5,-421,-4725,23,-328,-145,141
924,2172,4,-423,-4730,23,-343,-139,147
925,2160,3,-422,-4727,23,-338,-172,138
926,2163,-5,-410,-4711,23,-350,-153,131
927,2156,-10,-417,-4726,23,-345,-160,143
928,2168,10,-434,-4698,23,-357,-162,141
929,2156,1,-424,-4715,23,-347,-150,132
930,2158,-4,-431,-4719,23,-347,-146,131
931,2165,-6,-442,-4723,23,-346,-141,127
932,2168,6,-418,-4717,23,-362,-147,135
933,2158,-5,-424,-4720,23,-360,-149,145
934,2157,8,-430,-4727,23,-335,-150,133
935,2155,5,-428,-4719,23,-349,-146,129
936,2153,9,-430,-4708,23,-345,-131,121
937,2163,-5,-425,-4717,23,-357,-155,131
938,2163,-2,-419,-4719,23,-337,-140,129
939,2159,17,-419,-4726,23,-353,-150,128
940,2166,7,-422,-4723,23,-347,-158,157
941,2166,-7,-429,-4717,23,-346,-164,147
942,2155,7,-433,-4709,23,-354,-138,156
943,2156,1,-439,-4717,23,-354,-140,146
944,2161,4,-432,-4709,23,-354,-157,151
945,2163,2,-427,-4715,23,-338,-151,145
946,2176,1,-418,-4717,23,-350,-143,149
947,2162,0,-424,-4715,23,-354,-168,138
948,2156,1,-414,-4724,23,-340,-142,133
949,2149,8,-418,-4713,23,-352,-157,136
950,2157,5,-420,-4721,23,-333,-151,130
951,2153,0,-419,-4729,23,-341,-139,131
952,2167,-5,-436,-4721,23,-348,-153,151
953,2159,0,-440,-4706,23,-340,-135,128
954,2156,8,-429,-4716,23,-346,-138,147
955,2161,-3,-412,-4719,23,-336,-153,152
956,2154,-2,-425,-4719,23,-344,-158,137
957,2150,6,-440,-4716,23,-344,-154,137
958,2152,-4,-420,-4719,23,-335,-150,131
959,2154,0,-426,-4726,23,-358,-162,143
960,2159,3,-411,-4712,23,-347,-170,127
961,2153,-9,-440,-4713,23,-347,-140,142
962,2164,1,-426,-4705,23,-335,-162,156
963,2170,2,-419,-4718,23,-353,-148,124
964,2154,7,-414,-4722,23,-355,-141,146
965,2160,-1,-421,-4707,23,-339,-135,151
966,2161,7,-430,-4730,23,-339,-150,144
967,2161,-2,-432,-4728,23,-349,-153,133
968,2154,-9,-425,-4726,23,-363,-152,155
969,2165,1,-423,-4728,23,-360,-145,148
970,2158,-1,-428,-4713,23,-335,-143,139
971,2147,-1,-419,-4715,23,-351,-146,144
972,2155,-15,-431,-4724,23,-347,-145,157
973,2158,-6,-409,-4718,23,-340,-134,123
974,2155,-8,-434,-4716,23,-367,-154,136
975,2164,10,-426,-4719,23,-336,-149,131
976,2166,0,-426,-4717,23,-359,-145,142
977,2159,-5,-434,-4720,23,-344,-141,148
978,2158,-7,-420,-4715,23,-358,-140,143
979,2165,-6,-425,-4715,23,-339,-171,136
980,2158,-10,-422,-4715,23,-339,-156,146
981,2165,-2,-424,-4709,23,-344,-155,130
982,2156,3,-422,-4730,23,-337,-160,147
983,2151,3,-433,-4727,23,-372,-153,138
984,2157,4,-424,-4714,23,-349,-160,147
985,2159,3,-428,-4711,23,-346,-170,136
986,2155,5,-423,-4710,23,-331,-156,147
987,2160,-6,-433,-4730,23,-343,-133,130
988,2162,-2,-427,-4726,23,-355,-149,160
989,2152,0,-416,-4715,23,-361,-145,141
990,2164,2,-441,-4715,23,-343,-157,143
991,2156,0,-421,-4721,23,-336,-148,125
992,2139,0,-420,-4715,23,-343,-147,145
993,2160,-1,-416,-4713,23,-337,-160,140
994,2162,-6,-419,-4717,23,-345,-156,124
995,2158,2,-443,-4719,23,-340,-148,139
996,2158,-4,-421,-4735,23,-344,-143,142
997,2160,5,-408,-4718,23,-329,-142,139
998,2164,6,-429,-4714,23,-337,-152,135
