,acc_X,acc_Y,acc_Z,temp,tempC,gyr_X,gyr_Y,gyr_Z
0,2156,-2,-426,-4697,23,-171,-75,70
1,2158,-3,-426,-4697,23,-172,-77,71
2,2159,2,-432,-4696,23,-172,-78,70
3,2157,4,-422,-4701,23,-171,-75,69
4,2158,4,-428,-4701,23,-170,-74,67
5,2163,1,-426,-4701,23,-169,-78,65
6,2158,0,-428,-4697,23,-173,-75,69
7,2158,-4,-430,-4700,23,-171,-73,68
8,2161,-4,-427,-4698,23,-171,-80,70
9,2159,-6,-423,-4697,23,-172,-80,70
10,2161,-5,-427,-4697,23,-170,-79,67
11,2156,3,-429,-4701,23,-173,-80,68
12,2153,4,-429,-4696,23,-176,-77,71
13,2159,0,-427,-4698,23,-175,-83,69
14,2158,2,-427,-4699,23,-174,-79,66
15,2159,-2,-427,-4697,23,-173,-76,68
16,2159,0,-426,-4699,23,-174,-73,68
17,2158,-1,-427,-4703,23,-174,-75,69
18,2162,-5,-432,-4702,23,-176,-77,68
19,2162,-1,-427,-4698,23,-172,-77,68
20,2158,-1,-427,-4696,23,-174,-78,68
21,2160,-1,-424,-4698,23,-177,-78,68
22,2161,-3,-424,-4699,23,-176,-77,68
23,2161,-1,-419,-4698,23,-178,-82,63
24,2157,-2,-421,-4699,23,-175,-82,66
25,2157,-3,-424,-4705,23,-177,-84,65
26,2158,-3,-420,-4704,23,-178,-85,65
27,2163,2,-426,-4702,23,-175,-86,66
28,2163,3,-435,-4701,23,-174,-83,64
29,2159,1,-431,-4697,23,-172,-85,63
30,2156,2,-432,-4701,23,-175,-79,63
31,2159,5,-432,-4700,23,-175,-82,65
32,2159,6,-432,-4697,23,-175,-81,67
33,2158,5,-435,-4694,23,-174,-79,68
34,2156,5,-437,-4700,23,-171,-78,72
35,2157,1,-435,-4703,23,-173,-74,73
36,2156,2,-433,-4706,23,-174,-75,73
37,2158,2,-435,-4706,23,-169,-74,70
38,2157,1,-435,-4704,23,-173,-73,72
39,2159,0,-440,-4701,23,-173,-72,75
40,2157,-3,-434,-4699,23,-170,-68,75
41,2156,2,-437,-4697,23,-170,-67,76
42,2153,3,-438,-4696,23,-174,-68,76
43,2154,0,-434,-4695,23,-172,-67,79
44,2155,1,-428,-4697,23,-174,-65,75
45,2160,2,-429,-4701,23,-174,-60,72
46,2160,2,-422,-4696,23,-174,-65,75
47,2160,2,-422,-4698,23,-176,-64,73
48,2161,2,-418,-4695,23,-177,-67,75
49,2164,5,-423,-4697,23,-171,-68,74
50,2160,2,-419,-4698,23,-175,-68,78
51,2162,-4,-426,-4698,23,-176,-67,75
52,2162,-6,-426,-4699,23,-173,-69,74
53,2161,-5,-423,-4702,23,-175,-72,72
54,2158,-6,-425,-4705,23,-176,-73,72
55,2156,-5,-425,-4700,23,-177,-74,71
56,2158,-6,-423,-4698,23,-176,-72,69
57,2162,-8,-424,-4695,23,-175,-75,71
58,2158,-9,-421,-4701,23,-174,-78,68
59,2157,-8,-425,-4693,23,-174,-78,67
60,2160,-2,-429,-4691,23,-171,-78,69
61,2160,-2,-429,-4701,23,-172,-85,66
62,2161,0,-432,-4696,23,-174,-80,64
63,2158,2,-429,-4695,23,-174,-80,65
64,2155,3,-430,-4701,23,-175,-78,65
65,2161,3,-428,-4696,23,-176,-81,68
66,2159,1,-427,-4700,23,-177,-82,66
67,2157,2,-424,-4699,23,-173,-81,66
68,2156,1,-423,-4702,23,-173,-81,62
69,2156,1,-421,-4691,23,-174,-83,65
70,2158,1,-428,-4694,23,-173,-83,67
71,2158,3,-428,-4697,23,-176,-82,65
72,2156,0,-423,-4698,23,-176,-81,67
73,2156,-1,-428,-4701,23,-174,-79,69
74,2152,0,-432,-4699,23,-177,-78,70
75,2157,3,-438,-4703,23,-175,-78,65
76,2159,6,-426,-4703,23,-173,-77,67
77,2162,1,-428,-4697,23,-174,-80,65
78,2161,4,-427,-4691,23,-172,-81,68
79,2159,3,-430,-4693,23,-171,-80,65
80,2158,4,-430,-4701,23,-175,-77,67
81,2158,5,-436,-4696,23,-172,-77,67
82,2157,3,-429,-4698,23,-175,-75,70
83,2157,3,-426,-4696,23,-173,-75,70
84,2159,-1,-419,-4699,23,-171,-76,72
85,2154,0,-425,-4698,23,-172,-71,72
86,2160,-1,-427,-4694,23,-175,-73,72
87,2156,3,-424,-4690,23,-174,-74,70
88,2157,1,-424,-4693,23,-174,-75,73
89,2157,3,-425,-4702,23,-173,-76,74
90,2156,1,-430,-4699,23,-173,-73,75
91,2158,2,-428,-4698,23,-174,-72,74
92,2158,3,-437,-4695,23,-173,-74,71
93,2159,1,-435,-4690,23,-171,-76,70
94,2161,-1,-432,-4694,23,-174,-73,70
95,2160,-1,-433,-4698,23,-175,-73,69
96,2158,3,-432,-4696,23,-172,-72,69
97,2159,2,-429,-4693,23,-177,-71,74
98,2157,2,-425,-4698,23,-174,-71,74
99,2159,-1,-427,-4697,23,-171,-75,73
100,2157,-4,-425,-4694,23,-173,-76,76
101,2155,-3,-424,-4698,23,-174,-76,74
102,2156,-2,-423,-4695,23,-172,-72,72
103,2153,-1,-427,-4699,23,-175,-72,74
104,2158,-3,-425,-4701,23,-174,-74,74
105,2159,-3,-429,-4696,23,-173,-74,71
106,2163,-6,-422,-4692,23,-175,-74,69
107,2167,-7,-424,-4696,23,-173,-75,68
108,2164,-4,-418,-4696,23,-171,-81,66
109,2162,-4,-421,-4695,23,-173,-80,65
110,2161,-3,-425,-4703,23,-176,-78,68
111,2160,-3,-428,-4696,23,-177,-81,66
112,2159,-1,-430,-4697,23,-175,-79,64
113,2158,2,-436,-4692,23,-178,-79,66
114,2160,3,-431,-4697,23,-175,-82,67
115,2160,1,-431,-4699,23,-171,-81,66
116,2156,3,-431,-4694,23,-174,-85,68
117,2155,-1,-430,-4695,23,-172,-83,69
118,2153,0,-428,-4694,23,-175,-83,70
119,2156,0,-428,-4700,23,-172,-81,66
120,2155,-1,-433,-4695,23,-171,-81,63
121,2162,1,-435,-4699,23,-175,-76,64
122,2156,-2,-430,-4697,23,-177,-77,70
123,2155,-1,-432,-4695,23,-173,-78,70
124,2152,2,-435,-4699,23,-172,-74,72
125,2158,0,-432,-4696,23,-169,-76,71
126,2160,0,-428,-4697,23,-172,-72,69
127,2159,0,-424,-4700,23,-172,-74,71
128,2160,0,-432,-4700,23,-171,-75,70
129,2160,2,-428,-4698,23,-172,-74,70
130,2156,3,-426,-4696,23,-171,-73,72
131,2158,3,-430,-4701,23,-174,-75,70
132,2160,2,-430,-4697,23,-173,-73,72
133,2159,0,-430,-4698,23,-173,-72,72
134,2158,4,-434,-4690,23,-174,-69,70
135,2156,1,-431,-4692,23,-170,-69,75
136,2162,3,-426,-4698,23,-172,-71,71
137,2161,-1,-425,-4699,23,-172,-69,73
138,2159,-3,-426,-4695,23,-171,-70,74
139,2160,-5,-427,-4690,23,-171,-73,71
140,2160,-2,-431,-4693,23,-171,-72,73
141,2159,2,-426,-4694,23,-174,-74,70
142,2156,2,-433,-4698,23,-174,-72,70
143,2157,0,-424,-4693,23,-174,-72,70
144,2160,0,-427,-4702,23,-177,-76,70
145,2159,-2,-427,-4700,23,-173,-75,65
146,2160,0,-424,-4698,23,-170,-77,66
147,2158,-2,-426,-4698,23,-176,-78,67
148,2156,-2,-427,-4695,23,-175,-79,65
149,2161,-2,-426,-4692,23,-174,-76,67
150,2158,-2,-422,-4697,23,-174,-79,64
151,2156,-3,-424,-4696,23,-175,-81,69
152,2154,-3,-432,-4696,23,-174,-78,70
153,2155,-1,-430,-4700,23,-173,-78,70
154,2153,0,-428,-4696,23,-176,-75,64
155,2159,-5,-421,-4695,23,-175,-80,66
156,2159,0,-426,-4694,23,-176,-76,68
157,2154,1,-428,-4696,23,-174,-76,66
158,2155,3,-426,-4700,23,-174,-77,66
159,2159,5,-430,-4700,23,-174,-79,68
160,2160,3,-435,-4695,23,-176,-74,69
161,2159,1,-431,-4697,23,-174,-75,68
162,2161,5,-429,-4695,23,-174,-73,67
163,2156,2,-427,-4689,23,-173,-75,68
164,2158,2,-423,-4691,23,-176,-75,67
165,2159,-1,-426,-4690,23,-174,-75,70
166,2156,-1,-431,-4694,23,-172,-77,73
167,2158,-1,-431,-4695,23,-171,-79,69
168,2156,0,-430,-4695,23,-173,-76,71
169,2155,5,-432,-4694,23,-174,-77,73
170,2158,0,-430,-4694,23,-174,-78,73
171,2157,-3,-432,-4700,23,-175,-75,71
172,2158,1,-424,-4691,23,-173,-73,71
173,2159,0,-427,-4694,23,-175,-78,70
174,2154,0,-426,-4697,23,-172,-77,68
175,2156,5,-427,-4694,23,-174,-75,69
176,2161,1,-428,-4698,23,-172,-74,67
177,2160,2,-426,-4698,23,-177,-73,69
178,2158,-2,-427,-4701,23,-173,-71,69
179,2160,-3,-429,-4704,23,-172,-69,70
180,2158,-1,-426,-4700,23,-177,-72,69
181,2162,-4,-427,-4700,23,-175,-73,73
182,2159,-4,-425,-4694,23,-175,-75,73
183,2156,-3,-422,-4695,23,-173,-76,71
184,2157,-4,-423,-4695,23,-174,-73,72
185,2156,-5,-425,-4696,23,-173,-73,71
186,2156,-4,-427,-4697,23,-176,-74,64
187,2157,-2,-422,-4697,23,-176,-76,69
188,2157,0,-422,-4696,23,-176,-80,69
189,2159,-2,-424,-4699,23,-173,-81,70
190,2157,-1,-430,-4693,23,-172,-78,69
191,2155,-2,-429,-4691,23,-173,-79,68
192,2158,-2,-431,-4692,23,-174,-76,66
193,2157,1,-427,-4688,23,-174,-75,68
194,2159,-2,-425,-4690,23,-172,-77,70
195,2157,5,-427,-4693,23,-177,-76,71
196,2160,2,-424,-4693,23,-177,-77,71
197,2156,2,-423,-4688,23,-171,-79,67
198,2155,1,-422,-4697,23,-175,-75,70
199,2158,0,-424,-4701,23,-175,-74,68
200,2160,6,-425,-4696,23,-172,-77,67
201,2159,4,-426,-4690,23,-172,-74,67
202,2163,6,-429,-4695,23,-174,-73,70
203,2157,1,-433,-4694,23,-171,-77,68
204,2154,2,-432,-4694,23,-174,-79,69
205,2157,0,-426,-4689,23,-176,-80,66
206,2159,1,-431,-4698,23,-177,-80,69
207,2158,-1,-429,-4691,23,-174,-80,70
208,2158,0,-430,-4693,23,-172,-75,69
209,2161,2,-429,-4697,23,-175,-75,68
210,2159,5,-433,-4693,23,-173,-75,69
211,2160,6,-432,-4695,23,-172,-75,67
212,2160,2,-432,-4700,23,-173,-73,70
213,2157,0,-434,-4698,23,-175,-72,73
214,2161,1,-434,-4700,23,-175,-70,69
215,2161,2,-429,-4694,23,-172,-72,69
216,2156,0,-431,-4697,23,-176,-72,71
217,2157,-1,-431,-4692,23,-169,-72,72
218,2159,2,-427,-4690,23,-169,-74,72
219,2157,0,-423,-4689,23,-169,-72,73
220,2161,-2,-427,-4690,23,-172,-76,70
221,2158,0,-427,-4688,23,-175,-76,72
222,2162,2,-426,-4694,23,-174,-75,72
223,2161,-1,-429,-4695,23,-171,-74,70
224,2158,0,-430,-4699,23,-174,-78,68
225,2156,4,-428,-4694,23,-173,-75,70
226,2157,1,-427,-4693,23,-172,-73,67
227,2161,3,-427,-4694,23,-171,-76,70
228,2158,4,-427,-4690,23,-170,-74,70
229,2161,-1,-428,-4692,23,-174,-73,69
230,2161,-2,-429,-4691,23,-173,-76,69
231,2160,0,-428,-4693,23,-173,-77,71
232,2160,0,-423,-4691,23,-172,-78,68
233,2156,0,-425,-4690,23,-175,-79,69
234,2161,-4,-427,-4693,23,-174,-76,68
235,2155,-5,-429,-4693,23,-177,-74,69
236,2158,-1,-425,-4687,23,-176,-76,70
237,2157,0,-426,-4686,23,-174,-78,67
238,2157,0,-426,-4686,23,-175,-76,69
239,2158,0,-427,-4690,23,-172,-75,69
240,2161,-1,-426,-4691,23,-172,-79,66
241,2157,0,-428,-4691,23,-171,-80,65
242,2156,0,-429,-4693,23,-172,-74,63
243,2159,0,-430,-4687,23,-174,-73,64
244,2158,3,-432,-4689,23,-176,-80,67
245,2160,-1,-429,-4689,23,-175,-78,69
246,2158,-2,-429,-4693,23,-173,-74,70
247,2157,2,-428,-4694,23,-172,-76,73
248,2157,3,-431,-4691,23,-174,-76,73
249,2154,-1,-431,-4695,23,-172,-76,68
250,2152,0,-427,-4696,23,-172,-75,67
251,2155,1,-430,-4692,23,-171,-75,66
252,2157,-1,-428,-4695,23,-172,-72,68
253,2160,-1,-425,-4695,23,-172,-71,69
254,2158,0,-429,-4694,23,-177,-74,67
255,2159,-1,-428,-4692,23,-175,-70,71
256,2160,1,-427,-4693,23,-171,-73,70
257,2161,-4,-425,-4698,23,-171,-73,69
258,2158,-3,-425,-4693,23,-175,-76,67
259,2159,2,-420,-4692,23,-172,-76,73
260,2152,1,-420,-4696,23,-172,-74,71
261,2160,3,-422,-4697,23,-174,-77,72
262,2155,-1,-429,-4700,23,-172,-76,72
263,2161,-2,-426,-4689,23,-173,-78,70
264,2161,-3,-427,-4693,23,-171,-74,70
265,2159,-2,-426,-4691,23,-174,-73,69
266,2160,2,-431,-4698,23,-171,-71,70
267,2160,0,-428,-4695,23,-173,-76,71
268,2159,-5,-419,-4692,23,-170,-77,69
269,2159,-1,-426,-4690,23,-176,-78,71
270,2156,0,-430,-4693,23,-177,-77,67
271,2157,0,-426,-4691,23,-176,-76,67
272,2158,0,-420,-4694,23,-174,-77,68
273,2161,1,-426,-4696,23,-175,-78,67
274,2158,-1,-426,-4694,23,-173,-76,65
275,2153,1,-427,-4690,23,-173,-75,68
276,2161,0,-427,-4694,23,-172,-79,67
277,2160,1,-427,-4689,23,-176,-78,68
278,2159,0,-425,-4685,23,-176,-78,71
279,2164,4,-426,-4692,23,-175,-77,68
280,2158,1,-431,-4694,23,-175,-76,69
281,2158,1,-425,-4688,23,-176,-76,71
282,2156,2,-423,-4695,23,-179,-76,70
283,2158,0,-432,-4694,23,-176,-75,70
284,2158,-2,-430,-4694,23,-175,-76,68
285,2159,-1,-433,-4690,23,-174,-78,70
286,2157,2,-435,-4697,23,-173,-76,71
287,2158,1,-429,-4695,23,-173,-77,69
288,2162,5,-430,-4696,23,-172,-74,71
289,2162,3,-430,-4694,23,-176,-77,72
290,2161,2,-428,-4692,23,-179,-77,71
291,2160,0,-423,-4694,23,-177,-75,67
292,2159,2,-427,-4689,23,-175,-74,71
293,2158,-1,-424,-4699,23,-175,-76,71
294,2157,4,-432,-4701,23,-175,-77,70
295,2154,2,-429,-4699,23,-173,-74,68
296,2158,-1,-429,-4697,23,-174,-74,72
297,2156,-3,-430,-4700,23,-173,-73,71
298,2159,1,-434,-4698,23,-174,-73,69
299,2159,0,-424,-4694,23,-174,-72,70
300,2160,1,-426,-4694,23,-177,-75,72
301,2161,0,-429,-4691,23,-177,-72,69
302,2160,-1,-422,-4692,23,-174,-71,75
303,2159,0,-422,-4698,23,-174,-73,73
304,2158,-1,-427,-4688,23,-173,-73,71
305,2159,0,-431,-4689,23,-172,-76,74
306,2160,2,-435,-4690,23,-173,-74,71
307,2159,1,-434,-4694,23,-176,-75,72
308,2160,1,-427,-4697,23,-172,-75,71
309,2158,1,-427,-4699,23,-174,-78,73
310,2157,1,-429,-4699,23,-174,-76,68
311,2160,1,-425,-4699,23,-172,-70,70
312,2158,1,-424,-4696,23,-172,-72,71
313,2161,1,-430,-4691,23,-172,-75,68
314,2159,0,-426,-4696,23,-170,-77,68
315,2165,-2,-426,-4699,23,-174,-78,68
316,2160,2,-429,-4696,23,-176,-76,66
317,2156,2,-427,-4693,23,-174,-81,68
318,2157,2,-422,-4687,23,-176,-78,68
319,2161,0,-427,-4691,23,-174,-78,72
320,2160,-1,-427,-4694,23,-174,-82,69
321,2159,0,-428,-4689,23,-174,-80,67
322,2159,2,-426,-4692,23,-175,-81,65
323,2159,3,-425,-4692,23,-177,-78,66
324,2160,-1,-423,-4690,23,-178,-77,69
325,2159,1,-428,-4690,23,-176,-79,69
326,2158,1,-425,-4696,23,-175,-76,67
327,2156,0,-424,-4695,23,-173,-81,68
328,2160,-1,-426,-4697,23,-172,-80,68
329,2160,-1,-431,-4695,23,-175,-75,70
330,2161,-4,-427,-4696,23,-176,-77,68
331,2161,-5,-431,-4695,23,-174,-78,70
332,2157,-1,-434,-4689,23,-176,-79,71
333,2160,1,-428,-4687,23,-175,-76,69
334,2160,-1,-423,-4686,23,-174,-78,70
335,2158,-2,-429,-4685,23,-174,-77,69
336,2158,-4,-426,-4692,23,-175,-75,68
337,2157,-3,-431,-4693,23,-172,-73,69
338,2160,-1,-428,-4697,23,-173,-74,72
339,2154,0,-434,-4693,23,-172,-72,71
340,2154,0,-430,-4695,23,-174,-73,71
341,2158,-1,-429,-4693,23,-172,-78,72
342,2153,-2,-427,-4692,23,-171,-75,71
343,2157,1,-429,-4689,23,-172,-72,72
344,2162,-2,-428,-4692,23,-176,-77,74
345,2163,-1,-431,-4689,23,-175,-71,70
346,2157,-2,-434,-4696,23,-174,-75,69
347,2157,1,-435,-4691,23,-173,-74,70
348,2156,3,-433,-4689,23,-171,-71,72
349,2157,4,-434,-4688,23,-169,-74,69
350,2159,-2,-424,-4686,23,-167,-76,69
351,2160,-3,-420,-4693,23,-171,-72,70
352,2157,3,-429,-4691,23,-174,-72,69
353,2159,5,-426,-4688,23,-169,-73,72
354,2158,1,-429,-4691,23,-173,-77,69
355,2158,0,-427,-4688,23,-177,-77,69
356,2157,-4,-424,-4686,23,-173,-76,67
357,2158,1,-425,-4684,23,-171,-75,70
358,2157,0,-426,-4684,23,-174,-78,66
359,2156,3,-428,-4684,23,-172,-74,68
360,2160,0,-429,-4685,23,-168,-73,68
361,2162,1,-425,-4690,23,-171,-75,68
362,2159,3,-427,-4689,23,-170,-76,71
363,2156,1,-422,-4685,23,-175,-74,69
364,2158,2,-428,-4689,23,-175,-76,68
365,2161,0,-426,-4685,23,-173,-75,71
366,2156,1,-424,-4688,23,-177,-80,67
367,2158,1,-428,-4689,23,-173,-76,66
368,2158,1,-425,-4689,23,-171,-76,66
369,2159,4,-428,-4695,23,-172,-74,67
370,2156,0,-427,-4690,23,-174,-75,69
371,2154,7,-422,-4694,23,-174,-75,70
372,2160,4,-427,-4695,23,-171,-78,68
373,2157,1,-427,-4692,23,-170,-79,68
374,2157,2,-425,-4688,23,-173,-77,73
375,2158,2,-430,-4695,23,-171,-76,72
376,2161,2,-426,-4695,23,-171,-73,70
377,2160,1,-427,-4690,23,-171,-75,69
378,2164,2,-430,-4690,23,-175,-77,72
379,2161,2,-429,-4690,23,-174,-74,69
380,2161,1,-428,-4690,23,-172,-72,68
381,2161,1,-429,-4689,23,-174,-75,69
382,2160,-1,-426,-4693,23,-175,-79,69
383,2159,-1,-426,-4693,23,-174,-79,70
384,2156,0,-434,-4694,23,-174,-77,70
385,2157,-1,-433,-4690,23,-175,-75,71
386,2157,-1,-430,-4695,23,-176,-79,67
387,2157,-1,-425,-4695,23,-174,-78,68
388,2157,2,-425,-4689,23,-172,-77,68
389,2159,0,-424,-4685,23,-172,-76,68
390,2160,3,-424,-4687,23,-173,-72,68
391,2161,0,-430,-4686,23,-174,-74,69
392,2163,1,-425,-4690,23,-174,-70,67
393,2161,2,-423,-4693,23,-173,-74,69
394,2160,4,-427,-4695,23,-175,-75,69
395,2158,-1,-425,-4690,23,-177,-77,68
396,2158,1,-421,-4692,23,-176,-77,64
397,2158,3,-431,-4691,23,-179,-75,69
398,2158,4,-430,-4694,23,-175,-74,70
399,2158,3,-429,-4687,23,-174,-76,68
400,2159,1,-426,-4692,23,-172,-75,69
401,2157,2,-427,-4683,23,-174,-76,66
402,2160,1,-428,-4693,23,-173,-77,69
403,2161,1,-421,-4692,23,-176,-77,68
404,2159,-3,-422,-4692,23,-172,-77,69
405,2163,0,-425,-4693,23,-174,-75,72
406,2161,1,-426,-4696,23,-173,-76,73
407,2160,-1,-428,-4700,23,-174,-77,68
408,2159,-3,-426,-4695,23,-176,-76,69
409,2156,-1,-428,-4694,23,-174,-76,65
410,2156,0,-424,-4695,23,-174,-76,70
411,2159,-2,-426,-4693,23,-173,-75,68
412,2161,-1,-427,-4688,23,-174,-74,70
413,2157,-1,-423,-4690,23,-175,-77,70
414,2158,-2,-424,-4687,23,-174,-79,72
415,2162,-1,-427,-4693,23,-173,-76,72
416,2159,2,-433,-4693,23,-173,-75,72
417,2158,4,-431,-4690,23,-173,-76,73
418,2159,-1,-428,-4690,23,-172,-76,70
419,2157,-2,-425,-4688,23,-171,-74,68
420,2158,-5,-422,-4693,23,-171,-75,69
421,2152,-1,-430,-4689,23,-169,-74,68
422,2160,1,-434,-4686,23,-173,-76,69
423,2158,2,-433,-4691,23,-173,-76,71
424,2160,2,-430,-4687,23,-173,-77,68
425,2161,0,-431,-4690,23,-178,-75,70
426,2161,2,-428,-4691,23,-179,-76,69
427,2158,-3,-424,-4696,23,-173,-73,75
428,2160,-2,-427,-4688,23,-172,-77,74
429,2161,1,-423,-4689,23,-172,-76,71
430,2159,-1,-424,-4686,23,-176,-75,74
431,2159,2,-426,-4686,23,-173,-75,70
432,2160,0,-427,-4686,23,-172,-76,68
433,2154,4,-428,-4692,23,-172,-78,70
434,2161,-1,-422,-4691,23,-167,-77,72
435,2156,0,-425,-4690,23,-172,-76,71
436,2157,-1,-425,-4688,23,-173,-76,72
437,2156,2,-419,-4693,23,-173,-74,69
438,2155,1,-431,-4690,23,-175,-73,73
439,2160,-3,-427,-4692,23,-173,-73,72
440,2159,-5,-424,-4694,23,-173,-76,70
441,2158,-1,-426,-4692,23,-173,-78,70
442,2156,-1,-425,-4690,23,-173,-79,71
443,2159,1,-433,-4696,23,-172,-82,70
444,2159,0,-432,-4695,23,-175,-80,70
445,2159,3,-433,-4695,23,-174,-79,67
446,2160,4,-436,-4697,23,-174,-78,68
447,2160,5,-428,-4691,23,-173,-80,66
448,2159,-1,-428,-4692,23,-174,-76,70
449,2160,-1,-428,-4692,23,-172,-74,70
450,2156,0,-428,-4695,23,-175,-78,69
451,2156,1,-423,-4692,23,-170,-79,69
452,2154,2,-422,-4694,23,-172,-81,68
453,2159,0,-428,-4696,23,-173,-77,68
454,2158,4,-429,-4692,23,-175,-74,70
455,2161,1,-433,-4697,23,-175,-73,73
456,2157,0,-431,-4690,23,-176,-75,74
457,2162,-1,-431,-4690,23,-175,-74,70
458,2160,1,-425,-4688,23,-173,-73,67
459,2161,-1,-425,-4684,23,-170,-76,69
460,2160,0,-428,-4687,23,-173,-78,70
461,2159,1,-426,-4690,23,-170,-78,69
462,2157,2,-427,-4683,23,-173,-78,68
463,2158,2,-430,-4683,23,-173,-80,66
464,2158,1,-433,-4685,23,-175,-77,71
465,2160,-1,-428,-4689,23,-175,-77,73
466,2159,1,-431,-4690,23,-176,-74,71
467,2157,-2,-428,-4690,23,-178,-78,70
468,2157,-1,-425,-4689,23,-173,-80,68
469,2155,0,-423,-4689,23,-173,-78,72
470,2157,1,-426,-4690,23,-173,-77,69
471,2159,3,-435,-4687,23,-172,-78,72
472,2160,2,-425,-4682,23,-173,-77,72
473,2154,-2,-425,-4685,23,-174,-76,70
474,2157,3,-421,-4691,23,-174,-74,70
475,2157,2,-425,-4690,23,-175,-75,69
476,2161,5,-422,-4689,23,-173,-77,66
477,2158,-1,-426,-4689,23,-170,-74,70
478,2156,-2,-424,-4691,23,-169,-76,70
479,2161,-6,-427,-4689,23,-170,-75,70
480,2163,-4,-422,-4688,23,-171,-76,73
481,2162,1,-420,-4684,23,-175,-74,72
482,2159,-2,-424,-4684,23,-174,-77,72
483,2158,0,-425,-4689,23,-174,-76,71
484,2158,3,-417,-4686,23,-176,-77,71
485,2160,2,-422,-4685,23,-176,-76,70
486,2158,4,-422,-4683,23,-173,-74,70
487,2159,3,-427,-4690,23,-174,-77,70
488,2162,4,-430,-4691,23,-172,-76,70
489,2161,3,-425,-4691,23,-171,-81,68
490,2160,3,-429,-4692,23,-172,-82,68
491,2160,2,-422,-4691,23,-175,-79,70
492,2157,5,-422,-4686,23,-176,-75,68
493,2155,7,-427,-4685,23,-175,-77,67
494,2158,0,-427,-4689,23,-173,-77,67
495,2158,2,-432,-4690,23,-171,-74,64
496,2159,1,-428,-4694,23,-174,-77,68
497,2160,1,-427,-4685,23,-172,-77,70
498,2158,-1,-430,-4690,23,-175,-75,68
499,2157,1,-426,-4690,23,-174,-76,69
500,2161,-2,-429,-4689,23,-172,-78,67
501,2160,2,-430,-4688,23,-172,-77,70
502,2159,2,-430,-4689,23,-172,-78,68
503,2162,2,-429,-4697,23,-173,-73,67
504,2159,-2,-427,-4692,23,-175,-73,71
505,2163,4,-424,-4694,23,-175,-75,70
506,2161,0,-426,-4691,23,-177,-76,68
507,2160,4,-422,-4688,23,-175,-74,71
508,2157,2,-422,-4686,23,-176,-74,69
509,2156,1,-423,-4685,23,-174,-76,71
510,2154,0,-426,-4692,23,-173,-77,68
511,2156,0,-428,-4689,23,-178,-74,70
512,2160,-1,-433,-4688,23,-172,-79,70
513,2159,-1,-425,-4695,23,-176,-76,69
514,2158,-1,-422,-4690,23,-174,-72,69
515,2159,1,-421,-4690,23,-174,-74,73
516,2157,5,-422,-4698,23,-174,-77,73
517,2161,-1,-421,-4690,23,-172,-76,71
518,2159,0,-430,-4686,23,-168,-75,69
519,2158,4,-429,-4691,23,-171,-75,71
520,2158,0,-428,-4689,23,-172,-75,68
521,2158,-1,-427,-4686,23,-172,-76,69
522,2155,3,-426,-4684,23,-169,-74,70
523,2158,3,-429,-4684,23,-174,-73,66
524,2159,1,-427,-4694,23,-173,-78,66
525,2160,-1,-423,-4693,23,-170,-79,68
526,2158,2,-434,-4688,23,-174,-75,67
527,2160,1,-436,-4685,23,-176,-75,67
528,2158,0,-428,-4683,23,-174,-77,65
529,2156,0,-427,-4687,23,-174,-75,68
530,2158,1,-423,-4692,23,-175,-75,68
531,2160,0,-426,-4692,23,-175,-76,68
532,2163,1,-428,-4693,23,-173,-79,71
533,2163,-2,-423,-4693,23,-177,-78,70
534,2160,1,-420,-4692,23,-173,-77,75
535,2162,2,-422,-4688,23,-172,-80,72
536,2158,1,-429,-4686,23,-170,-79,70
537,2159,-1,-426,-4690,23,-174,-78,70
538,2158,3,-428,-4690,23,-172,-77,69
539,2159,1,-426,-4687,23,-174,-79,70
540,2156,3,-427,-4686,23,-174,-81,71
541,2155,-1,-428,-4691,23,-169,-78,71
542,2161,1,-427,-4686,23,-171,-74,69
543,2160,0,-431,-4690,23,-172,-74,68
544,2160,-1,-428,-4690,23,-169,-75,70
545,2159,-2,-432,-4685,23,-172,-76,68
546,2159,5,-429,-4686,23,-172,-79,69
547,2157,3,-431,-4690,23,-171,-77,69
548,2157,2,-429,-4690,23,-172,-75,70
549,2158,1,-432,-4691,23,-169,-78,71
550,2157,0,-438,-4694,23,-169,-77,69
551,2158,-2,-429,-4695,23,-169,-77,71
552,2159,-1,-427,-4689,23,-168,-76,68
553,2162,4,-422,-4688,23,-170,-72,70
554,2159,2,-430,-4691,23,-170,-71,68
555,2159,3,-430,-4693,23,-172,-75,68
556,2157,3,-438,-4692,23,-176,-76,71
557,2160,-1,-433,-4690,23,-175,-80,70
558,2158,3,-428,-4689,23,-175,-80,69
559,2160,-1,-427,-4686,23,-171,-74,69
560,2158,-1,-428,-4691,23,-173,-71,70
561,2159,0,-427,-4689,23,-173,-74,70
562,2159,0,-429,-4689,23,-173,-76,68
563,2157,-4,-428,-4687,23,-173,-73,71
564,2159,3,-421,-4692,23,-174,-78,69
565,2157,4,-420,-4692,23,-173,-78,70
566,2157,-1,-424,-4690,23,-174,-76,70
567,2157,3,-420,-4685,23,-174,-73,72
568,2158,0,-425,-4685,23,-173,-76,69
569,2161,-3,-424,-4686,23,-174,-76,70
570,2157,1,-431,-4689,23,-170,-78,68
571,2157,1,-429,-4690,23,-173,-78,70
572,2157,-1,-422,-4691,23,-171,-79,70
573,2157,2,-423,-4697,23,-171,-76,70
574,2155,-2,-422,-4697,23,-175,-74,70
575,2159,0,-426,-4694,23,-175,-76,72
576,2162,0,-427,-4684,23,-174,-76,70
577,2159,2,-424,-4687,23,-173,-77,71
578,2160,0,-421,-4687,23,-176,-79,71
579,2158,-3,-425,-4686,23,-178,-78,68
580,2156,-1,-428,-4689,23,-171,-78,67
581,2159,3,-430,-4688,23,-172,-78,67
582,2158,-1,-426,-4695,23,-175,-77,68
583,2155,2,-420,-4695,23,-175,-75,70
584,2161,-3,-422,-4697,23,-173,-74,72
585,2157,-4,-426,-4693,23,-173,-74,69
586,2159,-1,-428,-4688,23,-176,-75,72
587,2159,2,-431,-4687,23,-176,-74,72
588,2156,1,-432,-4686,23,-176,-80,70
589,2154,-3,-430,-4690,23,-174,-77,70
590,2161,3,-432,-4687,23,-174,-77,70
591,2157,3,-430,-4683,23,-171,-72,69
592,2158,2,-426,-4688,23,-171,-75,67
593,2159,2,-432,-4685,23,-172,-75,66
594,2160,1,-428,-4685,23,-169,-74,67
595,2159,0,-427,-4690,23,-173,-75,71
596,2160,2,-425,-4689,23,-172,-78,69
597,2159,3,-425,-4690,23,-170,-72,72
598,2159,0,-430,-4690,23,-172,-75,68
599,2158,1,-431,-4687,23,-173,-75,69
600,2157,-1,-426,-4684,23,-173,-75,68
601,2157,-1,-432,-4687,23,-171,-73,70
602,2158,2,-430,-4688,23,-172,-76,72
603,2157,3,-434,-4686,23,-173,-76,71
604,2156,-1,-432,-4687,23,-174,-77,71
605,2157,0,-431,-4685,23,-172,-78,73
606,2156,3,-432,-4690,23,-173,-75,67
607,2154,3,-438,-4684,23,-174,-76,69
608,2154,1,-425,-4683,23,-175,-76,71
609,2158,2,-432,-4681,23,-174,-75,71
610,2155,4,-429,-4684,23,-175,-74,72
611,2159,4,-422,-4689,23,-173,-76,69
612,2162,1,-426,-4686,23,-175,-76,70
613,2163,-1,-422,-4686,23,-175,-75,72
614,2163,-3,-426,-4684,23,-172,-75,71
615,2159,-4,-422,-4687,23,-174,-77,72
616,2159,0,-426,-4685,23,-173,-75,73
617,2157,4,-432,-4682,23,-175,-75,72
618,2158,3,-427,-4687,23,-176,-71,69
619,2160,1,-427,-4688,23,-175,-75,67
620,2159,0,-430,-4682,23,-169,-76,69
621,2160,-1,-430,-4686,23,-172,-76,69
622,2161,2,-424,-4690,23,-173,-77,69
623,2161,4,-427,-4693,23,-174,-77,69
624,2162,4,-432,-4694,23,-172,-76,71
625,2159,1,-432,-4696,23,-176,-79,73
626,2160,3,-427,-4693,23,-170,-76,68
627,2157,1,-423,-4684,23,-171,-78,66
628,2161,0,-425,-4689,23,-169,-76,67
629,2162,6,-427,-4689,23,-171,-76,71
630,2157,-3,-422,-4686,23,-174,-73,69
631,2160,-5,-427,-4686,23,-175,-76,70
632,2161,-5,-427,-4691,23,-177,-78,71
633,2160,-2,-425,-4690,23,-175,-76,69
634,2162,-1,-427,-4689,23,-176,-75,72
635,2162,1,-429,-4685,23,-173,-74,68
636,2161,-1,-424,-4685,23,-173,-73,71
637,2162,1,-425,-4684,23,-174,-72,71
638,2160,-2,-432,-4686,23,-172,-73,71
639,2158,1,-430,-4686,23,-174,-73,67
640,2158,0,-429,-4686,23,-175,-72,69
641,2162,2,-427,-4688,23,-176,-75,68
642,2159,0,-435,-4686,23,-175,-74,66
643,2158,2,-434,-4685,23,-174,-75,70
644,2163,5,-429,-4688,23,-173,-76,66
645,2159,1,-430,-4689,23,-172,-71,68
646,2157,1,-430,-4693,23,-175,-77,71
647,2160,4,-431,-4690,23,-176,-78,72
648,2161,3,-431,-4689,23,-173,-76,71
649,2160,1,-431,-4688,23,-173,-75,68
650,2159,0,-424,-4688,23,-176,-74,67
651,2158,0,-417,-4688,23,-175,-81,70
652,2159,3,-429,-4687,23,-171,-76,70
653,2157,0,-433,-4686,23,-172,-78,71
654,2156,2,-430,-4690,23,-176,-73,71
655,2157,2,-426,-4690,23,-176,-75,71
656,2157,-1,-428,-4690,23,-173,-75,73
657,2153,4,-428,-4690,23,-172,-79,72
658,2156,3,-427,-4685,23,-174,-76,69
659,2155,3,-422,-4688,23,-171,-75,66
660,2160,1,-428,-4684,23,-170,-77,66
661,2161,2,-430,-4689,23,-171,-77,69
662,2157,3,-426,-4695,23,-173,-76,69
663,2157,1,-425,-4689,23,-174,-78,72
664,2159,2,-423,-4683,23,-173,-76,68
665,2159,1,-422,-4687,23,-175,-77,67
666,2156,-1,-420,-4691,23,-173,-77,72
667,2158,-1,-427,-4689,23,-172,-78,71
668,2158,-4,-430,-4686,23,-175,-78,72
669,2158,-3,-433,-4687,23,-176,-78,69
670,2158,1,-431,-4689,23,-173,-77,71
671,2159,0,-424,-4683,23,-173,-77,69
672,2158,-1,-426,-4678,23,-174,-74,67
673,2158,-1,-427,-4690,23,-170,-75,64
674,2159,-3,-427,-4686,23,-174,-77,65
675,2157,-2,-429,-4683,23,-177,-78,68
676,2159,-2,-433,-4688,23,-175,-77,69
677,2158,-1,-429,-4686,23,-172,-74,71
678,2157,1,-430,-4686,23,-171,-77,70
679,2155,-2,-431,-4692,23,-169,-74,70
680,2160,-1,-426,-4691,23,-171,-74,69
681,2159,-4,-425,-4689,23,-169,-74,70
682,2161,1,-422,-4686,23,-173,-77,70
683,2158,-2,-424,-4687,23,-175,-73,69
684,2159,1,-424,-4690,23,-173,-78,71
685,2165,2,-427,-4685,23,-176,-78,69
686,2163,2,-425,-4684,23,-178,-78,69
687,2161,3,-431,-4682,23,-173,-77,69
688,2159,2,-430,-4692,23,-175,-77,67
689,2158,2,-425,-4688,23,-173,-74,70
690,2159,1,-426,-4684,23,-174,-77,67
691,2158,0,-428,-4687,23,-170,-75,70
692,2159,2,-423,-4688,23,-174,-77,69
693,2156,3,-424,-4693,23,-173,-75,67
694,2158,-2,-431,-4688,23,-173,-75,69
695,2156,-3,-432,-4684,23,-172,-76,72
696,2157,-1,-428,-4686,23,-174,-78,67
697,2158,-3,-423,-4682,23,-175,-76,68
698,2156,-2,-426,-4685,23,-174,-75,67
699,2160,3,-425,-4688,23,-176,-74,66
700,2160,3,-426,-4687,23,-176,-77,69
701,2160,4,-423,-4687,23,-175,-75,72
702,2160,0,-427,-4690,23,-172,-78,71
703,2159,0,-428,-4692,23,-173,-77,68
704,2159,3,-423,-4690,23,-172,-74,68
705,2156,3,-427,-4689,23,-172,-76,67
706,2153,1,-432,-4692,23,-169,-74,69
707,2158,1,-430,-4687,23,-171,-74,70
708,2159,0,-427,-4688,23,-174,-76,72
709,2162,2,-430,-4694,23,-170,-78,74
710,2157,2,-432,-4697,23,-172,-80,72
711,2155,3,-431,-4690,23,-173,-78,69
712,2154,0,-423,-4690,23,-174,-76,70
713,2161,1,-427,-4692,23,-173,-76,69
714,2163,-1,-428,-4695,23,-173,-77,69
715,2157,-2,-429,-4689,23,-173,-77,76
716,2156,-3,-426,-4691,23,-173,-78,73
717,2158,2,-428,-4693,23,-174,-76,72
718,2162,2,-428,-4691,23,-175,-71,72
719,2160,2,-430,-4683,23,-176,-72,67
720,2161,0,-431,-4691,23,-174,-71,70
721,2158,-1,-427,-4693,23,-172,-71,69
722,2159,-1,-424,-4693,23,-174,-74,67
723,2158,2,-423,-4689,23,-177,-73,69
724,2156,3,-428,-4687,23,-173,-77,70
725,2155,1,-428,-4686,23,-172,-76,70
726,2156,1,-428,-4691,23,-172,-77,69
727,2157,2,-429,-4689,23,-175,-77,65
728,2158,4,-422,-4689,23,-175,-77,67
729,2160,2,-425,-4689,23,-173,-73,70
730,2154,2,-429,-4693,23,-171,-74,69
731,2157,2,-430,-4694,23,-173,-76,68
732,2161,4,-429,-4692,23,-169,-72,69
733,2162,0,-430,-4694,23,-170,-77,68
734,2161,3,-425,-4694,23,-173,-77,68
735,2162,4,-431,-4690,23,-176,-73,71
736,2161,4,-422,-4687,23,-176,-72,73
737,2159,1,-425,-4692,23,-173,-70,69
738,2158,3,-424,-4692,23,-171,-72,66
739,2159,5,-417,-4689,23,-171,-75,67
740,2159,-3,-423,-4691,23,-172,-77,67
741,2159,-3,-428,-4696,23,-173,-77,69
742,2158,-1,-428,-4689,23,-174,-74,69
743,2158,-3,-426,-4688,23,-173,-75,71
744,2159,-1,-428,-4686,23,-171,-77,72
745,2160,2,-426,-4688,23,-173,-75,74
746,2162,-1,-428,-4690,23,-174,-73,72
747,2162,2,-431,-4690,23,-171,-76,71
748,2158,-2,-425,-4687,23,-174,-73,69
749,2158,-3,-428,-4694,23,-173,-78,70
750,2155,-2,-421,-4692,23,-170,-77,66
751,2158,2,-429,-4693,23,-175,-80,68
752,2160,0,-430,-4691,23,-178,-76,68
753,2158,1,-429,-4691,23,-176,-75,71
754,2156,1,-430,-4693,23,-174,-72,71
755,2161,1,-424,-4693,23,-171,-73,68
756,2163,2,-423,-4685,23,-172,-73,67
757,2161,2,-428,-4689,23,-174,-78,70
758,2162,2,-429,-4692,23,-172,-77,71
759,2161,-4,-428,-4695,23,-169,-74,68
760,2160,-4,-430,-4692,23,-172,-75,71
761,2157,2,-429,-4693,23,-175,-75,71
762,2164,0,-430,-4685,23,-173,-77,73
763,2159,3,-432,-4686,23,-174,-78,72
764,2160,-2,-428,-4680,23,-175,-76,68
765,2161,-1,-426,-4688,23,-173,-76,68
766,2160,-1,-430,-4681,23,-173,-77,70
767,2161,0,-430,-4683,23,-171,-73,69
768,2161,1,-423,-4693,23,-170,-73,68
769,2164,2,-426,-4686,23,-173,-76,69
770,2162,1,-424,-4682,23,-172,-75,69
771,2161,1,-427,-4687,23,-171,-77,70
772,2161,-1,-430,-4690,23,-171,-79,70
773,2158,0,-426,-4686,23,-168,-78,74
774,2158,1,-428,-4691,23,-170,-75,69
775,2161,-1,-431,-4693,23,-172,-79,67
776,2159,1,-425,-4687,23,-174,-75,71
777,2161,3,-434,-4693,23,-172,-72,69
778,2158,1,-435,-4690,23,-176,-73,70
779,2157,-2,-435,-4696,23,-176,-77,70
780,2156,0,-433,-4690,23,-175,-79,72
781,2157,1,-433,-4686,23,-177,-76,72
782,2160,4,-430,-4685,23,-176,-74,70
783,2156,2,-424,-4690,23,-175,-74,69
784,2155,-1,-426,-4686,23,-175,-75,71
785,2155,-2,-427,-4688,23,-174,-75,70
786,2155,0,-429,-4691,23,-174,-75,70
787,2151,-1,-429,-4685,23,-176,-75,70
788,2153,-2,-425,-4690,23,-174,-75,68
789,2156,0,-432,-4687,23,-173,-73,68
790,2157,-1,-426,-4688,23,-173,-72,69
791,2156,-1,-431,-4689,23,-177,-75,71
792,2158,-3,-427,-4691,23,-175,-79,72
793,2162,-3,-424,-4692,23,-173,-78,70
794,2161,2,-428,-4691,23,-176,-77,71
795,2160,1,-429,-4687,23,-172,-76,67
796,2157,-1,-432,-4685,23,-172,-77,70
797,2160,1,-433,-4680,23,-171,-76,69
798,2157,2,-431,-4685,23,-172,-75,73
799,2158,-3,-428,-4687,23,-172,-76,66
800,2161,0,-427,-4687,23,-175,-78,65
801,2157,1,-433,-4689,23,-173,-76,68
802,2155,2,-424,-4692,23,-171,-79,67
803,2155,3,-430,-4694,23,-170,-76,69
804,2159,-1,-428,-4689,23,-172,-76,70
805,2158,3,-429,-4690,23,-171,-73,69
806,2158,2,-427,-4688,23,-171,-76,70
807,2163,0,-421,-4686,23,-174,-77,69
808,2159,1,-423,-4681,23,-172,-74,72
809,2154,-2,-424,-4684,23,-176,-72,70
810,2154,4,-424,-4687,23,-173,-72,66
811,2158,1,-421,-4686,23,-175,-75,69
812,2156,1,-424,-4691,23,-175,-77,72
813,2157,1,-425,-4692,23,-171,-75,71
814,2155,-1,-433,-4689,23,-173,-74,71
815,2160,-1,-427,-4685,23,-172,-77,68
816,2161,2,-423,-4688,23,-173,-76,68
817,2161,2,-431,-4684,23,-171,-77,68
818,2158,1,-429,-4682,23,-172,-77,68
819,2162,-1,-432,-4690,23,-173,-78,70
820,2158,1,-429,-4682,23,-174,-77,67
821,2157,-1,-428,-4687,23,-173,-80,71
822,2159,-1,-423,-4687,23,-172,-77,70
823,2158,-2,-429,-4685,23,-174,-74,72
824,2162,0,-430,-4684,23,-173,-73,70
825,2160,-3,-426,-4689,23,-173,-71,69
826,2154,-1,-429,-4681,23,-172,-75,68
827,2159,0,-432,-4682,23,-173,-77,73
828,2160,-2,-423,-4685,23,-171,-78,70
829,2158,2,-427,-4692,23,-174,-77,68
830,2159,2,-425,-4690,23,-169,-78,69
831,2161,2,-431,-4690,23,-176,-75,66
832,2160,5,-432,-4687,23,-176,-73,70
833,2160,5,-424,-4683,23,-175,-73,69
834,2159,1,-426,-4687,23,-174,-76,70
835,2156,-5,-430,-4689,23,-172,-78,73
836,2153,-1,-427,-4688,23,-175,-78,73
837,2157,2,-429,-4688,23,-172,-76,69
838,2157,2,-428,-4686,23,-175,-74,67
839,2161,1,-433,-4684,23,-176,-74,69
840,2160,-3,-433,-4685,23,-178,-79,69
841,2161,0,-429,-4684,23,-176,-79,67
842,2159,1,-433,-4684,23,-176,-74,69
843,2161,-3,-435,-4684,23,-174,-74,70
844,2160,1,-435,-4684,23,-173,-75,69
845,2160,-1,-426,-4681,23,-172,-73,69
846,2157,0,-436,-4686,23,-175,-77,71
847,2161,3,-430,-4683,23,-174,-76,71
848,2158,-2,-424,-4686,23,-173,-77,72
849,2158,-1,-433,-4686,23,-173,-78,68
850,2159,-3,-427,-4686,23,-175,-74,69
851,2160,-2,-424,-4691,23,-171,-76,68
852,2157,-3,-424,-4685,23,-173,-75,65
853,2160,-2,-430,-4684,23,-175,-79,67
854,2160,-4,-419,-4685,23,-175,-77,70
855,2158,1,-433,-4691,23,-176,-74,67
856,2158,-1,-428,-4688,23,-175,-75,69
857,2157,-1,-423,-4688,23,-171,-75,70
858,2158,-1,-424,-4686,23,-177,-78,69
859,2157,-1,-428,-4685,23,-173,-79,68
860,2159,1,-432,-4689,23,-172,-79,67
861,2160,-1,-430,-4686,23,-171,-72,70
862,2159,0,-429,-4689,23,-172,-73,70
863,2157,-4,-429,-4693,23,-173,-73,70
864,2157,2,-427,-4689,23,-173,-75,70
865,2156,2,-426,-4689,23,-171,-73,69
866,2158,-2,-426,-4689,23,-173,-68,71
867,2159,-3,-427,-4689,23,-174,-75,72
868,2161,5,-429,-4690,23,-173,-76,68
869,2161,4,-429,-4688,23,-174,-73,68
870,2156,0,-429,-4689,23,-175,-77,70
871,2159,0,-428,-4688,23,-171,-78,72
872,2157,-1,-427,-4684,23,-168,-79,70
873,2158,-3,-427,-4680,23,-169,-74,69
874,2157,-2,-430,-4679,23,-170,-75,69
875,2160,1,-427,-4678,23,-171,-74,69
876,2157,2,-425,-4686,23,-175,-76,71
877,2159,1,-430,-4690,23,-174,-75,71
878,2158,0,-430,-4695,23,-172,-77,67
879,2158,3,-431,-4690,23,-172,-72,72
880,2159,0,-423,-4683,23,-173,-72,71
881,2159,1,-422,-4689,23,-174,-75,69
882,2157,1,-424,-4690,23,-174,-77,68
883,2160,4,-429,-4688,23,-172,-76,71
884,2160,1,-429,-4690,23,-174,-75,71
885,2161,2,-429,-4689,23,-176,-79,71
886,2162,-1,-430,-4688,23,-174,-78,72
887,2161,2,-429,-4687,23,-171,-78,69
888,2157,2,-426,-4687,23,-176,-77,69
889,2158,4,-424,-4686,23,-176,-75,67
890,2158,3,-426,-4683,23,-174,-73,68
891,2157,1,-425,-4684,23,-173,-77,72
892,2156,1,-430,-4682,23,-173,-77,69
893,2159,3,-431,-4685,23,-173,-77,71
894,2159,2,-425,-4684,23,-171,-78,70
895,2158,3,-422,-4682,23,-176,-75,70
896,2158,2,-431,-4683,23,-174,-73,73
897,2157,4,-425,-4681,23,-172,-74,71
898,2159,2,-421,-4686,23,-173,-77,68
899,2158,2,-424,-4683,23,-177,-72,72
900,2161,1,-430,-4688,23,-170,-77,72
901,2161,-1,-430,-4685,23,-173,-78,72
902,2160,-2,-425,-4688,23,-176,-77,69
903,2158,0,-426,-4683,23,-175,-80,71
904,2159,1,-427,-4687,23,-175,-78,73
905,2155,1,-426,-4685,23,-172,-76,71
906,2159,3,-432,-4685,23,-173,-75,70
907,2160,-1,-428,-4689,23,-173,-77,67
908,2157,-2,-430,-4679,23,-173,-76,70
909,2159,-1,-428,-4676,23,-172,-74,70
910,2162,2,-428,-4682,23,-173,-77,70
911,2162,2,-425,-4688,23,-172,-76,68
912,2157,-1,-432,-4683,23,-174,-78,69
913,2153,-3,-429,-4684,23,-174,-78,69
914,2156,1,-435,-4686,23,-174,-77,71
915,2158,0,-436,-4682,23,-176,-79,71
916,2156,0,-433,-4682,23,-174,-78,70
917,2157,-1,-431,-4685,23,-174,-75,68
918,2158,0,-428,-4682,23,-175,-74,66
919,2159,-1,-425,-4685,23,-175,-74,67
920,2159,0,-426,-4686,23,-174,-75,70
921,2156,0,-429,-4685,23,-174,-72,68
922,2161,-2,-424,-4683,23,-173,-74,69
923,2166,2,-424,-4684,23,-173,-75,68
924,2162,5,-426,-4681,23,-171,-75,70
925,2159,1,-426,-4683,23,-170,-75,70
926,2157,1,-422,-4680,23,-170,-73,70
927,2159,0,-424,-4684,23,-171,-74,74
928,2158,-3,-421,-4681,23,-173,-75,74
929,2155,-3,-423,-4684,23,-172,-76,71
930,2157,-2,-426,-4686,23,-174,-77,67
931,2159,-5,-427,-4682,23,-171,-79,68
932,2160,-1,-425,-4685,23,-174,-78,66
933,2159,0,-431,-4685,23,-173,-76,68
934,2157,3,-430,-4682,23,-171,-73,66
935,2157,2,-431,-4684,23,-172,-77,68
936,2159,1,-426,-4681,23,-171,-77,67
937,2160,-1,-426,-4675,23,-172,-77,71
938,2157,1,-425,-4681,23,-175,-74,68
939,2156,1,-427,-4680,23,-175,-76,69
940,2158,-1,-431,-4689,23,-174,-71,71
941,2160,0,-429,-4686,23,-174,-76,67
942,2164,3,-424,-4684,23,-175,-79,67
943,2158,4,-429,-4681,23,-173,-78,71
944,2158,5,-432,-4683,23,-176,-76,71
945,2158,1,-426,-4681,23,-173,-74,70
946,2155,0,-421,-4684,23,-172,-75,68
947,2158,3,-420,-4681,23,-176,-76,71
948,2158,2,-425,-4676,23,-176,-76,68
949,2155,1,-425,-4681,23,-175,-78,68
950,2156,1,-427,-4680,23,-175,-77,73
951,2159,0,-428,-4680,23,-175,-79,68
952,2158,1,-429,-4683,23,-174,-77,70
953,2159,2,-431,-4686,23,-175,-76,70
954,2159,-1,-431,-4686,23,-172,-75,68
955,2158,0,-429,-4684,23,-173,-77,69
956,2160,0,-426,-4684,23,-175,-80,70
957,2158,2,-423,-4680,23,-173,-77,71
958,2157,-2,-428,-4680,23,-174,-78,71
959,2165,0,-427,-4678,23,-175,-76,70
960,2160,2,-427,-4679,23,-174,-78,69
961,2160,0,-424,-4677,23,-172,-72,70
962,2158,-1,-426,-4680,23,-174,-77,69
963,2156,0,-425,-4678,23,-170,-74,69
964,2154,2,-424,-4680,23,-172,-74,68
965,2159,-1,-425,-4678,23,-171,-75,69
966,2166,-3,-423,-4681,23,-172,-74,68
967,2162,4,-427,-4678,23,-170,-74,68
968,2161,2,-424,-4683,23,-175,-75,65
969,2161,5,-428,-4680,23,-173,-74,66
970,2161,4,-430,-4684,23,-173,-76,70
971,2157,2,-430,-4684,23,-173,-74,69
972,2160,2,-436,-4682,23,-175,-75,66
973,2158,-1,-435,-4678,23,-174,-78,69
974,2155,-4,-431,-4685,23,-172,-74,66
975,2156,0,-430,-4687,23,-171,-78,68
976,2159,4,-431,-4684,23,-174,-74,70
977,2159,7,-429,-4689,23,-171,-73,71
978,2159,2,-429,-4687,23,-173,-72,69
979,2160,1,-431,-4686,23,-175,-75,71
980,2157,-2,-430,-4686,23,-172,-75,73
981,2156,-1,-426,-4688,23,-169,-71,72
982,2154,-2,-425,-4684,23,-171,-76,72
983,2160,4,-426,-4686,23,-172,-78,72
984,2160,2,-426,-4684,23,-173,-80,72
985,2163,0,-427,-4682,23,-172,-79,70
986,2162,-1,-430,-4679,23,-169,-75,68
987,2160,3,-430,-4680,23,-172,-76,69
988,2155,1,-426,-4681,23,-170,-78,69
989,2159,-2,-427,-4682,23,-171,-78,67
990,2157,-5,-425,-4676,23,-172,-74,68
991,2157,-2,-424,-4683,23,-174,-76,75
992,2158,2,-427,-4682,23,-174,-76,71
993,2158,2,-426,-4677,23,-174,-75,69
994,2161,-2,-427,-4678,23,-173,-76,69
995,2158,0,-433,-4675,23,-173,-71,69
996,2159,-3,-425,-4677,23,-172,-74,72
997,2159,-1,-426,-4678,23,-174,-74,68
998,2159,1,-422,-4681,23,-172,-74,67
