,acc_X,acc_Y,acc_Z,temp,tempC,gyr_X,gyr_Y,gyr_Z
0,4324,4,-853,-4797,22,-348,-151,139
1,4318,4,-859,-4800,22,-342,-146,139
2,4316,4,-859,-4798,22,-345,-147,140
3,4315,1,-859,-4800,22,-344,-148,142
4,4316,0,-856,-4801,22,-343,-150,140
5,4317,1,-860,-4799,22,-340,-149,142
6,4318,6,-857,-4795,22,-344,-151,145
7,4313,3,-852,-4798,22,-343,-149,144
8,4318,5,-849,-4798,22,-341,-151,148
9,4319,4,-857,-4802,22,-341,-153,144
10,4319,5,-861,-4798,22,-342,-152,145
11,4316,2,-866,-4801,22,-343,-149,141
12,4315,4,-864,-4799,22,-345,-149,143
13,4314,5,-859,-4800,22,-348,-153,139
14,4315,0,-856,-4800,22,-346,-151,140
15,4314,2,-854,-4802,22,-345,-152,138
16,4321,5,-853,-4802,22,-345,-154,141
17,4318,1,-859,-4796,22,-346,-150,140
18,4314,1,-860,-4796,22,-347,-150,138
19,4316,3,-857,-4798,22,-346,-145,140
20,4315,6,-862,-4798,22,-350,-147,139
21,4320,5,-860,-4796,22,-344,-148,138
22,4321,7,-860,-4799,22,-345,-151,137
23,4318,6,-861,-4799,22,-339,-154,138
24,4314,5,-862,-4799,22,-339,-153,138
25,4315,4,-863,-4799,22,-342,-155,139
26,4315,5,-865,-4798,22,-344,-157,141
27,4319,1,-855,-4803,22,-343,-156,139
28,4313,3,-851,-4799,22,-341,-151,134
29,4318,4,-858,-4799,22,-343,-150,135
30,4319,3,-860,-4803,22,-347,-153,139
31,4317,2,-864,-4803,22,-344,-147,139
32,4319,2,-859,-4804,22,-342,-147,142
33,4324,0,-862,-4802,22,-342,-150,143
34,4322,5,-863,-4804,22,-346,-145,139
35,4322,3,-868,-4801,22,-343,-149,139
36,4320,5,-863,-4802,22,-347,-154,136
37,4316,7,-859,-4803,22,-343,-152,136
38,4316,8,-854,-4805,22,-344,-155,136
39,4319,7,-860,-4802,22,-345,-155,136
40,4317,5,-858,-4800,22,-347,-149,134
41,4316,2,-856,-4800,22,-349,-149,136
42,4321,2,-857,-4798,22,-351,-143,137
43,4315,3,-861,-4799,22,-350,-144,139
44,4314,4,-861,-4797,22,-350,-149,136
45,4317,5,-853,-4800,22,-349,-147,138
46,4317,6,-854,-4799,22,-348,-149,137
47,4320,3,-856,-4796,22,-343,-150,138
48,4319,0,-859,-4801,22,-344,-153,140
49,4318,1,-862,-4801,22,-342,-146,137
50,4319,1,-858,-4801,22,-342,-147,137
51,4321,2,-851,-4800,22,-345,-148,142
52,4318,4,-857,-4800,22,-350,-148,140
53,4320,1,-862,-4800,22,-351,-144,141
54,4319,0,-858,-4798,22,-343,-150,139
55,4319,0,-863,-4798,22,-342,-146,140
56,4316,4,-866,-4799,22,-342,-148,139
57,4317,7,-858,-4802,22,-345,-153,135
58,4316,8,-857,-4802,22,-345,-152,138
59,4316,8,-863,-4802,22,-348,-148,137
60,4315,11,-860,-4802,22,-345,-151,139
61,4314,7,-857,-4798,22,-341,-151,144
62,4308,8,-862,-4798,22,-345,-150,144
63,4310,3,-859,-4799,22,-348,-150,142
64,4318,4,-861,-4798,22,-349,-149,139
65,4317,6,-856,-4799,22,-351,-149,138
66,4319,5,-856,-4801,22,-350,-153,136
67,4318,3,-855,-4799,22,-347,-153,139
68,4315,4,-857,-4800,22,-342,-153,140
69,4316,7,-853,-4800,22,-344,-149,140
70,4317,4,-855,-4801,22,-342,-150,141
71,4317,2,-849,-4797,22,-343,-152,141
72,4318,4,-854,-4799,22,-345,-149,141
73,4314,7,-853,-4798,22,-341,-152,139
74,4318,6,-849,-4800,22,-342,-152,140
75,4316,0,-850,-4800,22,-340,-153,139
76,4319,2,-850,-4800,22,-341,-154,140
77,4320,1,-851,-4799,22,-340,-156,143
78,4324,-2,-856,-4794,22,-344,-157,146
79,4320,-1,-855,-4794,22,-340,-157,141
80,4326,1,-858,-4794,22,-340,-160,144
81,4318,3,-854,-4794,22,-345,-153,140
82,4323,0,-852,-4795,22,-344,-150,139
83,4322,-1,-851,-4799,22,-343,-146,136
84,4323,-4,-859,-4799,22,-345,-149,140
85,4323,-3,-861,-4800,22,-343,-147,138
86,4321,0,-860,-4800,22,-340,-149,140
87,4319,2,-861,-4800,22,-339,-150,141
88,4319,1,-862,-4799,22,-342,-156,139
89,4316,-2,-860,-4799,22,-344,-153,139
90,4315,-1,-858,-4798,22,-339,-151,141
91,4315,0,-855,-4800,22,-345,-149,140
92,4313,2,-855,-4798,22,-348,-151,140
93,4315,6,-866,-4799,22,-347,-151,138
94,4313,3,-868,-4796,22,-350,-150,136
95,4315,2,-862,-4798,22,-346,-151,141
96,4318,4,-860,-4797,22,-342,-152,138
97,4322,1,-856,-4797,22,-347,-155,135
98,4320,1,-855,-4797,22,-348,-151,136
99,4319,2,-852,-4794,22,-346,-145,143
100,4324,4,-856,-4795,22,-345,-146,139
101,4323,7,-854,-4800,22,-345,-152,141
102,4320,3,-857,-4800,22,-346,-157,139
103,4317,3,-863,-4799,22,-347,-155,138
104,4317,1,-861,-4800,22,-343,-154,138
105,4321,4,-849,-4803,22,-343,-154,138
106,4322,4,-853,-4802,22,-343,-152,139
107,4322,5,-857,-4801,22,-345,-152,142
108,4317,4,-859,-4800,22,-343,-152,141
109,4315,5,-861,-4794,22,-340,-150,137
110,4321,2,-859,-4797,22,-343,-150,144
111,4318,6,-853,-4794,22,-343,-153,138
112,4322,9,-856,-4794,22,-343,-154,136
113,4320,5,-864,-4795,22,-344,-151,138
114,4318,0,-865,-4793,22,-343,-153,138
115,4319,3,-862,-4793,22,-344,-153,137
116,4314,3,-865,-4797,22,-343,-152,139
117,4314,4,-865,-4800,22,-342,-155,134
118,4315,8,-862,-4803,22,-343,-150,135
119,4315,5,-857,-4801,22,-345,-149,136
120,4315,-2,-856,-4799,22,-343,-146,135
121,4314,2,-859,-4799,22,-345,-147,137
122,4314,-2,-856,-4799,22,-346,-148,139
123,4312,1,-859,-4798,22,-348,-152,140
124,4313,4,-852,-4799,22,-349,-153,139
125,4315,0,-857,-4797,22,-347,-156,135
126,4312,-2,-858,-4797,22,-345,-154,136
127,4314,2,-859,-4796,22,-345,-153,137
128,4320,3,-867,-4797,22,-346,-150,139
129,4321,1,-865,-4798,22,-345,-151,137
130,4325,-3,-858,-4801,22,-345,-150,137
131,4326,-1,-856,-4801,22,-347,-150,137
132,4318,0,-854,-4801,22,-348,-150,136
133,4316,0,-854,-4799,22,-344,-149,134
134,4321,2,-853,-4798,22,-348,-150,137
135,4319,4,-862,-4796,22,-348,-150,137
136,4321,2,-861,-4795,22,-346,-155,135
137,4320,0,-857,-4796,22,-345,-155,137
138,4318,3,-860,-4794,22,-348,-151,136
139,4317,3,-854,-4796,22,-346,-147,139
140,4317,5,-864,-4798,22,-345,-145,137
141,4320,1,-861,-4797,22,-343,-151,141
142,4323,0,-860,-4799,22,-340,-154,139
143,4319,-1,-861,-4798,22,-343,-153,136
144,4321,6,-863,-4798,22,-340,-150,139
145,4320,3,-862,-4795,22,-342,-150,138
146,4317,0,-852,-4794,22,-344,-150,143
147,4318,2,-855,-4794,22,-347,-149,138
148,4320,2,-855,-4795,22,-344,-146,138
149,4320,7,-858,-4797,22,-346,-148,136
150,4320,9,-861,-4798,22,-345,-147,137
151,4321,9,-863,-4796,22,-343,-150,135
152,4315,3,-865,-4802,22,-343,-153,136
153,4319,7,-857,-4800,22,-340,-156,136
154,4318,8,-859,-4802,22,-339,-153,137
155,4317,8,-862,-4799,22,-339,-152,136
156,4313,7,-858,-4798,22,-342,-154,134
157,4312,0,-859,-4795,22,-341,-152,133
158,4319,-1,-860,-4796,22,-343,-148,134
159,4321,1,-859,-4797,22,-341,-149,134
160,4319,1,-857,-4797,22,-346,-149,136
161,4315,3,-858,-4799,22,-345,-142,134
162,4317,4,-862,-4798,22,-344,-146,136
163,4317,6,-861,-4795,22,-344,-147,137
164,4315,1,-863,-4796,22,-347,-152,137
165,4318,3,-860,-4793,22,-345,-151,139
166,4318,0,-858,-4793,22,-341,-155,139
167,4321,2,-860,-4794,22,-345,-150,143
168,4324,5,-858,-4794,22,-347,-151,140
169,4321,7,-857,-4796,22,-349,-150,143
170,4318,7,-862,-4797,22,-349,-151,139
171,4315,4,-864,-4797,22,-348,-154,139
172,4319,5,-866,-4796,22,-351,-155,138
173,4318,1,-864,-4795,22,-349,-154,134
174,4318,2,-865,-4797,22,-345,-152,132
175,4314,3,-867,-4796,22,-346,-151,132
176,4314,7,-860,-4797,22,-342,-150,134
177,4313,6,-857,-4795,22,-342,-145,133
178,4317,4,-857,-4795,22,-342,-143,132
179,4313,2,-850,-4793,22,-344,-147,142
180,4315,1,-855,-4794,22,-343,-146,135
181,4316,4,-857,-4791,22,-342,-148,134
182,4315,1,-859,-4792,22,-344,-148,137
183,4316,1,-858,-4796,22,-344,-150,140
184,4317,1,-856,-4796,22,-344,-155,138
185,4317,2,-853,-4795,22,-347,-147,139
186,4312,5,-855,-4798,22,-346,-152,136
187,4311,3,-856,-4798,22,-348,-151,138
188,4314,1,-859,-4800,22,-344,-154,137
189,4314,2,-858,-4801,22,-345,-158,135
190,4314,-1,-862,-4799,22,-344,-151,138
191,4317,3,-860,-4800,22,-341,-153,137
192,4319,3,-864,-4793,22,-343,-154,137
193,4318,1,-860,-4793,22,-347,-152,135
194,4317,4,-857,-4796,22,-344,-151,140
195,4319,4,-860,-4801,22,-342,-150,138
196,4322,-1,-857,-4801,22,-344,-145,137
197,4319,1,-856,-4801,22,-342,-150,136
198,4318,0,-864,-4799,22,-341,-153,136
199,4314,0,-859,-4796,22,-343,-146,140
200,4323,-4,-858,-4795,22,-344,-142,141
201,4322,2,-863,-4794,22,-347,-148,139
202,4317,7,-866,-4794,22,-349,-150,143
203,4317,6,-862,-4794,22,-345,-155,141
204,4318,6,-865,-4795,22,-349,-153,139
205,4319,5,-862,-4793,22,-342,-150,135
206,4320,3,-862,-4795,22,-343,-154,138
207,4319,5,-854,-4798,22,-345,-151,139
208,4318,5,-858,-4796,22,-344,-157,141
209,4321,9,-861,-4796,22,-346,-157,137
210,4320,9,-864,-4796,22,-347,-153,140
211,4321,7,-864,-4798,22,-349,-153,139
212,4322,8,-860,-4798,22,-351,-151,139
213,4326,6,-856,-4797,22,-351,-150,137
214,4324,6,-857,-4796,22,-345,-153,134
215,4318,4,-858,-4796,22,-344,-149,139
216,4321,3,-858,-4798,22,-344,-148,138
217,4319,2,-857,-4798,22,-343,-152,140
218,4325,2,-864,-4796,22,-341,-155,141
219,4323,1,-862,-4797,22,-343,-152,140
220,4322,-1,-857,-4797,22,-344,-153,137
221,4323,2,-857,-4800,22,-346,-149,139
222,4321,1,-857,-4797,22,-343,-149,138
223,4319,1,-854,-4796,22,-344,-152,141
224,4322,-2,-857,-4795,22,-344,-146,142
225,4319,2,-868,-4795,22,-343,-147,145
226,4320,3,-868,-4797,22,-342,-146,142
227,4318,2,-864,-4800,22,-342,-147,142
228,4318,1,-858,-4801,22,-343,-149,141
229,4316,-2,-859,-4800,22,-341,-153,143
230,4316,2,-863,-4799,22,-342,-151,142
231,4321,3,-862,-4799,22,-346,-148,140
232,4320,-1,-864,-4794,22,-343,-149,136
233,4316,-1,-865,-4795,22,-343,-152,134
234,4319,0,-861,-4798,22,-345,-151,136
235,4321,4,-861,-4795,22,-347,-149,135
236,4320,4,-861,-4796,22,-347,-145,138
237,4320,0,-862,-4796,22,-346,-147,143
238,4320,3,-859,-4794,22,-346,-149,143
239,4323,4,-853,-4796,22,-342,-153,138
240,4322,9,-857,-4797,22,-344,-155,140
241,4321,5,-860,-4795,22,-347,-144,139
242,4322,4,-857,-4796,22,-348,-149,141
243,4318,2,-851,-4795,22,-347,-145,142
244,4320,5,-854,-4796,22,-345,-150,135
245,4323,8,-857,-4794,22,-347,-151,135
246,4323,3,-864,-4790,22,-350,-152,135
247,4319,2,-868,-4791,22,-340,-150,137
248,4318,6,-865,-4795,22,-342,-146,136
249,4315,5,-856,-4792,22,-340,-145,139
250,4316,4,-852,-4797,22,-345,-149,139
251,4316,3,-854,-4796,22,-338,-149,139
252,4319,3,-848,-4795,22,-340,-147,135
253,4321,-1,-849,-4794,22,-342,-151,136
254,4320,3,-852,-4799,22,-345,-151,137
255,4315,4,-853,-4796,22,-344,-152,139
256,4315,4,-857,-4798,22,-345,-149,139
257,4319,4,-851,-4799,22,-344,-151,139
258,4321,2,-851,-4797,22,-342,-149,139
259,4320,4,-856,-4796,22,-340,-149,138
260,4321,-2,-859,-4797,22,-341,-152,138
261,4323,1,-861,-4793,22,-344,-152,137
262,4320,2,-864,-4795,22,-338,-154,136
263,4322,2,-861,-4796,22,-342,-155,137
264,4317,0,-860,-4793,22,-344,-151,134
265,4316,-2,-858,-4795,22,-345,-151,134
266,4318,2,-869,-4796,22,-350,-150,141
267,4318,3,-864,-4800,22,-348,-151,139
268,4317,3,-860,-4796,22,-347,-151,139
269,4316,5,-854,-4791,22,-348,-147,137
270,4317,2,-858,-4793,22,-348,-149,134
271,4317,2,-867,-4796,22,-342,-149,137
272,4317,4,-857,-4798,22,-345,-148,136
273,4323,0,-857,-4798,22,-347,-150,138
274,4322,3,-861,-4799,22,-344,-153,135
275,4320,2,-862,-4796,22,-342,-154,139
276,4315,1,-860,-4795,22,-346,-155,139
277,4315,4,-861,-4793,22,-343,-148,139
278,4317,1,-862,-4796,22,-345,-148,138
279,4315,1,-859,-4797,22,-347,-150,139
280,4319,2,-860,-4795,22,-349,-148,142
281,4316,5,-857,-4795,22,-347,-150,140
282,4318,2,-864,-4794,22,-345,-149,140
283,4315,5,-858,-4794,22,-343,-152,143
284,4319,3,-853,-4798,22,-343,-149,135
285,4322,-1,-856,-4796,22,-341,-147,136
286,4320,1,-860,-4796,22,-339,-151,139
287,4320,4,-858,-4798,22,-338,-152,138
288,4317,-3,-855,-4798,22,-345,-151,140
289,4317,-2,-859,-4799,22,-344,-154,138
290,4317,-3,-867,-4798,22,-341,-154,136
291,4319,-2,-861,-4799,22,-341,-158,134
292,4317,-5,-856,-4796,22,-342,-155,140
293,4316,1,-855,-4794,22,-344,-157,140
294,4315,1,-859,-4796,22,-343,-152,138
295,4315,1,-855,-4797,22,-342,-152,133
296,4313,1,-858,-4796,22,-343,-151,132
297,4314,3,-853,-4795,22,-340,-149,134
298,4315,6,-859,-4796,22,-340,-149,134
299,4318,5,-860,-4795,22,-347,-150,137
300,4316,1,-862,-4795,22,-347,-147,135
301,4319,0,-862,-4795,22,-345,-149,138
302,4316,1,-865,-4795,22,-343,-149,140
303,4315,2,-866,-4793,22,-344,-147,141
304,4318,0,-865,-4793,22,-342,-148,141
305,4320,3,-861,-4795,22,-339,-150,141
306,4320,5,-859,-4796,22,-341,-149,141
307,4317,1,-866,-4799,22,-339,-146,141
308,4318,3,-866,-4800,22,-341,-153,140
309,4316,1,-860,-4799,22,-344,-155,137
310,4312,0,-860,-4799,22,-344,-152,137
311,4313,3,-860,-4797,22,-346,-150,136
312,4318,5,-858,-4797,22,-344,-149,138
313,4315,1,-854,-4792,22,-340,-149,135
314,4318,7,-851,-4795,22,-342,-147,135
315,4318,5,-858,-4795,22,-344,-144,136
316,4320,0,-854,-4796,22,-341,-147,134
317,4322,1,-854,-4794,22,-344,-149,135
318,4314,3,-854,-4798,22,-341,-149,133
319,4315,3,-861,-4799,22,-338,-153,133
320,4315,0,-861,-4802,22,-339,-153,136
321,4316,3,-857,-4802,22,-341,-153,138
322,4315,0,-857,-4801,22,-344,-154,136
323,4319,4,-860,-4801,22,-344,-150,138
324,4319,3,-857,-4803,22,-341,-149,134
325,4318,2,-860,-4800,22,-340,-146,135
326,4320,4,-858,-4799,22,-343,-146,132
327,4319,1,-857,-4798,22,-343,-147,136
328,4318,-4,-859,-4798,22,-345,-147,136
329,4316,1,-856,-4798,22,-343,-151,137
330,4318,-2,-857,-4797,22,-341,-151,139
331,4317,-2,-857,-4795,22,-347,-151,140
332,4320,-3,-858,-4795,22,-343,-156,136
333,4317,-3,-861,-4793,22,-343,-154,134
334,4317,-4,-857,-4796,22,-344,-153,138
335,4319,1,-854,-4797,22,-343,-154,139
336,4313,0,-855,-4797,22,-340,-149,143
337,4313,-1,-856,-4798,22,-345,-151,139
338,4313,3,-854,-4795,22,-344,-152,138
339,4315,3,-852,-4798,22,-341,-152,137
340,4318,5,-858,-4798,22,-343,-150,139
341,4326,6,-853,-4798,22,-342,-153,136
342,4318,3,-856,-4797,22,-343,-151,137
343,4319,4,-864,-4796,22,-343,-145,138
344,4319,2,-864,-4794,22,-344,-148,136
345,4319,0,-860,-4793,22,-341,-148,140
346,4318,-4,-861,-4795,22,-344,-146,139
347,4321,-2,-858,-4796,22,-343,-146,141
348,4318,0,-857,-4796,22,-341,-149,142
349,4319,2,-861,-4799,22,-341,-152,139
350,4322,0,-857,-4799,22,-345,-152,137
351,4323,5,-860,-4800,22,-344,-155,140
352,4327,5,-863,-4799,22,-346,-152,136
353,4322,4,-866,-4802,22,-343,-149,136
354,4318,3,-860,-4801,22,-343,-154,141
355,4315,4,-868,-4801,22,-343,-152,140
356,4318,-2,-863,-4799,22,-337,-150,138
357,4313,-2,-860,-4799,22,-341,-152,140
358,4316,0,-859,-4799,22,-346,-148,140
359,4316,-2,-866,-4795,22,-344,-148,140
360,4316,1,-860,-4796,22,-342,-149,143
361,4315,0,-858,-4798,22,-349,-147,140
362,4315,-2,-859,-4799,22,-348,-147,132
363,4318,-1,-859,-4800,22,-348,-147,131
364,4318,-1,-858,-4798,22,-349,-146,134
365,4317,-3,-863,-4796,22,-344,-149,138
366,4315,2,-863,-4794,22,-344,-151,139
367,4318,1,-861,-4793,22,-345,-152,140
368,4319,4,-861,-4796,22,-348,-151,139
369,4317,4,-863,-4796,22,-345,-149,140
370,4318,2,-863,-4796,22,-339,-147,139
371,4317,7,-863,-4798,22,-342,-150,134
372,4320,0,-861,-4799,22,-346,-152,130
373,4322,4,-857,-4797,22,-341,-147,131
374,4320,1,-854,-4797,22,-337,-149,133
375,4319,2,-863,-4797,22,-341,-149,132
376,4316,4,-864,-4793,22,-341,-151,134
377,4321,3,-867,-4793,22,-338,-149,135
378,4317,4,-870,-4795,22,-340,-155,136
379,4315,1,-866,-4796,22,-345,-156,139
380,4312,4,-858,-4797,22,-349,-155,140
381,4314,4,-859,-4793,22,-345,-157,138
382,4313,4,-861,-4795,22,-342,-152,139
383,4313,3,-860,-4796,22,-342,-148,141
384,4317,0,-860,-4797,22,-343,-152,141
385,4317,-1,-860,-4799,22,-337,-149,141
386,4318,-2,-865,-4801,22,-343,-151,141
387,4321,-2,-868,-4800,22,-343,-147,141
388,4320,-2,-862,-4799,22,-344,-151,141
389,4326,-3,-862,-4800,22,-343,-152,141
390,4327,-3,-859,-4799,22,-349,-149,141
391,4323,2,-858,-4804,22,-350,-149,138
392,4326,3,-855,-4801,22,-348,-147,139
393,4318,3,-855,-4802,22,-347,-147,135
394,4323,0,-854,-4801,22,-342,-153,138
395,4323,1,-857,-4803,22,-343,-154,136
396,4321,-1,-855,-4800,22,-347,-149,141
397,4318,-4,-860,-4799,22,-347,-149,142
398,4320,-4,-854,-4799,22,-346,-152,142
399,4321,-4,-857,-4797,22,-346,-150,141
400,4319,-2,-860,-4796,22,-344,-153,136
401,4322,-3,-859,-4796,22,-344,-152,137
402,4319,-4,-863,-4795,22,-339,-153,137
403,4321,-2,-856,-4794,22,-341,-154,141
404,4319,-3,-857,-4796,22,-340,-153,139
405,4321,4,-860,-4798,22,-342,-154,135
406,4322,4,-863,-4796,22,-343,-156,134
407,4321,3,-866,-4799,22,-345,-154,135
408,4316,0,-873,-4801,22,-346,-155,135
409,4314,0,-868,-4801,22,-346,-150,136
410,4316,1,-865,-4801,22,-344,-147,137
411,4319,2,-854,-4798,22,-345,-147,138
412,4319,4,-862,-4798,22,-345,-145,137
413,4319,4,-863,-4799,22,-346,-146,136
414,4324,0,-864,-4799,22,-346,-142,136
415,4323,2,-866,-4798,22,-348,-144,138
416,4326,-1,-865,-4800,22,-343,-146,139
417,4320,3,-869,-4800,22,-345,-149,136
418,4317,4,-861,-4804,22,-348,-153,137
419,4319,2,-860,-4802,22,-346,-152,137
420,4321,-2,-859,-4795,22,-344,-152,137
421,4322,0,-868,-4797,22,-342,-150,137
422,4319,1,-865,-4797,22,-339,-153,136
423,4320,1,-862,-4796,22,-339,-150,138
424,4318,1,-859,-4795,22,-339,-153,136
425,4313,4,-861,-4793,22,-338,-152,139
426,4313,3,-855,-4793,22,-341,-149,141
427,4315,4,-856,-4794,22,-339,-150,137
428,4317,5,-851,-4792,22,-340,-149,137
429,4314,4,-854,-4795,22,-340,-150,140
430,4313,5,-868,-4794,22,-343,-149,140
431,4316,4,-859,-4798,22,-341,-151,148
432,4322,5,-856,-4798,22,-344,-152,146
433,4320,9,-858,-4795,22,-346,-152,147
434,4319,4,-855,-4795,22,-345,-150,143
435,4317,2,-858,-4797,22,-345,-154,138
436,4316,6,-861,-4799,22,-343,-152,137
437,4311,5,-863,-4800,22,-341,-151,132
438,4317,6,-861,-4796,22,-342,-155,136
439,4322,0,-859,-4794,22,-342,-151,138
440,4318,1,-859,-4795,22,-343,-146,140
441,4318,-1,-860,-4797,22,-345,-151,141
442,4319,2,-860,-4797,22,-346,-148,141
443,4321,2,-859,-4795,22,-345,-150,140
444,4320,2,-858,-4799,22,-344,-148,139
445,4316,1,-862,-4800,22,-343,-147,138
446,4314,-4,-861,-4798,22,-344,-149,139
447,4317,3,-863,-4797,22,-345,-150,138
448,4317,3,-867,-4794,22,-343,-148,137
449,4318,2,-865,-4796,22,-343,-145,137
450,4316,4,-866,-4793,22,-342,-144,141
451,4316,1,-861,-4795,22,-343,-145,139
452,4315,-2,-858,-4798,22,-342,-146,140
453,4310,1,-859,-4796,22,-348,-150,140
454,4314,1,-850,-4796,22,-347,-152,138
455,4314,1,-852,-4796,22,-343,-149,138
456,4317,3,-855,-4795,22,-339,-148,134
457,4315,2,-856,-4796,22,-342,-152,134
458,4314,3,-858,-4795,22,-340,-147,135
459,4314,5,-850,-4794,22,-344,-147,136
460,4313,4,-862,-4793,22,-345,-147,138
461,4315,6,-867,-4792,22,-342,-147,138
462,4316,4,-861,-4796,22,-346,-150,141
463,4313,5,-861,-4792,22,-343,-151,141
464,4315,6,-857,-4796,22,-344,-150,139
465,4316,9,-853,-4794,22,-347,-149,140
466,4323,8,-849,-4795,22,-345,-151,135
467,4320,4,-853,-4792,22,-341,-153,135
468,4321,4,-860,-4797,22,-343,-161,135
469,4322,1,-860,-4796,22,-341,-155,135
470,4319,1,-858,-4791,22,-340,-156,133
471,4316,2,-860,-4796,22,-340,-153,132
472,4315,1,-864,-4796,22,-338,-152,135
473,4320,2,-858,-4799,22,-341,-153,132
474,4321,1,-855,-4799,22,-337,-155,133
475,4321,2,-858,-4799,22,-340,-150,137
476,4318,2,-858,-4799,22,-344,-149,140
477,4323,5,-856,-4798,22,-345,-145,138
478,4318,8,-863,-4796,22,-345,-147,136
479,4318,8,-864,-4798,22,-341,-149,136
480,4314,9,-863,-4797,22,-343,-155,136
481,4316,10,-861,-4798,22,-343,-150,140
482,4317,7,-858,-4798,22,-344,-148,138
483,4318,4,-852,-4797,22,-344,-152,139
484,4316,2,-851,-4794,22,-347,-150,136
485,4318,1,-848,-4794,22,-345,-152,133
486,4319,-1,-856,-4792,22,-340,-150,140
487,4320,-5,-856,-4792,22,-338,-146,139
488,4319,-1,-853,-4792,22,-340,-144,138
489,4320,-1,-851,-4794,22,-340,-152,139
490,4324,1,-854,-4795,22,-340,-152,139
491,4324,0,-862,-4795,22,-343,-151,142
492,4323,1,-857,-4795,22,-340,-151,140
493,4315,1,-856,-4794,22,-348,-149,136
494,4317,-2,-857,-4796,22,-348,-153,136
495,4317,1,-857,-4796,22,-345,-156,135
496,4321,-1,-861,-4795,22,-346,-154,134
497,4318,-2,-858,-4794,22,-340,-155,138
498,4318,-1,-857,-4794,22,-339,-156,136
499,4315,1,-858,-4793,22,-336,-152,134
500,4316,2,-854,-4793,22,-340,-152,136
501,4314,8,-853,-4794,22,-342,-153,137
502,4311,4,-852,-4792,22,-345,-153,140
503,4315,4,-857,-4793,22,-339,-156,141
504,4321,4,-855,-4792,22,-340,-151,139
505,4315,6,-855,-4795,22,-346,-152,141
506,4316,6,-858,-4794,22,-346,-153,136
507,4318,1,-859,-4795,22,-347,-154,138
508,4320,1,-851,-4795,22,-349,-153,139
509,4317,1,-852,-4795,22,-344,-153,141
510,4314,4,-855,-4797,22,-342,-149,141
511,4316,0,-855,-4799,22,-343,-152,142
512,4313,1,-853,-4800,22,-345,-154,143
513,4319,1,-859,-4799,22,-342,-151,143
514,4316,0,-862,-4799,22,-341,-153,140
515,4319,1,-868,-4800,22,-344,-149,141
516,4318,2,-859,-4799,22,-349,-151,140
517,4317,0,-855,-4798,22,-350,-151,141
518,4318,2,-856,-4794,22,-346,-150,137
519,4315,3,-860,-4791,22,-343,-157,139
520,4318,-3,-859,-4791,22,-343,-152,138
521,4316,-3,-861,-4791,22,-340,-149,138
522,4314,-4,-862,-4792,22,-340,-150,134
523,4319,-3,-856,-4789,22,-344,-150,136
524,4318,2,-855,-4790,22,-344,-153,134
525,4321,-1,-863,-4792,22,-348,-157,140
526,4320,-1,-857,-4792,22,-348,-151,137
527,4318,-6,-853,-4792,22,-347,-147,136
528,4319,-7,-857,-4793,22,-343,-149,135
529,4317,-5,-859,-4794,22,-342,-148,136
530,4319,-6,-859,-4792,22,-345,-144,138
531,4316,2,-857,-4795,22,-342,-148,137
532,4315,0,-859,-4792,22,-345,-147,142
533,4313,-2,-855,-4792,22,-343,-150,140
534,4317,-2,-851,-4795,22,-342,-145,141
535,4318,0,-858,-4799,22,-344,-149,136
536,4321,1,-857,-4797,22,-343,-149,137
537,4314,4,-854,-4798,22,-341,-145,139
538,4317,3,-858,-4797,22,-341,-147,140
539,4315,4,-855,-4794,22,-347,-149,138
540,4319,2,-857,-4796,22,-346,-147,137
541,4318,2,-855,-4795,22,-346,-151,136
542,4319,-2,-851,-4798,22,-344,-148,134
543,4316,-1,-862,-4795,22,-343,-149,139
544,4313,0,-864,-4795,22,-343,-150,136
545,4315,-1,-856,-4793,22,-342,-151,133
546,4316,5,-858,-4790,22,-344,-154,131
547,4312,3,-856,-4792,22,-341,-151,136
548,4314,8,-853,-4792,22,-343,-153,136
549,4319,5,-854,-4793,22,-343,-147,136
550,4319,5,-857,-4793,22,-342,-146,139
551,4317,7,-865,-4791,22,-340,-148,137
552,4317,4,-862,-4793,22,-344,-147,135
553,4319,7,-865,-4791,22,-345,-145,136
554,4320,2,-874,-4792,22,-348,-146,135
555,4316,2,-876,-4788,22,-346,-144,137
556,4315,1,-867,-4794,22,-343,-147,138
557,4314,6,-864,-4798,22,-347,-149,138
558,4312,6,-863,-4796,22,-345,-152,139
559,4312,0,-866,-4796,22,-346,-152,137
560,4316,2,-862,-4796,22,-347,-151,142
561,4312,1,-854,-4796,22,-346,-151,142
562,4316,2,-848,-4794,22,-342,-146,139
563,4316,5,-847,-4799,22,-343,-148,139
564,4316,1,-852,-4800,22,-347,-150,137
565,4320,-1,-854,-4798,22,-341,-150,133
566,4320,0,-860,-4796,22,-342,-148,135
567,4318,4,-860,-4795,22,-346,-147,135
568,4315,6,-860,-4795,22,-344,-150,137
569,4314,5,-857,-4793,22,-349,-152,135
570,4319,2,-854,-4795,22,-346,-147,135
571,4319,4,-853,-4796,22,-348,-146,133
572,4318,2,-863,-4794,22,-348,-149,134
573,4319,2,-864,-4795,22,-346,-146,137
574,4318,-1,-859,-4794,22,-345,-147,138
575,4319,1,-856,-4794,22,-347,-147,138
576,4321,-5,-853,-4792,22,-348,-151,137
577,4323,-2,-856,-4792,22,-346,-151,138
578,4322,0,-860,-4789,22,-343,-154,140
579,4324,0,-863,-4789,22,-346,-150,139
580,4320,-2,-854,-4793,22,-343,-151,137
581,4320,2,-866,-4792,22,-342,-148,135
582,4318,4,-860,-4790,22,-343,-151,136
583,4321,2,-865,-4792,22,-341,-149,137
584,4321,-4,-867,-4793,22,-346,-150,135
585,4319,-4,-866,-4793,22,-343,-149,137
586,4320,-1,-864,-4793,22,-343,-153,136
587,4317,1,-866,-4790,22,-344,-154,138
588,4312,0,-855,-4794,22,-347,-154,140
589,4315,0,-853,-4791,22,-344,-152,136
590,4318,1,-851,-4790,22,-343,-151,135
591,4316,-4,-852,-4793,22,-339,-149,136
592,4316,1,-851,-4792,22,-340,-151,139
593,4318,-1,-856,-4795,22,-339,-152,141
594,4318,1,-858,-4792,22,-343,-157,138
595,4319,2,-863,-4791,22,-344,-148,137
596,4315,3,-859,-4793,22,-348,-149,138
597,4317,1,-855,-4794,22,-350,-143,138
598,4319,1,-856,-4794,22,-348,-147,139
599,4318,2,-853,-4794,22,-341,-152,136
600,4314,3,-854,-4793,22,-341,-149,140
601,4312,3,-854,-4793,22,-342,-149,143
602,4314,8,-853,-4791,22,-345,-149,141
603,4313,5,-851,-4791,22,-342,-150,139
604,4315,4,-853,-4793,22,-348,-151,135
605,4319,0,-860,-4791,22,-340,-146,135
606,4320,1,-855,-4791,22,-347,-146,135
607,4320,7,-852,-4792,22,-348,-151,135
608,4319,6,-858,-4791,22,-350,-149,131
609,4318,3,-858,-4791,22,-346,-151,140
610,4317,6,-862,-4795,22,-348,-154,138
611,4317,3,-867,-4795,22,-346,-159,141
612,4322,6,-869,-4794,22,-345,-154,144
613,4321,2,-873,-4792,22,-345,-149,138
614,4321,3,-867,-4791,22,-343,-149,135
615,4321,1,-857,-4789,22,-343,-151,136
616,4319,2,-857,-4789,22,-342,-148,135
617,4318,0,-863,-4791,22,-340,-150,139
618,4319,-3,-864,-4792,22,-348,-150,138
619,4321,1,-856,-4788,22,-343,-148,137
620,4319,5,-854,-4787,22,-340,-149,140
621,4321,3,-855,-4789,22,-339,-150,138
622,4317,2,-855,-4788,22,-340,-150,143
623,4321,5,-855,-4787,22,-345,-151,143
624,4320,5,-864,-4789,22,-343,-148,141
625,4316,8,-857,-4790,22,-343,-154,139
626,4319,6,-856,-4791,22,-346,-150,138
627,4317,0,-857,-4792,22,-347,-147,138
628,4324,3,-863,-4790,22,-345,-146,137
629,4324,-1,-861,-4786,22,-346,-148,136
630,4321,-2,-856,-4788,22,-346,-151,136
631,4315,0,-854,-4788,22,-339,-153,140
632,4313,2,-855,-4790,22,-339,-147,139
633,4314,2,-855,-4788,22,-344,-151,137
634,4320,-1,-858,-4786,22,-347,-151,139
635,4314,3,-856,-4785,22,-342,-149,137
636,4314,-1,-856,-4787,22,-345,-159,139
637,4316,1,-856,-4788,22,-346,-153,139
638,4316,-2,-854,-4788,22,-346,-153,139
639,4312,2,-865,-4786,22,-347,-150,139
640,4318,3,-866,-4785,22,-348,-147,140
641,4316,6,-860,-4790,22,-348,-146,140
642,4319,4,-860,-4792,22,-347,-149,137
643,4320,5,-855,-4789,22,-346,-154,138
644,4317,7,-859,-4792,22,-344,-154,142
645,4320,2,-856,-4792,22,-345,-153,141
646,4320,-1,-859,-4794,22,-345,-153,139
647,4314,3,-861,-4789,22,-344,-151,139
648,4318,2,-859,-4784,22,-344,-155,136
649,4317,6,-856,-4786,22,-343,-153,141
650,4316,3,-866,-4790,22,-347,-155,140
651,4313,1,-862,-4790,22,-343,-153,139
652,4315,5,-863,-4790,22,-340,-154,142
653,4321,10,-860,-4794,22,-341,-151,142
654,4326,7,-857,-4793,22,-339,-155,143
655,4322,6,-851,-4792,22,-339,-154,140
656,4322,4,-858,-4795,22,-340,-152,137
657,4321,5,-856,-4793,22,-343,-151,139
658,4321,0,-850,-4794,22,-343,-152,141
659,4316,0,-852,-4794,22,-343,-156,141
660,4315,0,-855,-4794,22,-341,-152,138
661,4318,-1,-857,-4790,22,-342,-149,136
662,4315,-1,-854,-4786,22,-346,-149,138
663,4318,-3,-858,-4789,22,-342,-150,140
664,4321,1,-858,-4789,22,-342,-153,142
665,4318,0,-858,-4790,22,-344,-150,142
666,4316,1,-860,-4789,22,-345,-153,142
667,4315,1,-861,-4789,22,-344,-149,141
668,4315,4,-863,-4791,22,-339,-150,137
669,4314,4,-864,-4787,22,-340,-157,137
670,4315,4,-859,-4788,22,-345,-156,132
671,4315,4,-856,-4789,22,-343,-157,133
672,4319,1,-850,-4787,22,-343,-154,134
673,4322,0,-848,-4787,22,-347,-155,134
674,4320,0,-850,-4790,22,-344,-155,135
675,4321,3,-856,-4789,22,-346,-155,137
676,4323,-2,-853,-4786,22,-347,-153,141
677,4325,0,-857,-4784,22,-349,-154,144
678,4325,4,-863,-4785,22,-344,-154,144
679,4321,2,-860,-4788,22,-347,-155,145
680,4315,-1,-861,-4786,22,-345,-150,142
681,4315,-1,-853,-4791,22,-343,-148,140
682,4319,0,-852,-4789,22,-348,-143,142
683,4316,0,-848,-4791,22,-346,-146,141
684,4320,1,-858,-4791,22,-347,-148,142
685,4318,1,-861,-4787,22,-346,-152,140
686,4314,-1,-863,-4789,22,-346,-152,138
687,4315,2,-857,-4786,22,-346,-151,140
688,4317,2,-851,-4791,22,-342,-147,139
689,4316,2,-853,-4791,22,-339,-148,137
690,4313,0,-853,-4792,22,-345,-149,139
691,4318,-1,-856,-4790,22,-342,-149,136
692,4319,5,-858,-4788,22,-346,-149,133
693,4317,0,-867,-4789,22,-346,-149,133
694,4316,3,-867,-4789,22,-345,-145,134
695,4318,2,-865,-4791,22,-349,-146,136
696,4316,1,-861,-4791,22,-346,-149,141
697,4320,4,-866,-4792,22,-345,-157,140
698,4317,8,-865,-4792,22,-347,-155,137
699,4312,8,-859,-4793,22,-346,-150,135
700,4313,3,-862,-4790,22,-346,-151,134
701,4318,3,-859,-4789,22,-344,-152,135
702,4321,5,-857,-4791,22,-344,-154,138
703,4321,4,-855,-4793,22,-346,-154,135
704,4322,-1,-857,-4792,22,-345,-150,137
705,4326,-1,-857,-4791,22,-343,-153,138
706,4325,-1,-861,-4790,22,-343,-154,133
707,4317,4,-859,-4791,22,-342,-155,133
708,4316,-2,-858,-4792,22,-344,-152,130
709,4314,-4,-862,-4791,22,-344,-152,138
710,4316,2,-861,-4788,22,-341,-151,137
711,4322,2,-859,-4792,22,-346,-147,137
712,4317,-1,-861,-4795,22,-343,-147,136
713,4317,1,-864,-4790,22,-345,-147,135
714,4317,1,-859,-4791,22,-345,-145,136
715,4316,2,-861,-4790,22,-346,-145,136
716,4312,6,-858,-4788,22,-343,-144,136
717,4319,4,-863,-4792,22,-344,-148,133
718,4317,4,-867,-4790,22,-343,-149,138
719,4318,3,-864,-4792,22,-347,-153,136
720,4320,5,-860,-4791,22,-343,-149,134
721,4318,1,-869,-4793,22,-345,-149,133
722,4322,4,-869,-4791,22,-346,-152,136
723,4320,0,-862,-4788,22,-341,-153,137
724,4322,1,-863,-4789,22,-347,-153,137
725,4321,2,-858,-4787,22,-348,-153,135
726,4320,3,-856,-4788,22,-350,-151,138
727,4323,2,-853,-4790,22,-347,-151,137
728,4321,-3,-852,-4794,22,-344,-155,134
729,4320,4,-853,-4791,22,-343,-156,132
730,4316,0,-853,-4791,22,-340,-156,136
731,4316,-4,-855,-4789,22,-343,-152,136
732,4319,2,-861,-4786,22,-344,-149,135
733,4320,2,-864,-4788,22,-345,-151,137
734,4316,-3,-850,-4789,22,-343,-149,139
735,4313,-1,-847,-4791,22,-341,-144,139
736,4314,-1,-851,-4791,22,-342,-147,140
737,4317,0,-856,-4790,22,-343,-147,142
738,4319,3,-859,-4789,22,-341,-148,142
739,4319,3,-859,-4791,22,-345,-147,139
740,4320,0,-853,-4790,22,-345,-152,142
741,4319,0,-850,-4794,22,-342,-148,139
742,4319,1,-857,-4791,22,-343,-146,136
743,4321,-1,-856,-4787,22,-346,-146,138
744,4320,0,-854,-4787,22,-347,-147,140
745,4322,-2,-858,-4791,22,-343,-149,140
746,4316,-2,-857,-4790,22,-343,-147,137
747,4318,2,-855,-4790,22,-349,-148,136
748,4316,3,-853,-4792,22,-346,-147,138
749,4317,5,-854,-4790,22,-344,-151,141
750,4315,4,-856,-4785,22,-341,-152,137
751,4314,3,-853,-4787,22,-344,-150,140
752,4320,4,-859,-4788,22,-344,-152,141
753,4323,2,-856,-4791,22,-343,-149,144
754,4317,-1,-858,-4787,22,-342,-146,142
755,4318,4,-855,-4785,22,-342,-147,137
756,4317,2,-859,-4788,22,-344,-152,133
757,4317,5,-850,-4789,22,-345,-150,135
758,4324,2,-854,-4786,22,-348,-152,136
759,4323,5,-857,-4791,22,-348,-151,138
760,4325,5,-854,-4789,22,-348,-148,137
761,4324,2,-852,-4788,22,-348,-154,138
762,4323,-4,-852,-4790,22,-341,-155,143
763,4318,-2,-854,-4790,22,-345,-155,137
764,4316,-3,-851,-4790,22,-339,-153,133
765,4317,1,-851,-4792,22,-341,-156,140
766,4317,4,-850,-4789,22,-349,-150,139
767,4320,4,-858,-4787,22,-346,-148,138
768,4321,10,-852,-4790,22,-346,-152,140
769,4318,8,-855,-4789,22,-345,-153,139
770,4322,9,-857,-4789,22,-343,-153,141
771,4321,4,-856,-4787,22,-346,-150,137
772,4317,-1,-856,-4789,22,-348,-154,137
773,4317,-3,-858,-4785,22,-346,-151,135
774,4315,-2,-861,-4783,22,-345,-154,142
775,4319,-2,-862,-4786,22,-344,-155,138
776,4316,-3,-860,-4786,22,-344,-158,136
777,4315,2,-860,-4785,22,-345,-158,138
778,4314,3,-856,-4784,22,-340,-154,140
779,4316,5,-859,-4784,22,-341,-150,139
780,4318,5,-860,-4787,22,-342,-150,139
781,4317,-1,-854,-4787,22,-345,-150,138
782,4320,6,-856,-4786,22,-342,-148,139
783,4316,1,-860,-4787,22,-341,-151,140
784,4313,3,-861,-4787,22,-338,-149,141
785,4310,2,-856,-4783,22,-340,-150,141
786,4311,6,-856,-4787,22,-341,-149,140
787,4315,3,-854,-4788,22,-339,-147,140
788,4312,2,-860,-4787,22,-338,-145,142
789,4316,1,-860,-4791,22,-339,-148,140
790,4313,2,-860,-4787,22,-338,-148,140
791,4313,-2,-859,-4788,22,-344,-146,140
792,4310,-1,-857,-4793,22,-343,-149,140
793,4311,-3,-859,-4791,22,-343,-149,138
794,4314,1,-864,-4791,22,-350,-152,138
795,4315,3,-860,-4791,22,-346,-153,138
796,4318,1,-862,-4790,22,-347,-149,139
797,4317,1,-853,-4789,22,-346,-148,138
798,4317,-2,-853,-4789,22,-348,-152,136
799,4313,0,-858,-4788,22,-351,-151,134
800,4313,3,-858,-4785,22,-346,-155,140
801,4316,2,-862,-4787,22,-347,-151,139
802,4314,1,-856,-4786,22,-347,-150,142
803,4314,2,-852,-4786,22,-347,-153,137
804,4314,0,-854,-4788,22,-342,-153,136
805,4318,0,-856,-4788,22,-343,-156,137
806,4318,5,-856,-4789,22,-347,-154,140
807,4317,6,-863,-4788,22,-345,-155,140
808,4317,3,-866,-4787,22,-344,-155,139
809,4316,3,-858,-4788,22,-344,-154,139
810,4317,-2,-860,-4790,22,-342,-155,141
811,4318,1,-859,-4788,22,-343,-155,138
812,4319,1,-859,-4787,22,-346,-156,138
813,4321,-5,-862,-4788,22,-345,-153,140
814,4317,-4,-865,-4786,22,-344,-151,139
815,4318,0,-858,-4785,22,-347,-155,138
816,4320,0,-860,-4786,22,-346,-155,137
817,4319,1,-866,-4785,22,-344,-157,135
818,4319,1,-868,-4785,22,-340,-155,137
819,4315,2,-867,-4788,22,-341,-157,134
820,4316,6,-864,-4785,22,-340,-150,136
821,4315,4,-866,-4788,22,-340,-151,140
822,4317,1,-863,-4789,22,-340,-149,139
823,4320,1,-853,-4788,22,-341,-146,137
824,4321,0,-854,-4787,22,-342,-147,138
825,4319,-4,-860,-4785,22,-346,-150,139
826,4324,0,-864,-4786,22,-344,-155,138
827,4326,6,-858,-4789,22,-342,-153,136
828,4327,6,-856,-4788,22,-340,-148,134
829,4325,4,-857,-4787,22,-343,-146,135
830,4315,4,-852,-4783,22,-346,-150,134
831,4316,6,-858,-4784,22,-347,-152,135
832,4314,6,-856,-4790,22,-345,-150,135
833,4313,4,-859,-4786,22,-345,-150,133
834,4314,1,-858,-4788,22,-347,-151,133
835,4318,1,-857,-4784,22,-340,-153,134
836,4320,0,-859,-4787,22,-336,-150,137
837,4319,-1,-862,-4784,22,-339,-153,139
838,4319,-2,-858,-4783,22,-335,-155,139
839,4321,1,-855,-4785,22,-337,-156,140
840,4320,1,-849,-4787,22,-337,-155,139
841,4318,1,-851,-4788,22,-338,-156,140
842,4319,2,-851,-4789,22,-337,-151,141
843,4320,0,-853,-4790,22,-342,-156,141
844,4319,1,-859,-4789,22,-343,-152,138
845,4318,1,-859,-4791,22,-342,-152,140
846,4319,0,-859,-4792,22,-342,-148,142
847,4316,1,-860,-4793,22,-342,-146,140
848,4317,0,-863,-4790,22,-341,-147,138
849,4316,-2,-860,-4788,22,-340,-147,139
850,4318,2,-858,-4789,22,-339,-144,139
851,4318,0,-857,-4791,22,-341,-147,136
852,4315,3,-856,-4788,22,-339,-147,134
853,4315,5,-859,-4789,22,-338,-146,134
854,4317,2,-860,-4788,22,-339,-151,136
855,4317,1,-859,-4785,22,-341,-151,136
856,4317,-3,-854,-4787,22,-344,-148,133
857,4315,1,-855,-4788,22,-341,-146,134
858,4318,2,-863,-4791,22,-342,-148,136
859,4318,3,-863,-4789,22,-341,-151,136
860,4319,6,-857,-4790,22,-344,-154,135
861,4318,6,-858,-4789,22,-346,-157,138
862,4321,5,-860,-4787,22,-344,-154,137
863,4322,3,-850,-4786,22,-345,-154,136
864,4322,2,-858,-4789,22,-344,-152,137
865,4318,1,-854,-4789,22,-344,-156,139
866,4318,5,-853,-4791,22,-342,-151,142
867,4317,3,-854,-4789,22,-346,-150,139
868,4313,4,-861,-4787,22,-342,-150,138
869,4316,7,-859,-4792,22,-342,-149,140
870,4314,4,-854,-4791,22,-343,-148,137
871,4312,5,-852,-4792,22,-340,-151,134
872,4311,5,-858,-4790,22,-338,-149,136
873,4314,5,-859,-4789,22,-343,-150,139
874,4315,7,-857,-4792,22,-342,-153,139
875,4320,6,-862,-4793,22,-338,-148,138
876,4316,5,-864,-4792,22,-336,-149,137
877,4317,4,-866,-4793,22,-341,-150,137
878,4318,6,-866,-4792,22,-341,-153,140
879,4319,3,-868,-4790,22,-342,-152,139
880,4317,1,-865,-4786,22,-342,-154,136
881,4317,-3,-858,-4785,22,-342,-150,138
882,4322,1,-855,-4786,22,-343,-150,135
883,4321,6,-852,-4787,22,-342,-151,136
884,4320,3,-849,-4787,22,-345,-150,136
885,4322,4,-848,-4790,22,-347,-149,136
886,4320,3,-850,-4789,22,-348,-146,134
887,4317,5,-856,-4790,22,-347,-153,135
888,4320,8,-854,-4788,22,-345,-157,136
889,4317,6,-851,-4788,22,-347,-155,137
890,4317,4,-854,-4789,22,-347,-152,137
891,4313,5,-852,-4787,22,-345,-154,139
892,4311,5,-851,-4785,22,-348,-155,142
893,4315,2,-858,-4786,22,-344,-150,143
894,4316,3,-864,-4789,22,-345,-152,138
895,4315,7,-866,-4790,22,-342,-153,140
896,4314,3,-865,-4791,22,-339,-148,139
897,4313,2,-861,-4786,22,-338,-147,137
898,4310,5,-856,-4787,22,-338,-153,136
899,4310,4,-859,-4786,22,-341,-152,139
900,4314,-1,-863,-4785,22,-340,-151,135
901,4320,5,-865,-4784,22,-342,-157,139
902,4314,6,-869,-4786,22,-341,-152,137
903,4316,3,-859,-4788,22,-342,-152,139
904,4315,0,-855,-4788,22,-343,-153,138
905,4315,0,-857,-4786,22,-344,-153,137
906,4317,4,-855,-4785,22,-341,-153,138
907,4319,3,-859,-4785,22,-346,-153,138
908,4315,-2,-859,-4784,22,-342,-159,136
909,4316,-3,-862,-4785,22,-343,-156,136
910,4319,2,-859,-4786,22,-346,-155,139
911,4321,1,-859,-4787,22,-345,-153,138
912,4320,2,-849,-4790,22,-348,-147,141
913,4317,5,-855,-4791,22,-347,-150,142
914,4314,3,-852,-4788,22,-347,-149,145
915,4315,5,-845,-4785,22,-341,-152,143
916,4313,6,-850,-4789,22,-339,-149,137
917,4314,4,-853,-4792,22,-343,-150,135
918,4316,5,-856,-4791,22,-344,-149,136
919,4319,3,-859,-4789,22,-346,-150,139
920,4322,6,-856,-4788,22,-342,-152,140
921,4323,4,-850,-4788,22,-343,-150,139
922,4319,2,-853,-4787,22,-343,-151,141
923,4315,0,-859,-4790,22,-344,-148,140
924,4313,2,-858,-4793,22,-340,-150,141
925,4311,2,-854,-4786,22,-343,-150,137
926,4311,2,-852,-4790,22,-343,-151,139
927,4314,1,-857,-4789,22,-341,-152,137
928,4316,2,-860,-4787,22,-341,-155,135
929,4322,5,-860,-4787,22,-343,-150,138
930,4318,7,-857,-4787,22,-346,-149,138
931,4315,6,-858,-4786,22,-346,-148,137
932,4317,3,-864,-4786,22,-345,-150,137
933,4319,2,-861,-4786,22,-340,-148,140
934,4319,2,-858,-4788,22,-343,-144,138
935,4320,1,-860,-4786,22,-340,-145,139
936,4321,-1,-862,-4785,22,-343,-149,137
937,4322,0,-868,-4787,22,-346,-150,140
938,4324,3,-871,-4788,22,-348,-151,141
939,4325,3,-866,-4789,22,-352,-148,139
940,4320,4,-866,-4786,22,-350,-148,138
941,4320,5,-869,-4789,22,-345,-149,139
942,4315,8,-861,-4788,22,-345,-151,138
943,4318,5,-857,-4788,22,-344,-152,137
944,4317,5,-856,-4787,22,-346,-148,140
945,4316,3,-852,-4786,22,-347,-149,136
946,4317,-3,-859,-4787,22,-347,-148,135
947,4319,3,-859,-4792,22,-343,-151,138
948,4320,3,-855,-4790,22,-344,-149,138
949,4315,0,-853,-4790,22,-343,-150,138
950,4315,-2,-860,-4789,22,-345,-148,137
951,4313,1,-852,-4791,22,-346,-153,138
952,4315,3,-851,-4790,22,-346,-153,141
953,4318,0,-857,-4788,22,-346,-157,138
954,4317,-2,-854,-4789,22,-347,-152,137
955,4317,2,-853,-4788,22,-343,-155,136
956,4316,4,-859,-4787,22,-344,-148,135
957,4319,0,-863,-4787,22,-344,-154,134
958,4314,3,-858,-4789,22,-342,-151,136
959,4316,-3,-854,-4787,22,-346,-150,136
960,4318,-2,-859,-4788,22,-342,-150,137
961,4321,0,-852,-4788,22,-341,-154,134
962,4323,1,-850,-4787,22,-338,-153,134
963,4319,5,-854,-4786,22,-341,-151,134
964,4313,2,-859,-4787,22,-343,-155,137
965,4315,1,-861,-4786,22,-342,-152,136
966,4317,2,-864,-4784,22,-343,-156,137
967,4320,-1,-852,-4785,22,-347,-157,135
968,4323,0,-851,-4785,22,-343,-152,136
969,4320,-5,-851,-4787,22,-341,-150,137
970,4319,-4,-852,-4788,22,-339,-146,138
971,4319,-1,-855,-4791,22,-343,-148,139
972,4318,3,-854,-4787,22,-342,-148,140
973,4318,2,-857,-4787,22,-344,-150,139
974,4322,2,-859,-4785,22,-345,-152,138
975,4325,5,-853,-4787,22,-346,-153,136
976,4319,5,-853,-4790,22,-344,-150,138
977,4316,6,-850,-4793,22,-341,-150,138
978,4316,7,-856,-4793,22,-341,-152,137
979,4320,5,-853,-4792,22,-339,-150,141
980,4318,6,-852,-4791,22,-340,-147,142
981,4319,9,-854,-4791,22,-341,-153,142
982,4323,11,-853,-4787,22,-343,-151,140
983,4322,7,-858,-4784,22,-343,-150,140
984,4324,4,-858,-4787,22,-345,-149,138
985,4324,2,-853,-4786,22,-345,-154,136
986,4324,4,-856,-4786,22,-342,-152,139
987,4318,5,-862,-4781,22,-342,-150,133
988,4320,2,-865,-4787,22,-342,-152,136
989,4315,1,-860,-4787,22,-344,-151,133
990,4315,-1,-863,-4789,22,-344,-150,136
991,4317,4,-860,-4788,22,-341,-153,137
992,4319,5,-858,-4786,22,-347,-153,135
993,4321,1,-856,-4784,22,-347,-151,139
994,4320,1,-859,-4786,22,-345,-150,136
995,4315,1,-857,-4785,22,-344,-151,138
996,4316,3,-852,-4785,22,-345,-151,141
997,4317,3,-862,-4783,22,-350,-152,140
998,4319,3,-857,-4788,22,-350,-150,141
