,acc_X,acc_Y,acc_Z,temp,tempC,gyr_X,gyr_Y,gyr_Z
0,4311,9,-863,-4849,22,-345,-153,135
1,4316,11,-866,-4845,22,-342,-153,137
2,4317,17,-863,-4846,22,-347,-159,142
3,4311,3,-869,-4845,22,-353,-160,136
4,4320,2,-860,-4843,22,-352,-146,138
5,4315,6,-866,-4849,22,-342,-152,133
6,4311,12,-851,-4847,22,-335,-149,142
7,4312,5,-854,-4837,22,-339,-148,133
8,4317,-3,-865,-4841,22,-341,-153,135
9,4327,-1,-869,-4839,22,-344,-148,137
10,4324,6,-872,-4834,22,-341,-150,140
11,4318,7,-861,-4840,22,-338,-152,143
12,4314,6,-867,-4843,22,-340,-148,134
13,4317,4,-862,-4841,22,-342,-154,135
14,4317,6,-857,-4836,22,-343,-149,141
15,4319,1,-860,-4833,22,-346,-148,141
16,4318,9,-852,-4836,22,-350,-150,140
17,4322,-1,-860,-4839,22,-347,-155,140
18,4315,3,-861,-4841,22,-337,-156,141
19,4321,-1,-865,-4844,22,-340,-146,132
20,4317,0,-855,-4841,22,-346,-153,131
21,4318,2,-853,-4840,22,-342,-158,130
22,4319,6,-870,-4843,22,-352,-154,135
23,4317,2,-860,-4837,22,-345,-146,139
24,4322,6,-868,-4840,22,-344,-148,142
25,4326,13,-866,-4838,22,-344,-149,143
26,4321,11,-867,-4838,22,-341,-153,142
27,4319,8,-866,-4831,22,-348,-157,139
28,4322,6,-862,-4834,22,-351,-154,139
29,4327,8,-866,-4839,22,-352,-155,143
30,4323,8,-859,-4841,22,-346,-157,143
31,4324,6,-860,-4838,22,-347,-150,138
32,4310,4,-863,-4837,22,-347,-156,131
33,4308,13,-850,-4842,22,-346,-152,135
34,4323,8,-847,-4837,22,-334,-156,138
35,4319,4,-859,-4840,22,-333,-153,136
36,4323,5,-863,-4835,22,-343,-143,136
37,4314,4,-861,-4834,22,-342,-145,137
38,4316,2,-866,-4834,22,-339,-151,137
39,4312,9,-861,-4836,22,-344,-148,137
40,4314,6,-863,-4835,22,-342,-141,139
41,4309,12,-871,-4837,22,-341,-147,142
42,4313,10,-864,-4842,22,-340,-154,148
43,4310,11,-859,-4839,22,-342,-151,138
44,4316,8,-860,-4837,22,-347,-156,138
45,4318,5,-860,-4830,22,-341,-146,138
46,4313,5,-861,-4830,22,-341,-150,137
47,4316,5,-869,-4831,22,-340,-152,132
48,4324,7,-862,-4830,22,-339,-152,134
49,4320,7,-868,-4834,22,-345,-152,136
50,4322,10,-869,-4839,22,-341,-146,136
51,4319,1,-860,-4833,22,-346,-156,138
52,4317,3,-861,-4826,22,-345,-150,140
53,4317,3,-869,-4827,22,-349,-150,140
54,4319,2,-869,-4829,22,-349,-148,136
55,4318,8,-871,-4836,22,-343,-139,140
56,4316,8,-862,-4828,22,-348,-146,141
57,4312,7,-862,-4831,22,-340,-145,133
58,4324,10,-867,-4824,22,-341,-144,136
59,4318,9,-874,-4830,22,-342,-149,142
60,4324,12,-861,-4827,22,-339,-158,134
61,4319,12,-860,-4828,22,-338,-152,129
62,4324,9,-863,-4824,22,-342,-157,132
63,4313,3,-861,-4823,22,-337,-153,132
64,4314,9,-859,-4823,22,-342,-151,133
65,4318,12,-848,-4824,22,-340,-156,136
66,4315,5,-851,-4829,22,-341,-156,140
67,4313,6,-871,-4829,22,-341,-161,137
68,4313,8,-861,-4822,22,-346,-158,136
69,4318,2,-859,-4826,22,-346,-154,141
70,4319,2,-859,-4824,22,-350,-148,142
71,4320,4,-857,-4818,22,-348,-150,137
72,4322,3,-854,-4815,22,-343,-149,135
73,4316,13,-859,-4825,22,-347,-158,135
74,4320,12,-849,-4825,22,-342,-151,130
75,4313,12,-847,-4827,22,-348,-151,132
76,4314,10,-856,-4821,22,-346,-154,139
77,4308,4,-850,-4819,22,-345,-149,141
78,4319,9,-870,-4824,22,-334,-150,137
79,4317,5,-857,-4827,22,-334,-155,139
80,4318,0,-855,-4827,22,-347,-154,142
81,4320,7,-862,-4827,22,-337,-155,137
82,4322,4,-865,-4824,22,-335,-146,139
83,4318,7,-864,-4822,22,-343,-147,142
84,4316,11,-863,-4828,22,-345,-148,143
85,4319,14,-863,-4819,22,-345,-151,135
86,4318,18,-861,-4821,22,-340,-157,140
87,4320,13,-851,-4822,22,-343,-155,140
88,4316,9,-848,-4823,22,-342,-159,139
89,4315,1,-861,-4820,22,-346,-150,141
90,4310,7,-855,-4816,22,-344,-155,141
91,4315,13,-862,-4818,22,-346,-151,137
92,4322,9,-866,-4818,22,-350,-153,134
93,4322,4,-868,-4817,22,-343,-152,144
94,4312,-2,-868,-4816,22,-349,-149,137
95,4316,1,-865,-4817,22,-345,-154,137
96,4322,1,-869,-4820,22,-349,-150,139
97,4325,2,-860,-4816,22,-341,-158,141
98,4316,9,-860,-4813,22,-340,-157,138
99,4322,10,-857,-4817,22,-344,-161,145
100,4322,6,-858,-4812,22,-347,-149,141
101,4316,3,-856,-4815,22,-340,-146,140
102,4314,9,-858,-4815,22,-347,-138,140
103,4321,8,-852,-4820,22,-347,-142,135
104,4321,7,-865,-4816,22,-342,-153,138
105,4322,4,-871,-4815,22,-346,-152,140
106,4317,3,-858,-4814,22,-344,-149,137
107,4318,9,-862,-4818,22,-341,-159,141
108,4318,5,-871,-4815,22,-336,-151,141
109,4317,10,-859,-4817,22,-341,-153,139
110,4322,17,-858,-4813,22,-353,-147,137
111,4317,3,-859,-4813,22,-344,-149,142
112,4315,11,-857,-4812,22,-343,-155,138
113,4318,8,-859,-4817,22,-346,-156,141
114,4316,2,-869,-4813,22,-345,-148,142
115,4313,7,-863,-4813,22,-347,-147,141
116,4318,12,-863,-4813,22,-340,-154,133
117,4314,12,-865,-4815,22,-341,-156,135
118,4317,11,-868,-4816,22,-343,-144,143
119,4320,9,-857,-4816,22,-348,-145,136
120,4322,4,-858,-4817,22,-342,-152,128
121,4320,9,-857,-4817,22,-343,-155,138
122,4319,7,-855,-4818,22,-334,-158,138
123,4319,6,-857,-4816,22,-339,-156,129
124,4324,4,-869,-4815,22,-345,-151,133
125,4321,11,-871,-4815,22,-349,-150,136
126,4315,3,-877,-4815,22,-342,-147,135
127,4317,3,-862,-4815,22,-341,-149,139
128,4317,-1,-860,-4808,22,-344,-145,133
129,4318,0,-861,-4806,22,-340,-152,139
130,4312,8,-867,-4810,22,-346,-153,136
131,4319,8,-870,-4813,22,-342,-155,143
132,4314,2,-856,-4814,22,-338,-148,133
133,4313,5,-854,-4809,22,-339,-153,129
134,4310,6,-854,-4811,22,-342,-152,136
135,4315,11,-861,-4809,22,-351,-152,136
136,4311,6,-858,-4809,22,-346,-147,139
137,4316,9,-858,-4814,22,-345,-154,141
138,4312,7,-863,-4811,22,-342,-148,140
139,4324,4,-868,-4812,22,-352,-150,145
140,4316,6,-859,-4813,22,-347,-147,137
141,4314,2,-865,-4810,22,-341,-155,137
142,4317,12,-866,-4812,22,-344,-149,138
143,4311,9,-863,-4810,22,-346,-146,140
144,4307,11,-863,-4806,22,-343,-148,136
145,4305,7,-861,-4807,22,-347,-155,139
146,4314,20,-859,-4811,22,-347,-154,136
147,4321,5,-868,-4806,22,-354,-151,142
148,4320,-2,-870,-4809,22,-346,-145,140
149,4325,10,-871,-4808,22,-342,-149,143
150,4318,6,-872,-4806,22,-334,-141,139
151,4322,0,-867,-4808,22,-340,-150,136
152,4321,4,-857,-4807,22,-341,-144,139
153,4316,10,-863,-4805,22,-339,-156,141
154,4320,4,-867,-4809,22,-347,-158,139
155,4317,1,-873,-4805,22,-345,-157,139
156,4317,3,-873,-4810,22,-343,-155,140
157,4315,-3,-857,-4808,22,-343,-151,132
158,4323,6,-850,-4808,22,-339,-150,136
159,4321,9,-858,-4805,22,-351,-153,132
160,4313,6,-857,-4809,22,-339,-144,132
161,4321,9,-855,-4808,22,-343,-142,134
162,4320,2,-857,-4810,22,-347,-146,142
163,4317,4,-855,-4812,22,-343,-146,137
164,4314,1,-858,-4800,22,-337,-146,138
165,4311,3,-874,-4801,22,-340,-148,138
166,4319,9,-871,-4800,22,-339,-143,138
167,4310,13,-867,-4805,22,-339,-153,146
168,4314,10,-863,-4801,22,-344,-146,145
169,4308,3,-866,-4801,22,-348,-141,135
170,4311,13,-866,-4804,22,-351,-151,139
171,4319,10,-866,-4803,22,-346,-150,141
172,4310,12,-865,-4800,22,-351,-152,138
173,4316,12,-868,-4802,22,-346,-148,140
174,4312,8,-868,-4804,22,-343,-142,137
175,4314,4,-869,-4805,22,-350,-152,139
176,4317,2,-864,-4799,22,-346,-155,133
177,4330,12,-858,-4799,22,-345,-150,129
178,4319,5,-856,-4798,22,-342,-151,134
179,4314,11,-860,-4801,22,-339,-155,138
180,4320,3,-865,-4806,22,-339,-145,136
181,4316,8,-858,-4807,22,-346,-149,138
182,4318,5,-854,-4803,22,-342,-150,141
183,4321,9,-853,-4799,22,-344,-149,137
184,4317,2,-849,-4795,22,-341,-140,143
185,4320,7,-856,-4797,22,-347,-149,141
186,4320,8,-868,-4802,22,-344,-149,133
187,4318,8,-861,-4803,22,-348,-152,136
188,4321,6,-861,-4804,22,-347,-141,141
189,4321,5,-861,-4803,22,-343,-140,139
190,4325,1,-855,-4803,22,-344,-147,135
191,4319,4,-865,-4800,22,-344,-150,138
192,4318,10,-857,-4799,22,-346,-152,132
193,4318,11,-851,-4800,22,-344,-148,137
194,4322,8,-852,-4800,22,-346,-148,137
195,4325,11,-864,-4799,22,-348,-150,141
196,4324,5,-861,-4800,22,-348,-150,137
197,4321,13,-865,-4798,22,-345,-150,139
198,4314,7,-855,-4792,22,-346,-152,141
199,4315,11,-859,-4798,22,-340,-150,134
200,4317,11,-853,-4798,22,-340,-149,129
201,4320,12,-861,-4794,22,-344,-158,140
202,4315,12,-854,-4798,22,-344,-158,143
203,4314,13,-858,-4801,22,-346,-151,142
204,4309,14,-863,-4803,22,-343,-153,139
205,4309,13,-861,-4796,22,-342,-152,137
206,4317,10,-856,-4798,22,-350,-150,136
207,4310,1,-862,-4804,22,-350,-151,138
208,4310,2,-869,-4802,22,-343,-158,146
209,4318,9,-859,-4798,22,-344,-152,143
210,4318,10,-855,-4798,22,-342,-149,142
211,4320,8,-878,-4801,22,-342,-152,140
212,4322,4,-867,-4797,22,-345,-148,131
213,4313,9,-859,-4801,22,-343,-153,136
214,4312,8,-850,-4799,22,-347,-151,139
215,4322,11,-858,-4795,22,-353,-152,135
216,4322,9,-860,-4793,22,-349,-154,139
217,4316,8,-874,-4796,22,-348,-155,138
218,4314,0,-871,-4797,22,-351,-156,141
219,4307,3,-873,-4797,22,-350,-153,140
220,4327,8,-860,-4794,22,-346,-150,134
221,4320,9,-875,-4799,22,-345,-149,140
222,4313,2,-872,-4795,22,-342,-152,135
223,4317,6,-861,-4801,22,-345,-141,140
224,4325,3,-856,-4798,22,-343,-139,137
225,4326,-2,-868,-4795,22,-344,-149,142
226,4317,2,-871,-4797,22,-342,-147,140
227,4312,8,-868,-4798,22,-347,-148,140
228,4316,1,-862,-4803,22,-342,-152,144
229,4319,0,-857,-4807,22,-348,-148,141
230,4314,9,-852,-4794,22,-345,-149,141
231,4311,4,-869,-4794,22,-345,-155,141
232,4315,4,-861,-4793,22,-346,-145,134
233,4320,3,-869,-4795,22,-344,-154,143
234,4316,5,-861,-4794,22,-344,-154,135
235,4318,9,-858,-4792,22,-349,-155,135
236,4322,5,-872,-4792,22,-354,-150,133
237,4317,-1,-870,-4789,22,-342,-150,136
238,4318,6,-866,-4795,22,-343,-152,141
239,4313,9,-875,-4796,22,-345,-150,136
240,4314,2,-873,-4798,22,-348,-149,141
241,4323,-1,-872,-4798,22,-347,-158,144
242,4310,2,-865,-4801,22,-350,-149,141
243,4311,2,-871,-4797,22,-349,-147,137
244,4314,12,-876,-4795,22,-349,-146,132
245,4319,1,-868,-4794,22,-346,-150,137
246,4327,3,-862,-4793,22,-346,-155,134
247,4317,14,-863,-4791,22,-350,-157,133
248,4320,14,-866,-4793,22,-346,-152,133
249,4323,14,-870,-4794,22,-346,-153,134
250,4319,10,-875,-4790,22,-340,-151,133
251,4316,8,-865,-4788,22,-342,-149,139
252,4314,9,-854,-4792,22,-344,-154,140
253,4322,11,-875,-4788,22,-346,-149,140
254,4311,2,-872,-4787,22,-352,-150,147
255,4315,6,-871,-4791,22,-342,-158,141
256,4311,9,-859,-4797,22,-344,-142,142
257,4310,6,-862,-4792,22,-349,-146,137
258,4314,7,-864,-4793,22,-350,-146,142
259,4324,12,-863,-4790,22,-346,-146,139
260,4315,8,-857,-4788,22,-348,-153,138
261,4317,7,-864,-4789,22,-346,-151,136
262,4318,6,-864,-4796,22,-349,-150,140
263,4321,1,-862,-4789,22,-352,-149,143
264,4318,7,-860,-4789,22,-350,-147,141
265,4314,4,-857,-4788,22,-344,-143,142
266,4312,2,-871,-4786,22,-342,-149,138
267,4314,5,-867,-4787,22,-349,-148,138
268,4313,8,-866,-4789,22,-347,-150,137
269,4313,12,-864,-4790,22,-347,-151,140
270,4317,5,-868,-4788,22,-343,-145,140
271,4321,12,-862,-4784,22,-348,-153,139
272,4315,5,-855,-4792,22,-343,-160,141
273,4318,0,-863,-4792,22,-343,-153,140
274,4320,-4,-863,-4794,22,-341,-156,137
275,4319,0,-874,-4790,22,-346,-150,138
276,4311,13,-872,-4787,22,-344,-148,137
277,4316,1,-869,-4790,22,-338,-152,138
278,4323,3,-855,-4793,22,-335,-142,137
279,4324,4,-873,-4792,22,-339,-150,134
280,4320,7,-859,-4785,22,-340,-157,140
281,4314,7,-855,-4794,22,-347,-154,142
282,4315,8,-850,-4786,22,-348,-155,142
283,4311,10,-869,-4783,22,-348,-153,135
284,4323,6,-864,-4787,22,-348,-151,136
285,4323,11,-864,-4788,22,-348,-154,133
286,4316,11,-863,-4789,22,-350,-153,130
287,4320,12,-871,-4785,22,-352,-154,137
288,4312,5,-871,-4788,22,-348,-152,138
289,4308,7,-867,-4786,22,-348,-154,140
290,4319,2,-860,-4791,22,-338,-148,134
291,4312,8,-864,-4791,22,-344,-150,134
292,4316,10,-863,-4788,22,-339,-152,136
293,4317,13,-872,-4790,22,-342,-150,135
294,4315,5,-855,-4786,22,-347,-158,136
295,4318,7,-856,-4784,22,-343,-147,143
296,4316,11,-859,-4783,22,-346,-155,138
297,4315,8,-858,-4790,22,-351,-147,142
298,4320,6,-863,-4787,22,-355,-148,136
299,4313,2,-851,-4788,22,-349,-143,131
300,4308,5,-860,-4790,22,-344,-143,134
301,4321,6,-859,-4791,22,-354,-150,129
302,4324,10,-858,-4786,22,-350,-145,139
303,4322,11,-867,-4790,22,-347,-150,140
304,4321,9,-862,-4786,22,-347,-151,141
305,4318,6,-857,-4785,22,-347,-146,140
306,4309,0,-855,-4786,22,-346,-153,139
307,4317,6,-860,-4785,22,-344,-153,144
308,4310,10,-870,-4787,22,-353,-147,133
309,4315,5,-871,-4788,22,-345,-153,141
310,4322,9,-853,-4786,22,-340,-153,142
311,4323,5,-855,-4789,22,-345,-146,139
312,4324,2,-843,-4787,22,-348,-154,134
313,4320,6,-857,-4788,22,-353,-153,138
314,4315,12,-852,-4788,22,-348,-152,140
315,4318,4,-861,-4795,22,-347,-148,139
316,4316,1,-862,-4788,22,-351,-149,145
317,4318,12,-858,-4786,22,-348,-149,143
318,4312,7,-860,-4790,22,-344,-144,135
319,4324,3,-861,-4791,22,-338,-144,136
320,4329,4,-853,-4789,22,-351,-150,138
321,4320,6,-854,-4788,22,-344,-149,133
322,4315,6,-853,-4793,22,-345,-151,137
323,4314,5,-857,-4786,22,-347,-154,142
324,4314,-1,-866,-4783,22,-343,-151,139
325,4320,9,-867,-4781,22,-343,-146,140
326,4311,4,-860,-4782,22,-338,-156,136
327,4311,5,-866,-4788,22,-346,-156,134
328,4316,8,-850,-4787,22,-356,-158,140
329,4314,3,-866,-4784,22,-351,-151,140
330,4319,10,-867,-4785,22,-349,-145,143
331,4315,6,-866,-4785,22,-353,-150,138
332,4322,7,-861,-4785,22,-349,-152,142
333,4309,17,-865,-4788,22,-338,-158,141
334,4312,12,-869,-4788,22,-339,-149,138
335,4321,15,-866,-4786,22,-346,-150,145
336,4320,10,-869,-4787,22,-346,-152,142
337,4325,14,-865,-4783,22,-345,-147,139
338,4320,15,-860,-4784,22,-343,-157,140
339,4320,12,-856,-4784,22,-338,-149,137
340,4318,2,-851,-4786,22,-352,-155,139
341,4318,7,-856,-4787,22,-355,-152,146
342,4316,10,-858,-4787,22,-351,-152,140
343,4321,3,-863,-4789,22,-356,-149,143
344,4321,7,-862,-4790,22,-349,-149,139
345,4315,3,-856,-4789,22,-350,-155,135
346,4316,5,-865,-4785,22,-344,-152,136
347,4329,8,-867,-4786,22,-343,-152,138
348,4326,5,-860,-4786,22,-351,-155,131
349,4318,8,-858,-4783,22,-350,-149,137
350,4319,9,-855,-4785,22,-347,-154,135
351,4316,4,-863,-4788,22,-343,-148,136
352,4310,8,-872,-4786,22,-344,-154,138
353,4322,5,-870,-4784,22,-345,-157,138
354,4316,2,-864,-4781,22,-346,-159,132
355,4313,9,-861,-4779,22,-345,-161,141
356,4312,6,-856,-4783,22,-348,-148,133
357,4313,-4,-849,-4778,22,-344,-143,137
358,4315,0,-866,-4780,22,-348,-150,136
359,4322,3,-873,-4777,22,-343,-149,140
360,4317,-2,-867,-4779,22,-342,-151,140
361,4319,12,-867,-4782,22,-347,-154,138
362,4319,5,-873,-4781,22,-340,-148,130
363,4321,9,-864,-4780,22,-345,-153,129
364,4324,1,-866,-4774,22,-340,-151,129
365,4316,-4,-855,-4776,22,-343,-148,138
366,4329,0,-852,-4784,22,-341,-149,138
367,4329,0,-858,-4778,22,-335,-150,138
368,4322,7,-866,-4779,22,-339,-149,144
369,4320,3,-859,-4779,22,-339,-149,140
370,4319,1,-867,-4782,22,-342,-141,140
371,4320,9,-868,-4779,22,-352,-142,140
372,4317,3,-858,-4778,22,-349,-151,137
373,4320,8,-862,-4780,22,-348,-147,136
374,4317,7,-861,-4777,22,-346,-157,137
375,4316,4,-851,-4774,22,-345,-159,137
376,4306,5,-865,-4778,22,-347,-154,144
377,4308,7,-860,-4776,22,-345,-151,138
378,4309,12,-864,-4782,22,-340,-151,136
379,4317,7,-864,-4778,22,-349,-151,137
380,4318,6,-862,-4777,22,-343,-151,137
381,4321,4,-858,-4777,22,-343,-148,139
382,4317,6,-855,-4775,22,-341,-152,134
383,4313,7,-865,-4775,22,-343,-156,133
384,4318,-2,-869,-4781,22,-346,-150,140
385,4326,6,-862,-4778,22,-349,-147,136
386,4317,13,-869,-4779,22,-347,-150,141
387,4312,1,-859,-4775,22,-343,-148,142
388,4317,12,-850,-4780,22,-345,-159,136
389,4316,11,-851,-4774,22,-347,-150,137
390,4315,8,-868,-4777,22,-339,-150,138
391,4320,14,-868,-4768,22,-340,-148,139
392,4320,10,-860,-4775,22,-342,-148,135
393,4320,6,-851,-4771,22,-349,-152,133
394,4315,7,-845,-4778,22,-344,-149,140
395,4311,4,-868,-4775,22,-349,-146,136
396,4311,3,-858,-4774,22,-350,-143,137
397,4319,2,-867,-4774,22,-348,-146,139
398,4316,6,-861,-4776,22,-347,-143,133
399,4313,4,-855,-4774,22,-340,-152,139
400,4316,8,-862,-4773,22,-338,-145,142
401,4316,3,-860,-4777,22,-345,-151,140
402,4320,2,-864,-4776,22,-342,-151,137
403,4323,10,-867,-4778,22,-345,-152,138
404,4317,6,-872,-4781,22,-348,-149,140
405,4321,6,-865,-4778,22,-346,-154,145
406,4329,3,-859,-4774,22,-348,-155,138
407,4333,8,-860,-4777,22,-345,-149,140
408,4324,7,-868,-4780,22,-345,-146,139
409,4320,8,-869,-4779,22,-352,-142,133
410,4321,1,-857,-4774,22,-351,-150,132
411,4318,5,-865,-4778,22,-351,-148,129
412,4321,3,-867,-4769,22,-357,-155,141
413,4327,9,-863,-4776,22,-350,-153,140
414,4322,7,-852,-4775,22,-344,-155,140
415,4326,2,-859,-4780,22,-348,-150,137
416,4319,1,-863,-4779,22,-348,-153,137
417,4317,9,-861,-4776,22,-346,-163,137
418,4324,5,-866,-4780,22,-348,-151,138
419,4323,10,-858,-4780,22,-342,-151,144
420,4319,2,-870,-4771,22,-338,-156,138
421,4314,6,-865,-4770,22,-349,-154,140
422,4319,13,-862,-4772,22,-348,-150,136
423,4315,8,-857,-4782,22,-343,-148,141
424,4318,3,-867,-4779,22,-354,-143,135
425,4324,7,-859,-4773,22,-339,-155,134
426,4321,4,-860,-4770,22,-328,-151,139
427,4312,2,-861,-4777,22,-338,-149,134
428,4308,7,-855,-4776,22,-341,-147,138
429,4313,11,-857,-4777,22,-346,-146,137
430,4308,8,-859,-4774,22,-343,-145,142
431,4312,3,-863,-4773,22,-349,-155,136
432,4322,7,-859,-4772,22,-350,-139,147
433,4322,12,-867,-4774,22,-346,-149,143
434,4319,7,-860,-4774,22,-348,-148,139
435,4309,3,-864,-4775,22,-339,-152,133
436,4313,4,-855,-4773,22,-350,-148,141
437,4316,7,-864,-4775,22,-351,-152,139
438,4316,4,-849,-4774,22,-349,-150,136
439,4318,5,-854,-4778,22,-344,-151,136
440,4315,9,-859,-4774,22,-345,-148,142
441,4321,5,-868,-4776,22,-350,-151,140
442,4316,11,-859,-4772,22,-352,-150,135
443,4323,11,-860,-4773,22,-347,-153,143
444,4329,2,-855,-4772,22,-337,-147,145
445,4327,-3,-851,-4778,22,-335,-149,143
446,4318,4,-861,-4772,22,-339,-160,140
447,4319,3,-859,-4772,22,-350,-153,140
448,4320,4,-866,-4773,22,-348,-148,145
449,4320,8,-854,-4776,22,-348,-147,140
450,4318,7,-866,-4776,22,-351,-152,135
451,4312,11,-873,-4776,22,-344,-151,134
452,4308,9,-864,-4774,22,-344,-147,138
453,4318,7,-858,-4773,22,-341,-150,143
454,4319,8,-862,-4776,22,-345,-144,135
455,4315,10,-868,-4769,22,-333,-145,131
456,4321,6,-865,-4770,22,-343,-147,139
457,4322,6,-866,-4771,22,-345,-151,135
458,4319,11,-871,-4766,22,-345,-144,140
459,4318,9,-863,-4771,22,-348,-148,141
460,4314,7,-860,-4778,22,-343,-146,143
461,4312,5,-852,-4771,22,-351,-136,141
462,4311,7,-860,-4772,22,-351,-146,135
463,4306,-5,-866,-4769,22,-350,-146,134
464,4312,4,-868,-4770,22,-349,-148,138
465,4316,8,-853,-4774,22,-344,-147,136
466,4315,6,-863,-4775,22,-353,-151,133
467,4313,6,-864,-4772,22,-352,-151,133
468,4318,5,-859,-4771,22,-349,-153,139
469,4321,9,-859,-4774,22,-342,-154,140
470,4314,13,-863,-4769,22,-347,-146,140
471,4314,13,-865,-4776,22,-346,-147,139
472,4313,15,-863,-4778,22,-348,-149,144
473,4311,11,-861,-4774,22,-349,-148,142
474,4317,9,-855,-4773,22,-348,-142,138
475,4316,8,-866,-4772,22,-342,-145,145
476,4320,8,-863,-4773,22,-341,-152,149
477,4315,5,-861,-4777,22,-344,-147,140
478,4316,-2,-867,-4772,22,-346,-148,135
479,4321,5,-854,-4778,22,-351,-153,141
480,4323,7,-865,-4771,22,-343,-152,144
481,4320,10,-860,-4776,22,-348,-153,141
482,4318,7,-863,-4773,22,-338,-151,142
483,4318,1,-864,-4768,22,-347,-154,146
484,4313,6,-862,-4771,22,-350,-141,144
485,4320,9,-865,-4773,22,-342,-144,142
486,4321,10,-865,-4768,22,-347,-149,137
487,4315,5,-859,-4771,22,-342,-139,138
488,4313,3,-865,-4773,22,-350,-148,140
489,4309,6,-858,-4767,22,-345,-156,135
490,4316,0,-861,-4767,22,-344,-155,138
491,4315,10,-849,-4772,22,-341,-149,133
492,4314,2,-851,-4771,22,-343,-151,138
493,4321,5,-851,-4773,22,-350,-150,136
494,4322,-1,-861,-4775,22,-348,-150,130
495,4324,4,-861,-4767,22,-348,-145,132
496,4321,7,-848,-4770,22,-347,-155,136
497,4320,11,-859,-4768,22,-347,-156,137
498,4313,8,-855,-4772,22,-346,-152,137
499,4316,6,-856,-4776,22,-349,-148,138
500,4316,4,-861,-4772,22,-344,-144,139
501,4314,11,-861,-4773,22,-345,-142,141
502,4315,1,-868,-4770,22,-352,-150,135
503,4327,-3,-865,-4773,22,-351,-146,136
504,4320,7,-868,-4774,22,-353,-145,144
505,4314,11,-861,-4773,22,-342,-146,139
506,4312,5,-849,-4772,22,-342,-147,141
507,4308,6,-858,-4767,22,-341,-145,139
508,4316,16,-869,-4771,22,-345,-145,141
509,4303,7,-869,-4766,22,-342,-148,142
510,4312,8,-867,-4767,22,-348,-144,139
511,4321,4,-861,-4770,22,-341,-151,140
512,4309,7,-868,-4771,22,-349,-152,139
513,4314,3,-880,-4772,22,-348,-150,138
514,4311,9,-859,-4773,22,-357,-145,139
515,4319,5,-850,-4770,22,-354,-146,142
516,4316,9,-861,-4769,22,-351,-156,139
517,4314,4,-863,-4767,22,-345,-150,142
518,4314,9,-862,-4768,22,-350,-148,135
519,4320,6,-858,-4768,22,-351,-145,137
520,4315,9,-860,-4767,22,-343,-152,138
521,4313,14,-860,-4767,22,-342,-150,146
522,4315,11,-862,-4769,22,-353,-150,140
523,4314,15,-867,-4768,22,-347,-152,138
524,4320,9,-855,-4763,22,-344,-144,141
525,4320,8,-852,-4769,22,-346,-145,140
526,4314,4,-862,-4772,22,-348,-149,145
527,4321,1,-871,-4769,22,-345,-154,140
528,4319,10,-873,-4766,22,-345,-148,143
529,4320,6,-869,-4764,22,-353,-151,139
530,4317,6,-864,-4768,22,-345,-144,139
531,4322,12,-862,-4761,22,-351,-151,136
532,4320,4,-850,-4762,22,-344,-142,135
533,4320,-4,-854,-4764,22,-336,-143,138
534,4318,3,-859,-4768,22,-343,-154,144
535,4316,-3,-865,-4769,22,-346,-149,147
536,4312,7,-856,-4764,22,-345,-152,144
537,4313,4,-868,-4768,22,-342,-146,140
538,4312,2,-869,-4769,22,-345,-146,147
539,4315,2,-870,-4768,22,-340,-149,139
540,4314,4,-864,-4767,22,-340,-153,136
541,4323,8,-864,-4769,22,-350,-154,138
542,4326,9,-855,-4766,22,-345,-151,138
543,4323,6,-868,-4765,22,-339,-151,136
544,4316,9,-872,-4765,22,-347,-151,138
545,4317,6,-861,-4767,22,-346,-157,144
546,4315,11,-869,-4766,22,-347,-154,137
547,4321,9,-862,-4763,22,-347,-154,137
548,4315,6,-870,-4764,22,-347,-161,136
549,4316,12,-863,-4767,22,-347,-160,142
550,4315,6,-859,-4775,22,-349,-150,141
551,4318,3,-861,-4770,22,-346,-149,141
552,4320,4,-855,-4775,22,-339,-153,136
553,4308,1,-862,-4767,22,-340,-154,138
554,4313,1,-869,-4766,22,-343,-145,140
555,4312,6,-876,-4765,22,-349,-147,135
556,4317,11,-855,-4770,22,-350,-148,144
557,4323,16,-855,-4770,22,-355,-150,138
558,4324,9,-852,-4764,22,-350,-152,133
559,4316,4,-874,-4764,22,-347,-152,140
560,4314,8,-871,-4764,22,-341,-150,133
561,4323,5,-866,-4763,22,-346,-146,134
562,4314,11,-865,-4768,22,-340,-143,137
563,4309,5,-870,-4765,22,-337,-144,138
564,4324,6,-868,-4768,22,-343,-148,140
565,4315,14,-869,-4768,22,-344,-149,151
566,4317,8,-867,-4768,22,-347,-148,144
567,4318,10,-871,-4769,22,-347,-153,140
568,4315,1,-867,-4766,22,-353,-147,135
569,4309,5,-864,-4763,22,-349,-154,128
570,4311,4,-866,-4768,22,-345,-154,137
571,4316,5,-872,-4768,22,-346,-147,134
572,4320,1,-868,-4765,22,-337,-143,133
573,4326,9,-864,-4765,22,-343,-144,136
574,4326,2,-867,-4767,22,-350,-152,141
575,4321,7,-857,-4765,22,-348,-139,136
576,4312,12,-869,-4761,22,-349,-145,133
577,4316,7,-870,-4758,23,-342,-145,143
578,4314,4,-867,-4764,22,-343,-152,143
579,4316,3,-860,-4760,22,-342,-151,141
580,4315,-1,-871,-4765,22,-341,-151,143
581,4319,4,-864,-4769,22,-340,-155,139
582,4315,4,-851,-4763,22,-341,-148,143
583,4315,12,-865,-4763,22,-344,-149,138
584,4315,13,-858,-4766,22,-345,-146,138
585,4320,13,-864,-4770,22,-341,-138,144
586,4318,6,-869,-4772,22,-348,-150,141
587,4315,-1,-866,-4767,22,-347,-144,139
588,4321,4,-858,-4758,23,-352,-152,133
589,4318,10,-861,-4762,22,-343,-152,148
590,4317,6,-856,-4761,22,-347,-140,143
591,4318,8,-863,-4760,22,-343,-147,138
592,4321,5,-863,-4762,22,-342,-147,139
593,4323,7,-855,-4760,22,-343,-151,137
594,4314,0,-858,-4762,22,-342,-147,135
595,4316,6,-863,-4765,22,-344,-144,140
596,4316,12,-858,-4756,23,-345,-150,143
597,4316,7,-864,-4765,22,-344,-153,140
598,4317,4,-868,-4762,22,-349,-146,143
599,4318,6,-872,-4763,22,-352,-150,141
600,4317,2,-866,-4762,22,-352,-144,139
601,4313,4,-868,-4758,23,-351,-152,140
602,4315,10,-867,-4758,23,-349,-156,146
603,4313,11,-869,-4758,23,-346,-157,142
604,4314,13,-858,-4765,22,-342,-158,138
605,4310,11,-857,-4763,22,-343,-155,142
606,4311,3,-864,-4761,22,-341,-155,144
607,4313,8,-866,-4763,22,-344,-152,137
608,4320,8,-861,-4760,22,-347,-151,136
609,4323,6,-860,-4761,22,-340,-146,134
610,4319,9,-868,-4763,22,-344,-156,134
611,4325,8,-857,-4769,22,-344,-150,134
612,4321,3,-865,-4761,22,-342,-153,139
613,4317,4,-866,-4764,22,-345,-154,135
614,4309,6,-869,-4757,23,-353,-147,139
615,4313,5,-871,-4763,22,-352,-145,141
616,4318,7,-860,-4762,22,-346,-146,139
617,4315,7,-868,-4761,22,-349,-150,138
618,4307,2,-860,-4765,22,-343,-148,140
619,4317,-5,-871,-4764,22,-347,-146,142
620,4316,-1,-865,-4766,22,-353,-151,142
621,4317,-1,-869,-4763,22,-345,-156,138
622,4309,7,-860,-4761,22,-342,-147,139
623,4314,13,-863,-4767,22,-343,-143,133
624,4317,-1,-863,-4767,22,-347,-143,134
625,4320,4,-873,-4766,22,-341,-144,138
626,4322,8,-869,-4762,22,-343,-150,141
627,4319,7,-863,-4770,22,-346,-146,138
628,4320,6,-867,-4767,22,-348,-152,137
629,4317,6,-857,-4770,22,-355,-148,145
630,4310,7,-856,-4768,22,-342,-151,146
631,4317,5,-864,-4774,22,-342,-155,138
632,4313,8,-860,-4770,22,-346,-143,133
633,4311,11,-860,-4764,22,-346,-140,139
634,4314,9,-872,-4759,23,-350,-152,137
635,4314,0,-858,-4757,23,-348,-145,140
636,4312,4,-860,-4763,22,-351,-155,137
637,4320,7,-851,-4764,22,-345,-151,138
638,4316,7,-860,-4765,22,-345,-149,142
639,4313,10,-865,-4768,22,-350,-157,137
640,4313,14,-868,-4762,22,-353,-154,140
641,4321,8,-863,-4767,22,-352,-144,143
642,4321,12,-868,-4766,22,-346,-142,138
643,4328,8,-856,-4763,22,-348,-147,140
644,4317,4,-853,-4764,22,-339,-150,135
645,4317,12,-856,-4763,22,-341,-148,129
646,4320,8,-862,-4762,22,-336,-153,131
647,4310,0,-852,-4765,22,-337,-151,142
648,4320,3,-860,-4765,22,-341,-147,139
649,4311,5,-859,-4760,22,-349,-148,145
650,4315,1,-865,-4759,23,-346,-150,147
651,4317,2,-861,-4760,22,-349,-150,136
652,4320,5,-858,-4763,22,-349,-148,140
653,4318,6,-850,-4765,22,-345,-154,140
654,4324,2,-859,-4764,22,-347,-153,143
655,4321,6,-867,-4765,22,-349,-156,136
656,4324,6,-873,-4765,22,-347,-152,142
657,4319,8,-861,-4763,22,-352,-148,141
658,4323,7,-863,-4762,22,-352,-151,135
659,4318,2,-869,-4757,23,-346,-143,137
660,4323,4,-874,-4763,22,-347,-147,137
661,4316,15,-873,-4763,22,-342,-146,131
662,4315,6,-865,-4762,22,-345,-153,139
663,4315,11,-866,-4764,22,-349,-149,137
664,4317,14,-866,-4762,22,-343,-147,136
665,4311,6,-852,-4757,23,-355,-147,135
666,4317,2,-856,-4754,23,-344,-150,137
667,4326,11,-856,-4758,23,-342,-150,129
668,4324,15,-868,-4760,22,-349,-145,142
669,4323,9,-860,-4762,22,-347,-153,137
670,4319,-2,-865,-4758,23,-347,-157,140
671,4324,1,-856,-4759,23,-350,-147,136
672,4314,6,-849,-4765,22,-345,-150,136
673,4314,6,-854,-4767,22,-352,-149,137
674,4316,6,-858,-4765,22,-348,-152,134
675,4313,5,-858,-4758,23,-339,-148,142
676,4322,3,-870,-4762,22,-347,-153,141
677,4321,2,-868,-4759,23,-348,-149,144
678,4319,4,-858,-4757,23,-338,-154,140
679,4319,2,-870,-4756,23,-341,-146,146
680,4319,5,-865,-4761,22,-347,-148,148
681,4307,7,-864,-4763,22,-348,-145,143
682,4314,4,-860,-4764,22,-344,-139,139
683,4317,8,-868,-4758,23,-343,-147,138
684,4304,7,-869,-4760,22,-345,-154,141
685,4313,14,-857,-4763,22,-343,-146,147
686,4321,13,-864,-4763,22,-346,-149,141
687,4318,7,-867,-4760,22,-342,-145,147
688,4318,7,-871,-4764,22,-347,-156,144
689,4317,12,-857,-4763,22,-348,-156,138
690,4318,5,-861,-4761,22,-345,-152,136
691,4319,1,-859,-4759,23,-347,-151,132
692,4312,-3,-855,-4756,23,-336,-149,138
693,4317,4,-860,-4753,23,-339,-156,139
694,4324,5,-852,-4755,23,-342,-161,139
695,4317,-1,-859,-4755,23,-347,-152,143
696,4314,6,-865,-4760,22,-349,-150,140
697,4317,8,-859,-4757,23,-354,-151,137
698,4324,5,-870,-4765,22,-348,-154,143
699,4317,9,-868,-4762,22,-349,-151,136
700,4311,3,-867,-4761,22,-343,-156,138
701,4312,3,-862,-4761,22,-341,-147,141
702,4315,1,-864,-4755,23,-346,-153,140
703,4321,7,-856,-4754,23,-342,-151,139
704,4317,12,-857,-4761,22,-345,-151,139
705,4322,5,-858,-4762,22,-346,-150,142
706,4314,3,-855,-4756,23,-345,-152,141
707,4316,11,-854,-4760,22,-343,-157,136
708,4317,7,-854,-4763,22,-348,-146,136
709,4313,9,-871,-4759,23,-345,-150,143
710,4315,6,-864,-4761,22,-348,-145,135
711,4319,6,-859,-4762,22,-343,-148,144
712,4321,11,-863,-4758,23,-345,-153,134
713,4320,13,-872,-4762,22,-344,-150,144
714,4322,5,-874,-4762,22,-355,-153,137
715,4321,4,-869,-4763,22,-349,-153,136
716,4321,0,-871,-4760,22,-351,-157,140
717,4310,7,-861,-4755,23,-343,-148,141
718,4316,17,-864,-4758,23,-342,-151,140
719,4319,13,-857,-4766,22,-342,-148,138
720,4318,13,-865,-4757,23,-341,-154,138
721,4317,2,-860,-4757,23,-346,-150,137
722,4321,-1,-861,-4758,23,-346,-150,139
723,4323,12,-854,-4759,23,-346,-146,135
724,4317,2,-863,-4763,22,-353,-141,136
725,4316,5,-855,-4760,22,-352,-144,141
726,4328,6,-853,-4762,22,-350,-146,142
727,4321,-5,-862,-4762,22,-344,-144,139
728,4313,7,-861,-4764,22,-349,-154,146
729,4312,9,-865,-4760,22,-349,-147,139
730,4318,10,-857,-4761,22,-343,-148,138
731,4322,6,-865,-4753,23,-346,-147,136
732,4321,6,-868,-4754,23,-346,-142,140
733,4310,3,-853,-4755,23,-346,-146,138
734,4311,16,-862,-4764,22,-342,-146,140
735,4325,10,-860,-4763,22,-334,-151,145
736,4320,10,-873,-4762,22,-341,-151,143
737,4316,10,-867,-4758,23,-346,-150,143
738,4314,8,-849,-4754,23,-338,-152,145
739,4318,1,-854,-4759,23,-341,-149,138
740,4319,8,-855,-4756,23,-346,-154,141
741,4314,9,-857,-4754,23,-349,-153,143
742,4314,11,-863,-4763,22,-347,-153,140
743,4317,18,-860,-4762,22,-342,-142,140
744,4321,7,-861,-4757,23,-340,-157,143
745,4324,7,-866,-4754,23,-345,-153,143
746,4328,6,-867,-4758,23,-342,-153,140
747,4318,2,-867,-4762,22,-342,-149,146
748,4316,6,-868,-4756,23,-346,-154,140
749,4316,9,-862,-4755,23,-344,-153,134
750,4316,8,-864,-4764,22,-346,-155,129
751,4326,6,-864,-4758,23,-343,-153,142
752,4318,0,-861,-4756,23,-343,-154,139
753,4319,-4,-862,-4759,23,-337,-154,143
754,4314,6,-862,-4758,23,-339,-153,138
755,4311,-3,-863,-4757,23,-337,-150,139
756,4319,-3,-856,-4761,22,-344,-156,146
757,4319,6,-860,-4761,22,-343,-147,144
758,4321,11,-859,-4759,23,-344,-150,144
759,4324,14,-860,-4759,23,-341,-149,138
760,4315,8,-865,-4753,23,-343,-141,137
761,4316,4,-859,-4759,23,-341,-150,139
762,4318,7,-856,-4761,22,-350,-144,142
763,4319,13,-856,-4757,23,-345,-149,140
764,4314,7,-868,-4762,22,-349,-146,141
765,4322,3,-865,-4758,23,-345,-149,138
766,4324,4,-859,-4756,23,-350,-149,144
767,4325,2,-861,-4758,23,-346,-146,137
768,4319,2,-866,-4761,22,-347,-148,144
769,4318,10,-859,-4756,23,-350,-148,141
770,4318,10,-856,-4754,23,-348,-152,138
771,4321,6,-857,-4759,23,-340,-152,139
772,4316,1,-865,-4757,23,-339,-158,137
773,4315,-2,-857,-4757,23,-347,-155,135
774,4310,2,-867,-4759,23,-346,-148,143
775,4320,6,-856,-4752,23,-346,-143,135
776,4318,14,-854,-4759,23,-356,-146,135
777,4318,10,-868,-4762,22,-355,-158,142
778,4323,12,-860,-4761,22,-344,-154,139
779,4314,5,-855,-4760,22,-343,-143,138
780,4312,6,-872,-4756,23,-345,-156,141
781,4311,4,-871,-4760,22,-343,-150,141
782,4316,6,-862,-4760,22,-342,-150,137
783,4315,6,-861,-4766,22,-347,-151,137
784,4317,14,-860,-4755,23,-343,-150,135
785,4308,9,-855,-4753,23,-348,-148,138
786,4313,14,-861,-4760,22,-347,-144,142
787,4316,9,-857,-4757,23,-347,-146,141
788,4315,9,-863,-4760,22,-334,-146,146
789,4312,6,-857,-4758,23,-342,-143,140
790,4319,4,-865,-4754,23,-352,-145,136
791,4320,1,-870,-4754,23,-344,-144,137
792,4313,4,-856,-4751,23,-341,-137,133
793,4322,3,-854,-4754,23,-351,-147,136
794,4314,2,-867,-4754,23,-335,-149,140
795,4326,1,-865,-4751,23,-349,-148,135
796,4318,5,-854,-4752,23,-346,-151,133
797,4321,8,-865,-4755,23,-346,-147,133
798,4312,7,-855,-4754,23,-346,-146,136
799,4314,12,-863,-4754,23,-345,-147,136
800,4315,9,-861,-4757,23,-349,-158,135
801,4314,12,-862,-4754,23,-346,-158,138
802,4310,15,-859,-4757,23,-347,-154,141
803,4323,15,-856,-4754,23,-346,-151,143
804,4320,12,-867,-4763,22,-349,-141,147
805,4313,13,-865,-4755,23,-343,-152,140
806,4317,16,-875,-4755,23,-345,-151,141
807,4318,5,-872,-4759,23,-345,-152,142
808,4320,13,-859,-4757,23,-337,-151,140
809,4315,4,-852,-4756,23,-344,-151,138
810,4319,4,-853,-4754,23,-341,-141,139
811,4319,5,-852,-4757,23,-337,-150,143
812,4319,10,-861,-4752,23,-346,-148,139
813,4315,2,-860,-4757,23,-348,-153,133
814,4320,11,-860,-4754,23,-343,-142,136
815,4318,7,-856,-4755,23,-344,-153,136
816,4318,8,-865,-4755,23,-345,-149,137
817,4307,5,-862,-4756,23,-347,-147,142
818,4307,4,-861,-4757,23,-351,-148,140
819,4317,4,-870,-4755,23,-347,-144,134
820,4321,6,-864,-4760,22,-347,-146,137
821,4317,7,-862,-4758,23,-349,-150,138
822,4317,2,-871,-4753,23,-342,-150,139
823,4318,12,-859,-4758,23,-341,-148,140
824,4318,4,-864,-4757,23,-348,-151,133
825,4320,5,-857,-4753,23,-352,-150,137
826,4318,11,-860,-4755,23,-342,-151,140
827,4313,6,-858,-4757,23,-346,-157,135
828,4315,6,-851,-4758,23,-343,-143,136
829,4310,4,-864,-4757,23,-343,-142,140
830,4308,4,-868,-4752,23,-340,-147,144
831,4307,10,-868,-4755,23,-342,-151,143
832,4313,11,-868,-4761,22,-343,-153,147
833,4318,14,-861,-4758,23,-343,-153,142
834,4312,16,-862,-4758,23,-348,-151,138
835,4313,5,-862,-4753,23,-343,-149,139
836,4326,8,-860,-4753,23,-350,-148,145
837,4319,12,-862,-4754,23,-349,-152,140
838,4314,19,-859,-4752,23,-341,-149,138
839,4313,14,-863,-4755,23,-339,-153,138
840,4311,8,-866,-4760,22,-337,-152,137
841,4318,0,-861,-4758,23,-346,-150,137
842,4320,-1,-857,-4755,23,-346,-149,137
843,4313,4,-864,-4755,23,-343,-146,137
844,4315,3,-859,-4753,23,-347,-156,141
845,4311,9,-869,-4754,23,-348,-155,141
846,4324,8,-871,-4753,23,-344,-150,138
847,4313,3,-871,-4754,23,-341,-152,139
848,4323,7,-860,-4753,23,-349,-150,136
849,4327,3,-871,-4754,23,-352,-148,137
850,4319,10,-869,-4748,23,-340,-145,141
851,4318,7,-869,-4753,23,-346,-146,138
852,4316,3,-868,-4759,23,-344,-142,138
853,4319,5,-872,-4752,23,-343,-143,138
854,4322,8,-860,-4751,23,-345,-143,136
855,4320,3,-857,-4755,23,-338,-148,142
856,4322,7,-866,-4753,23,-343,-153,142
857,4323,7,-859,-4752,23,-348,-154,135
858,4321,8,-870,-4754,23,-346,-152,144
859,4316,5,-861,-4756,23,-346,-149,135
860,4325,2,-868,-4757,23,-346,-148,136
861,4317,5,-871,-4756,23,-351,-148,145
862,4312,-1,-880,-4753,23,-344,-149,147
863,4312,5,-870,-4754,23,-348,-148,140
864,4313,10,-874,-4752,23,-350,-151,143
865,4318,8,-871,-4752,23,-344,-144,146
866,4321,5,-860,-4753,23,-340,-140,144
867,4323,4,-862,-4758,23,-345,-138,139
868,4318,-1,-865,-4758,23,-335,-146,134
869,4318,8,-864,-4755,23,-341,-159,136
870,4313,10,-867,-4754,23,-354,-154,137
871,4312,4,-856,-4754,23,-344,-141,134
872,4311,2,-861,-4751,23,-344,-150,137
873,4315,-2,-849,-4757,23,-341,-155,137
874,4316,6,-848,-4754,23,-346,-155,142
875,4323,0,-862,-4755,23,-344,-148,135
876,4322,9,-860,-4755,23,-344,-152,143
877,4331,3,-864,-4752,23,-345,-150,141
878,4322,8,-863,-4751,23,-342,-139,140
879,4318,7,-867,-4760,22,-336,-145,136
880,4315,2,-866,-4761,22,-350,-141,135
881,4318,3,-863,-4753,23,-346,-148,139
882,4314,4,-871,-4754,23,-343,-144,136
883,4315,-3,-857,-4756,23,-340,-144,135
884,4316,-1,-854,-4753,23,-341,-150,141
885,4315,5,-856,-4756,23,-345,-152,138
886,4317,8,-860,-4753,23,-349,-154,143
887,4317,11,-849,-4756,23,-350,-155,141
888,4322,16,-861,-4757,23,-348,-154,144
889,4323,9,-851,-4751,23,-343,-154,142
890,4316,2,-849,-4749,23,-340,-155,135
891,4313,6,-852,-4752,23,-347,-157,133
892,4314,8,-862,-4751,23,-347,-157,138
893,4323,5,-859,-4752,23,-350,-151,140
894,4319,11,-861,-4749,23,-340,-146,136
895,4320,12,-865,-4750,23,-336,-153,133
896,4320,14,-862,-4750,23,-336,-154,135
897,4314,13,-873,-4752,23,-346,-157,136
898,4316,9,-874,-4755,23,-339,-154,133
899,4311,10,-858,-4755,23,-342,-154,135
900,4316,9,-864,-4755,23,-344,-152,134
901,4317,9,-853,-4756,23,-344,-155,140
902,4313,4,-850,-4755,23,-344,-155,145
903,4318,6,-857,-4752,23,-344,-155,142
904,4315,4,-865,-4753,23,-341,-152,142
905,4317,6,-858,-4752,23,-348,-154,143
906,4321,4,-866,-4750,23,-350,-154,143
907,4320,0,-868,-4755,23,-345,-151,141
908,4317,8,-866,-4753,23,-349,-144,141
909,4324,5,-856,-4751,23,-350,-147,138
910,4317,4,-868,-4750,23,-350,-151,142
911,4309,5,-855,-4751,23,-352,-150,144
912,4310,7,-859,-4750,23,-350,-149,140
913,4312,18,-853,-4748,23,-349,-148,143
914,4313,7,-863,-4751,23,-346,-150,145
915,4319,6,-852,-4751,23,-346,-149,140
916,4315,7,-861,-4750,23,-339,-146,142
917,4311,4,-855,-4744,23,-346,-136,145
918,4320,10,-875,-4746,23,-345,-147,140
919,4324,3,-874,-4748,23,-346,-150,134
920,4320,5,-867,-4748,23,-350,-158,139
921,4318,11,-865,-4747,23,-352,-159,144
922,4321,10,-866,-4744,23,-341,-148,141
923,4318,0,-864,-4749,23,-346,-150,138
924,4315,-1,-861,-4751,23,-346,-148,133
925,4320,7,-854,-4755,23,-343,-151,132
926,4321,5,-855,-4751,23,-345,-153,131
927,4316,7,-851,-4750,23,-342,-151,142
928,4322,12,-853,-4751,23,-347,-141,135
929,4315,15,-862,-4747,23,-342,-143,137
930,4323,10,-864,-4744,23,-343,-142,142
931,4324,7,-867,-4746,23,-342,-145,143
932,4319,7,-855,-4747,23,-343,-152,139
933,4317,11,-861,-4748,23,-346,-144,136
934,4318,3,-865,-4747,23,-344,-143,138
935,4324,4,-867,-4753,23,-343,-150,144
936,4317,9,-861,-4750,23,-342,-147,146
937,4318,15,-868,-4751,23,-344,-147,145
938,4313,7,-870,-4752,23,-342,-155,135
939,4313,2,-862,-4752,23,-348,-149,138
940,4313,1,-861,-4750,23,-351,-155,135
941,4320,5,-862,-4747,23,-342,-151,138
942,4318,17,-857,-4750,23,-346,-149,140
943,4314,10,-858,-4750,23,-345,-151,140
944,4313,5,-865,-4755,23,-349,-147,140
945,4315,7,-857,-4751,23,-343,-150,136
946,4313,12,-862,-4751,23,-343,-152,139
947,4314,18,-857,-4752,23,-348,-149,139
948,4322,16,-865,-4755,23,-348,-153,138
949,4321,4,-873,-4751,23,-347,-153,142
950,4320,10,-867,-4746,23,-348,-150,143
951,4324,9,-863,-4750,23,-350,-147,143
952,4320,10,-852,-4748,23,-352,-150,142
953,4312,7,-852,-4756,23,-343,-146,141
954,4316,0,-847,-4753,23,-340,-154,137
955,4318,5,-861,-4748,23,-345,-156,139
956,4311,0,-866,-4751,23,-346,-157,137
957,4317,8,-863,-4746,23,-343,-170,135
958,4318,7,-853,-4751,23,-342,-157,139
959,4320,18,-866,-4749,23,-340,-152,134
960,4320,11,-861,-4750,23,-351,-152,135
961,4318,11,-853,-4745,23,-347,-153,140
962,4310,8,-864,-4747,23,-351,-146,142
963,4318,13,-870,-4750,23,-351,-146,138
964,4316,8,-871,-4749,23,-345,-148,140
965,4320,-2,-868,-4748,23,-342,-155,140
966,4325,3,-867,-4749,23,-341,-155,141
967,4321,9,-871,-4750,23,-348,-156,138
968,4317,13,-863,-4752,23,-343,-147,136
969,4317,4,-861,-4751,23,-340,-147,143
970,4318,8,-869,-4754,23,-341,-148,146
971,4316,2,-865,-4749,23,-344,-144,147
972,4318,4,-864,-4754,23,-344,-140,139
973,4320,1,-864,-4751,23,-352,-150,137
974,4321,10,-873,-4747,23,-346,-150,144
975,4312,4,-867,-4752,23,-351,-155,143
976,4314,-1,-867,-4754,23,-354,-159,137
977,4313,0,-861,-4750,23,-342,-148,138
978,4317,6,-860,-4751,23,-338,-146,144
979,4315,5,-860,-4750,23,-346,-153,141
980,4311,-2,-865,-4747,23,-340,-153,145
981,4315,5,-857,-4750,23,-337,-155,140
982,4321,1,-869,-4750,23,-343,-148,137
983,4316,6,-870,-4749,23,-338,-148,137
984,4316,4,-861,-4750,23,-342,-147,139
985,4312,-3,-860,-4753,23,-342,-145,142
986,4315,2,-853,-4757,23,-347,-155,139
987,4316,3,-858,-4755,23,-347,-156,144
988,4315,3,-870,-4747,23,-347,-150,138
989,4322,4,-875,-4750,23,-347,-148,139
990,4322,6,-870,-4750,23,-346,-148,139
991,4311,5,-869,-4753,23,-345,-148,145
992,4315,7,-859,-4750,23,-343,-149,140
993,4315,7,-856,-4755,23,-342,-152,140
994,4320,1,-869,-4760,22,-345,-155,142
995,4317,4,-859,-4754,23,-354,-153,140
