,acc_X,acc_Y,acc_Z,temp,tempC,gyr_X,gyr_Y,gyr_Z
0,2160,1,-430,-4692,23,-349,-153,136
1,2160,0,-429,-4692,23,-346,-152,136
2,2159,1,-430,-4691,23,-347,-153,138
3,2160,1,-429,-4691,23,-345,-153,137
4,2161,2,-429,-4690,23,-345,-151,138
5,2160,2,-430,-4689,23,-347,-152,139
6,2161,2,-430,-4689,23,-347,-153,139
7,2161,0,-431,-4687,23,-346,-152,139
8,2161,1,-429,-4687,23,-347,-152,142
9,2161,0,-429,-4688,23,-344,-151,142
10,2162,0,-428,-4689,23,-344,-150,145
11,2161,1,-429,-4690,23,-345,-150,145
12,2160,1,-428,-4689,23,-344,-151,145
13,2160,0,-427,-4689,23,-344,-151,143
14,2161,1,-428,-4692,23,-346,-148,142
15,2161,2,-428,-4691,23,-347,-147,143
16,2160,1,-429,-4692,23,-345,-147,142
17,2161,2,-428,-4693,23,-346,-146,140
18,2161,1,-430,-4694,23,-344,-147,139
19,2161,2,-429,-4693,23,-347,-145,139
20,2161,1,-427,-4692,23,-346,-145,137
21,2160,0,-426,-4692,23,-346,-146,139
22,2160,1,-426,-4692,23,-345,-147,141
23,2159,1,-428,-4691,23,-344,-148,142
24,2160,1,-429,-4692,23,-345,-151,141
25,2159,1,-429,-4693,23,-346,-151,142
26,2160,1,-429,-4693,23,-347,-154,141
27,2159,1,-429,-4695,23,-346,-154,138
28,2159,-1,-428,-4692,23,-346,-155,137
29,2160,0,-427,-4691,23,-346,-157,137
30,2160,-1,-429,-4691,23,-348,-157,138
31,2159,-1,-430,-4690,23,-347,-157,137
32,2160,-1,-428,-4690,23,-350,-157,138
33,2159,0,-427,-4689,23,-350,-156,138
34,2158,0,-427,-4690,23,-348,-158,136
35,2160,0,-428,-4690,23,-348,-157,137
36,2159,2,-429,-4689,23,-346,-158,137
37,2158,2,-429,-4689,23,-347,-157,135
38,2159,2,-428,-4691,23,-345,-155,136
39,2158,1,-430,-4692,23,-349,-155,136
40,2160,0,-431,-4691,23,-347,-155,137
41,2158,1,-430,-4692,23,-344,-155,137
42,2159,2,-430,-4692,23,-345,-153,139
43,2159,2,-428,-4692,23,-344,-152,138
44,2159,2,-427,-4694,23,-346,-152,138
45,2158,1,-425,-4695,23,-347,-152,137
46,2158,1,-427,-4696,23,-348,-152,138
47,2159,2,-427,-4694,23,-347,-152,139
48,2158,2,-427,-4694,23,-347,-150,140
49,2158,1,-427,-4692,23,-346,-149,143
50,2158,1,-428,-4691,23,-344,-150,141
51,2158,2,-428,-4691,23,-346,-149,141
52,2159,3,-427,-4692,23,-345,-145,142
53,2158,2,-428,-4692,23,-347,-143,142
54,2157,2,-427,-4692,23,-345,-145,143
55,2157,1,-426,-4691,23,-344,-147,141
56,2157,1,-425,-4691,23,-343,-148,140
57,2157,1,-425,-4693,23,-345,-151,140
58,2155,1,-426,-4692,23,-345,-151,140
59,2155,1,-425,-4691,23,-342,-152,142
60,2155,0,-425,-4693,23,-343,-149,144
61,2157,0,-424,-4692,23,-344,-151,144
62,2159,-1,-423,-4693,23,-342,-149,145
63,2160,0,-425,-4694,23,-342,-148,144
64,2159,0,-426,-4695,23,-345,-149,141
65,2159,-1,-426,-4693,23,-345,-149,138
66,2158,0,-425,-4693,23,-347,-149,137
67,2159,2,-424,-4692,23,-347,-151,136
68,2159,2,-425,-4691,23,-347,-152,135
69,2158,1,-427,-4692,23,-346,-152,136
70,2158,1,-427,-4691,23,-345,-153,135
71,2159,1,-427,-4691,23,-346,-154,136
72,2159,1,-427,-4693,23,-347,-151,138
73,2159,2,-427,-4693,23,-347,-153,136
74,2160,2,-428,-4692,23,-347,-151,136
75,2159,1,-430,-4693,23,-347,-153,137
76,2159,1,-430,-4693,23,-348,-153,137
77,2158,0,-430,-4694,23,-348,-153,137
78,2159,0,-430,-4692,23,-345,-152,135
79,2159,1,-430,-4694,23,-347,-154,135
80,2159,2,-430,-4693,23,-346,-155,135
81,2160,0,-429,-4694,23,-346,-155,136
82,2160,0,-430,-4695,23,-347,-154,134
83,2159,1,-428,-4695,23,-345,-154,135
84,2159,0,-429,-4694,23,-344,-156,138
85,2158,1,-428,-4693,23,-344,-154,140
86,2159,2,-430,-4692,23,-344,-154,140
87,2159,1,-430,-4692,23,-344,-152,141
88,2159,0,-431,-4693,23,-347,-150,142
89,2161,-1,-431,-4693,23,-345,-147,142
90,2160,-2,-431,-4693,23,-347,-147,139
91,2160,-2,-433,-4695,23,-349,-149,140
92,2159,0,-433,-4697,23,-345,-150,140
93,2160,0,-431,-4696,23,-345,-150,138
94,2159,0,-431,-4696,23,-344,-151,140
95,2160,1,-431,-4696,23,-345,-149,140
96,2160,0,-429,-4694,23,-346,-149,141
97,2159,0,-429,-4695,23,-345,-148,142
98,2158,1,-429,-4695,23,-345,-147,141
99,2159,2,-429,-4694,23,-344,-148,141
100,2159,2,-428,-4694,23,-343,-148,140
101,2158,1,-429,-4693,23,-343,-148,139
102,2157,2,-429,-4692,23,-345,-149,137
103,2157,2,-429,-4693,23,-346,-147,138
104,2157,2,-430,-4693,23,-345,-150,138
105,2157,2,-430,-4693,23,-346,-150,137
106,2157,2,-429,-4694,23,-345,-152,138
107,2157,3,-428,-4692,23,-346,-151,140
108,2157,3,-429,-4693,23,-343,-149,140
109,2158,3,-428,-4692,23,-342,-151,139
110,2158,3,-429,-4692,23,-343,-153,139
111,2158,3,-430,-4693,23,-344,-153,139
112,2158,2,-431,-4694,23,-344,-156,137
113,2158,3,-430,-4693,23,-344,-156,138
114,2158,3,-431,-4691,23,-344,-155,138
115,2158,2,-431,-4692,23,-343,-157,139
116,2157,2,-430,-4693,23,-343,-156,137
117,2157,1,-429,-4693,23,-343,-152,138
118,2158,0,-428,-4694,23,-345,-154,138
119,2158,1,-428,-4695,23,-345,-153,139
120,2159,1,-427,-4694,23,-343,-151,139
121,2159,1,-427,-4694,23,-342,-152,139
122,2160,1,-427,-4695,23,-343,-154,139
123,2160,1,-428,-4695,23,-345,-152,141
124,2159,1,-428,-4694,23,-346,-152,144
125,2160,0,-429,-4693,23,-347,-153,142
126,2160,0,-429,-4692,23,-345,-152,143
127,2159,0,-430,-4693,23,-346,-152,144
128,2158,0,-429,-4694,23,-345,-151,143
129,2160,1,-428,-4693,23,-345,-150,142
130,2160,1,-427,-4694,23,-348,-147,141
131,2161,2,-427,-4694,23,-346,-149,140
132,2161,0,-427,-4694,23,-346,-151,141
133,2162,-1,-428,-4695,23,-346,-152,143
134,2160,1,-426,-4695,23,-344,-150,143
135,2160,2,-427,-4694,23,-343,-150,144
136,2160,1,-427,-4694,23,-343,-149,145
137,2160,2,-429,-4694,23,-344,-150,145
138,2159,0,-427,-4695,23,-346,-149,146
139,2160,0,-426,-4693,23,-346,-150,144
140,2160,0,-426,-4692,23,-346,-150,143
141,2160,-1,-425,-4692,23,-344,-150,141
142,2160,-2,-425,-4694,23,-344,-151,141
143,2160,-1,-424,-4691,23,-344,-150,140
144,2158,1,-425,-4692,23,-343,-151,139
145,2159,0,-426,-4693,23,-343,-152,139
146,2159,0,-424,-4694,23,-343,-157,141
147,2159,0,-425,-4693,23,-345,-157,142
148,2158,-1,-426,-4692,23,-344,-155,142
149,2159,-2,-428,-4691,23,-345,-152,141
150,2159,-2,-428,-4689,23,-346,-152,140
151,2159,-1,-428,-4689,23,-344,-154,140
152,2159,0,-428,-4688,23,-344,-153,139
153,2159,1,-428,-4688,23,-343,-153,139
154,2160,0,-427,-4690,23,-343,-153,141
155,2160,-1,-428,-4691,23,-344,-153,141
156,2160,-1,-429,-4692,23,-344,-156,138
157,2159,-1,-428,-4691,23,-341,-155,140
158,2160,0,-429,-4692,23,-343,-152,140
159,2160,0,-428,-4694,23,-342,-150,141
160,2159,-1,-430,-4693,23,-344,-154,141
161,2159,-1,-431,-4691,23,-341,-150,140
162,2158,1,-430,-4691,23,-343,-152,142
163,2158,1,-430,-4690,23,-345,-151,140
164,2159,1,-430,-4689,23,-342,-152,138
165,2159,0,-431,-4689,23,-344,-153,137
166,2159,1,-432,-4689,23,-346,-150,138
167,2159,1,-433,-4689,23,-346,-151,138
168,2158,1,-430,-4689,23,-346,-149,140
169,2157,2,-429,-4688,23,-346,-149,139
170,2157,1,-428,-4689,23,-347,-151,140
171,2157,2,-427,-4688,23,-347,-151,140
172,2159,3,-428,-4688,23,-346,-148,144
173,2159,3,-429,-4688,23,-345,-149,141
174,2158,2,-429,-4690,23,-345,-148,143
175,2158,0,-429,-4691,23,-345,-150,143
176,2158,0,-429,-4693,23,-344,-148,144
177,2158,0,-429,-4694,23,-343,-147,140
178,2158,0,-428,-4694,23,-343,-148,143
179,2157,0,-428,-4693,23,-343,-149,142
180,2158,1,-427,-4692,23,-344,-154,143
181,2159,0,-426,-4692,23,-346,-153,143
182,2160,0,-427,-4692,23,-347,-153,141
183,2159,1,-428,-4694,23,-347,-151,142
184,2158,1,-430,-4693,23,-345,-152,140
185,2158,1,-429,-4695,23,-346,-151,138
186,2158,1,-428,-4694,23,-346,-151,138
187,2159,2,-427,-4695,23,-346,-149,140
188,2159,1,-427,-4694,23,-346,-147,141
189,2160,1,-426,-4694,23,-347,-148,141
190,2159,2,-426,-4694,23,-346,-148,141
191,2159,3,-425,-4693,23,-346,-149,141
192,2159,2,-427,-4693,23,-345,-150,139
193,2160,1,-427,-4692,23,-345,-148,140
194,2159,1,-428,-4694,23,-345,-150,138
195,2159,0,-428,-4693,23,-348,-149,139
196,2160,2,-427,-4692,23,-346,-149,139
197,2160,3,-427,-4693,23,-346,-151,139
198,2160,1,-426,-4693,23,-344,-150,137
199,2161,2,-428,-4693,23,-342,-153,137
200,2160,2,-429,-4691,23,-344,-153,135
201,2159,2,-429,-4692,23,-345,-154,136
202,2159,2,-428,-4693,23,-346,-152,138
203,2159,3,-428,-4694,23,-349,-150,138
204,2158,3,-428,-4696,23,-348,-150,140
205,2158,2,-427,-4696,23,-348,-152,137
206,2157,2,-429,-4695,23,-346,-152,135
207,2157,2,-430,-4695,23,-344,-153,136
208,2158,2,-430,-4693,23,-345,-152,137
209,2159,2,-430,-4693,23,-345,-151,137
210,2159,2,-430,-4693,23,-345,-150,136
211,2157,3,-430,-4694,23,-345,-151,137
212,2157,3,-432,-4695,23,-345,-149,139
213,2157,4,-430,-4694,23,-345,-150,140
214,2158,3,-430,-4694,23,-344,-148,140
215,2159,3,-429,-4694,23,-344,-149,140
216,2159,3,-428,-4694,23,-344,-149,140
217,2158,3,-429,-4694,23,-344,-148,140
218,2158,2,-427,-4695,23,-347,-147,142
219,2158,2,-428,-4696,23,-347,-147,141
220,2158,1,-428,-4695,23,-346,-149,142
221,2158,3,-428,-4694,23,-349,-151,141
222,2158,2,-428,-4694,23,-350,-153,141
223,2160,2,-428,-4694,23,-348,-152,142
224,2160,3,-427,-4694,23,-347,-153,143
225,2160,4,-428,-4691,23,-347,-155,143
226,2160,2,-428,-4692,23,-346,-155,143
227,2160,1,-426,-4691,23,-345,-152,143
228,2160,2,-427,-4690,23,-345,-149,140
229,2159,2,-426,-4690,23,-346,-149,142
230,2160,2,-429,-4692,23,-348,-149,140
231,2161,2,-427,-4694,23,-346,-150,139
232,2162,2,-426,-4694,23,-345,-152,137
233,2161,1,-425,-4693,23,-346,-154,136
234,2161,1,-427,-4692,23,-345,-153,136
235,2160,0,-428,-4693,23,-345,-155,138
236,2159,0,-428,-4692,23,-346,-156,138
237,2159,-1,-427,-4692,23,-344,-155,138
238,2159,-1,-427,-4692,23,-345,-154,138
239,2159,0,-428,-4693,23,-345,-152,139
240,2158,0,-427,-4689,23,-345,-150,139
241,2158,0,-428,-4691,23,-346,-152,139
242,2159,0,-426,-4691,23,-346,-153,139
243,2158,1,-426,-4692,23,-346,-153,139
244,2159,0,-428,-4693,23,-347,-156,141
245,2158,1,-429,-4692,23,-348,-156,140
246,2158,2,-429,-4692,23,-347,-155,141
247,2159,3,-430,-4693,23,-346,-152,141
248,2159,1,-429,-4691,23,-345,-150,139
249,2158,2,-430,-4690,23,-346,-151,139
250,2158,1,-429,-4690,23,-345,-151,138
251,2157,0,-427,-4690,23,-347,-150,138
252,2157,-1,-428,-4689,23,-347,-150,138
253,2157,0,-429,-4692,23,-348,-150,136
254,2157,-1,-429,-4690,23,-346,-149,137
255,2157,1,-429,-4692,23,-345,-149,137
256,2158,-1,-429,-4693,23,-346,-148,137
257,2158,0,-428,-4692,23,-345,-149,136
258,2159,1,-427,-4692,23,-346,-150,138
259,2159,2,-427,-4692,23,-343,-148,138
260,2160,1,-428,-4693,23,-345,-149,140
261,2158,1,-430,-4693,23,-346,-149,140
262,2160,1,-430,-4695,23,-346,-148,140
263,2159,2,-431,-4694,23,-344,-149,139
264,2160,2,-431,-4694,23,-345,-150,138
265,2160,1,-429,-4695,23,-346,-151,141
266,2159,1,-429,-4694,23,-345,-152,140
267,2159,1,-429,-4694,23,-345,-154,138
268,2158,1,-428,-4693,23,-346,-152,139
269,2157,1,-427,-4692,23,-347,-151,139
270,2156,3,-426,-4693,23,-347,-152,140
271,2156,3,-425,-4694,23,-347,-153,140
272,2157,2,-426,-4693,23,-348,-152,142
273,2157,1,-428,-4692,23,-348,-153,140
274,2157,2,-427,-4692,23,-346,-154,138
275,2158,3,-427,-4694,23,-345,-154,138
276,2156,3,-426,-4692,23,-344,-154,140
277,2156,3,-427,-4691,23,-344,-152,140
278,2155,3,-426,-4692,23,-344,-150,141
279,2156,3,-426,-4691,23,-344,-152,142
280,2157,3,-427,-4693,23,-345,-152,141
281,2157,3,-427,-4693,23,-346,-150,140
282,2156,3,-427,-4692,23,-345,-150,141
283,2156,2,-429,-4693,23,-348,-150,139
284,2156,2,-429,-4690,23,-347,-150,140
285,2157,1,-429,-4692,23,-346,-151,141
286,2157,0,-430,-4691,23,-347,-151,139
287,2158,0,-431,-4691,23,-345,-150,139
288,2158,0,-430,-4690,23,-345,-150,139
289,2160,0,-430,-4689,23,-345,-151,140
290,2159,0,-427,-4690,23,-344,-152,140
291,2159,1,-427,-4688,23,-343,-151,140
292,2159,0,-427,-4689,23,-344,-151,142
293,2159,0,-429,-4692,23,-344,-150,142
294,2160,2,-427,-4694,23,-343,-149,141
295,2160,1,-427,-4693,23,-344,-150,143
296,2160,1,-428,-4693,23,-344,-150,141
297,2159,1,-428,-4694,23,-345,-152,141
298,2159,1,-428,-4692,23,-348,-154,139
299,2160,1,-427,-4693,23,-346,-153,139
300,2161,0,-426,-4692,23,-343,-152,141
301,2162,-1,-428,-4693,23,-344,-152,142
302,2162,-1,-429,-4692,23,-344,-153,142
303,2162,0,-430,-4692,23,-344,-154,144
304,2161,0,-430,-4692,23,-342,-151,142
305,2160,1,-429,-4692,23,-342,-150,142
306,2160,2,-429,-4691,23,-346,-148,140
307,2159,1,-431,-4691,23,-344,-150,139
308,2158,1,-433,-4692,23,-346,-148,139
309,2158,1,-432,-4692,23,-345,-153,140
310,2158,2,-430,-4692,23,-346,-151,140
311,2158,1,-430,-4689,23,-346,-152,139
312,2158,1,-431,-4690,23,-345,-149,138
313,2158,1,-431,-4691,23,-344,-149,139
314,2157,1,-430,-4691,23,-344,-149,139
315,2157,-1,-428,-4690,23,-344,-151,138
316,2156,0,-428,-4689,23,-343,-152,138
317,2157,0,-428,-4691,23,-343,-152,138
318,2157,0,-429,-4691,23,-343,-152,137
319,2157,1,-427,-4692,23,-343,-152,138
320,2157,2,-429,-4692,23,-342,-152,136
321,2157,3,-428,-4693,23,-343,-151,137
322,2156,3,-426,-4693,23,-343,-150,136
323,2157,2,-428,-4693,23,-344,-149,134
324,2157,2,-427,-4692,23,-346,-152,136
325,2157,1,-427,-4691,23,-348,-153,135
326,2157,0,-428,-4690,23,-347,-155,137
327,2157,1,-427,-4690,23,-345,-156,139
328,2157,1,-429,-4691,23,-342,-155,140
329,2158,1,-428,-4692,23,-341,-153,139
330,2158,1,-429,-4693,23,-340,-151,140
331,2158,0,-430,-4693,23,-342,-150,141
332,2159,1,-430,-4692,23,-343,-148,141
333,2159,0,-429,-4693,23,-345,-149,139
334,2159,0,-427,-4691,23,-346,-148,140
335,2159,-1,-428,-4691,23,-346,-150,142
336,2160,0,-430,-4691,23,-347,-148,141
337,2159,0,-432,-4690,23,-345,-148,140
338,2160,0,-432,-4690,23,-344,-149,138
339,2160,-1,-430,-4688,23,-346,-151,137
340,2160,-2,-430,-4691,23,-344,-153,136
341,2159,-2,-430,-4692,23,-345,-153,136
342,2160,-1,-429,-4692,23,-345,-152,137
343,2160,-1,-430,-4690,23,-345,-152,137
344,2159,-1,-428,-4689,23,-344,-153,139
345,2159,-2,-428,-4690,23,-343,-152,139
346,2159,-1,-427,-4689,23,-345,-152,139
347,2159,0,-427,-4689,23,-343,-152,140
348,2160,1,-428,-4688,23,-343,-154,139
349,2160,1,-430,-4688,23,-343,-151,140
350,2159,1,-430,-4690,23,-344,-150,140
351,2159,1,-428,-4690,23,-345,-150,142
352,2159,1,-429,-4689,23,-346,-150,140
353,2159,1,-427,-4691,23,-346,-149,140
354,2161,2,-426,-4691,23,-347,-149,140
355,2161,2,-428,-4692,23,-349,-150,141
356,2161,2,-428,-4693,23,-345,-152,141
357,2160,1,-429,-4694,23,-347,-151,143
358,2159,2,-430,-4695,23,-347,-152,141
359,2158,2,-427,-4693,23,-347,-152,141
360,2158,3,-427,-4692,23,-347,-152,139
361,2158,3,-426,-4691,23,-347,-152,140
362,2158,3,-426,-4689,23,-344,-153,140
363,2157,3,-428,-4686,23,-345,-154,138
364,2157,2,-430,-4688,23,-345,-153,139
365,2157,2,-429,-4689,23,-343,-150,140
366,2157,1,-430,-4689,23,-345,-150,142
367,2156,0,-430,-4689,23,-346,-151,143
368,2158,1,-428,-4689,23,-345,-152,141
369,2158,-1,-426,-4689,23,-345,-153,142
370,2157,0,-427,-4689,23,-343,-151,141
371,2158,1,-429,-4690,23,-342,-152,141
372,2157,0,-429,-4689,23,-342,-151,141
373,2158,1,-432,-4688,23,-342,-149,143
374,2159,0,-430,-4686,23,-340,-152,143
375,2158,-1,-429,-4686,23,-339,-153,142
376,2159,-2,-431,-4686,23,-341,-153,140
377,2159,-1,-429,-4687,23,-345,-150,140
378,2158,-1,-429,-4686,23,-345,-151,141
379,2158,-1,-428,-4687,23,-346,-151,142
380,2158,0,-426,-4685,23,-347,-152,144
381,2159,0,-428,-4685,23,-349,-154,142
382,2159,1,-429,-4685,23,-347,-154,142
383,2159,0,-430,-4685,23,-346,-155,142
384,2160,0,-431,-4686,23,-344,-154,141
385,2160,0,-431,-4689,23,-347,-152,142
386,2160,0,-430,-4689,23,-348,-153,138
387,2159,0,-430,-4689,23,-346,-152,138
388,2159,-1,-431,-4689,23,-345,-153,142
389,2159,0,-430,-4690,23,-346,-151,140
390,2158,0,-430,-4689,23,-345,-151,142
391,2159,0,-430,-4689,23,-346,-152,143
392,2158,1,-430,-4689,23,-347,-151,144
393,2158,1,-431,-4692,23,-346,-149,143
394,2157,1,-431,-4692,23,-344,-149,143
395,2157,1,-432,-4692,23,-346,-152,142
396,2157,0,-433,-4690,23,-345,-150,141
397,2158,1,-432,-4690,23,-345,-149,142
398,2157,1,-430,-4689,23,-346,-151,139
399,2159,0,-430,-4688,23,-345,-153,139
400,2158,1,-430,-4688,23,-346,-152,140
401,2158,1,-429,-4688,23,-345,-151,139
402,2157,1,-428,-4689,23,-345,-151,142
403,2157,0,-429,-4690,23,-345,-153,141
404,2158,0,-428,-4687,23,-344,-153,141
405,2158,1,-428,-4687,23,-344,-152,143
406,2159,0,-427,-4688,23,-343,-150,142
407,2160,0,-426,-4688,23,-342,-149,143
408,2160,0,-427,-4687,23,-344,-148,142
409,2160,0,-429,-4685,23,-346,-146,141
410,2159,0,-428,-4687,23,-346,-146,141
411,2159,0,-427,-4687,23,-347,-147,142
412,2159,0,-429,-4689,23,-348,-146,143
413,2160,1,-429,-4689,23,-347,-146,139
414,2161,2,-430,-4686,23,-346,-146,140
415,2160,1,-430,-4687,23,-346,-147,138
416,2158,2,-428,-4688,23,-347,-147,137
417,2158,2,-430,-4687,23,-344,-147,137
418,2158,2,-428,-4687,23,-344,-148,139
419,2158,1,-427,-4685,23,-346,-147,137
420,2158,2,-427,-4686,23,-346,-146,135
421,2159,2,-428,-4686,23,-346,-149,135
422,2158,2,-427,-4684,23,-346,-149,138
423,2158,1,-428,-4686,23,-345,-149,138
424,2159,1,-429,-4686,23,-345,-152,140
425,2159,2,-428,-4686,23,-345,-150,141
426,2160,1,-427,-4686,23,-345,-149,141
427,2160,1,-429,-4687,23,-346,-149,140
428,2159,1,-432,-4688,23,-346,-153,140
429,2158,1,-432,-4687,23,-347,-153,141
430,2158,2,-432,-4688,23,-347,-154,143
431,2160,2,-430,-4688,23,-348,-152,143
432,2160,1,-429,-4688,23,-349,-153,142
433,2160,0,-427,-4688,23,-347,-149,141
434,2160,0,-426,-4687,23,-347,-150,139
435,2160,0,-425,-4687,23,-345,-149,139
436,2159,1,-425,-4687,23,-346,-150,140
437,2159,2,-425,-4687,23,-345,-151,138
438,2160,1,-426,-4690,23,-346,-152,139
439,2159,1,-427,-4691,23,-346,-153,140
440,2160,3,-428,-4690,23,-346,-151,141
441,2160,2,-429,-4687,23,-347,-151,139
442,2159,2,-430,-4687,23,-347,-151,142
443,2159,2,-429,-4689,23,-346,-151,142
444,2160,2,-432,-4687,23,-347,-152,141
445,2160,1,-433,-4686,23,-345,-153,138
446,2159,0,-433,-4689,23,-344,-156,137
447,2159,1,-433,-4688,23,-342,-155,137
448,2158,0,-432,-4687,23,-342,-153,138
449,2159,0,-428,-4688,23,-344,-151,138
450,2159,1,-429,-4688,23,-346,-150,137
451,2159,1,-429,-4688,23,-347,-150,139
452,2160,2,-428,-4687,23,-343,-150,136
453,2159,2,-427,-4689,23,-342,-150,138
454,2159,1,-425,-4690,23,-341,-150,141
455,2159,0,-427,-4691,23,-340,-149,140
456,2159,0,-426,-4690,23,-344,-151,138
457,2158,0,-428,-4689,23,-345,-152,140
458,2158,-1,-427,-4689,23,-346,-152,141
459,2158,0,-431,-4688,23,-345,-150,138
460,2159,0,-429,-4688,23,-346,-152,139
461,2159,0,-426,-4685,23,-348,-150,139
462,2159,1,-425,-4685,23,-348,-149,142
463,2159,1,-426,-4684,23,-345,-146,141
464,2158,0,-425,-4686,23,-344,-150,141
465,2158,-1,-428,-4684,23,-343,-148,143
466,2158,0,-428,-4685,23,-346,-150,144
467,2159,-1,-428,-4686,23,-344,-150,142
468,2158,-2,-429,-4688,23,-342,-149,142
469,2159,-1,-427,-4690,23,-342,-152,137
470,2158,1,-428,-4689,23,-343,-152,139
471,2158,1,-428,-4688,23,-342,-153,137
472,2159,2,-429,-4688,23,-343,-152,138
473,2159,2,-428,-4687,23,-343,-152,137
474,2160,2,-425,-4687,23,-341,-151,139
475,2160,2,-425,-4688,23,-339,-150,141
476,2159,3,-424,-4690,23,-339,-152,139
477,2158,2,-427,-4689,23,-341,-152,139
478,2158,3,-427,-4688,23,-344,-152,140
479,2158,1,-426,-4689,23,-344,-154,139
480,2157,0,-426,-4687,23,-347,-153,139
481,2157,0,-426,-4687,23,-346,-152,137
482,2157,1,-428,-4688,23,-345,-152,138
483,2157,0,-428,-4691,23,-346,-149,139
484,2159,0,-428,-4690,23,-345,-149,138
485,2157,0,-429,-4691,23,-347,-151,138
486,2157,0,-429,-4691,23,-345,-150,137
487,2157,0,-430,-4691,23,-343,-152,138
488,2157,0,-431,-4689,23,-343,-153,139
489,2159,-1,-432,-4689,23,-343,-152,141
490,2158,0,-431,-4689,23,-344,-153,142
491,2160,0,-429,-4689,23,-345,-152,143
492,2160,1,-429,-4689,23,-346,-148,142
493,2160,-1,-429,-4689,23,-345,-148,142
494,2159,0,-432,-4690,23,-348,-148,141
495,2159,0,-429,-4689,23,-346,-148,142
496,2160,0,-429,-4688,23,-348,-148,142
497,2159,0,-430,-4688,23,-347,-150,140
498,2158,0,-429,-4689,23,-346,-152,140
499,2158,1,-428,-4689,23,-346,-154,141
500,2160,1,-428,-4689,23,-345,-156,140
501,2160,1,-427,-4690,23,-346,-157,142
502,2159,1,-428,-4689,23,-344,-154,141
503,2157,1,-428,-4689,23,-343,-155,138
504,2159,2,-429,-4689,23,-344,-154,137
505,2159,2,-428,-4688,23,-344,-153,137
506,2158,0,-425,-4691,23,-343,-152,139
507,2159,0,-425,-4691,23,-342,-148,138
508,2159,0,-425,-4690,23,-343,-150,136
509,2160,-1,-425,-4691,23,-341,-151,139
510,2160,1,-426,-4691,23,-341,-151,141
511,2160,2,-425,-4690,23,-343,-151,141
512,2159,3,-426,-4690,23,-345,-150,141
513,2159,1,-427,-4691,23,-343,-152,140
514,2160,2,-429,-4691,23,-344,-151,139
515,2160,1,-430,-4690,23,-344,-149,138
516,2161,0,-428,-4688,23,-345,-152,139
517,2159,1,-428,-4690,23,-346,-153,138
518,2160,0,-427,-4691,23,-348,-152,139
519,2160,0,-428,-4689,23,-347,-152,140
520,2159,-1,-427,-4690,23,-345,-152,138
521,2158,1,-428,-4689,23,-345,-153,140
522,2158,1,-428,-4688,23,-345,-153,141
523,2158,2,-429,-4686,23,-345,-151,140
524,2159,1,-430,-4687,23,-347,-151,140
525,2159,0,-430,-4686,23,-347,-151,139
526,2158,0,-429,-4687,23,-347,-150,138
527,2159,0,-429,-4687,23,-347,-151,139
528,2160,2,-429,-4689,23,-348,-152,139
529,2159,1,-428,-4687,23,-348,-152,141
530,2159,1,-428,-4688,23,-348,-152,141
531,2158,1,-428,-4688,23,-349,-151,142
532,2159,1,-429,-4688,23,-349,-151,141
533,2158,2,-428,-4686,23,-347,-151,140
534,2159,2,-428,-4687,23,-347,-149,139
535,2160,3,-428,-4688,23,-343,-148,139
536,2160,3,-428,-4688,23,-344,-151,140
537,2159,3,-429,-4689,23,-346,-149,139
538,2159,2,-429,-4689,23,-347,-149,140
539,2159,3,-430,-4688,23,-346,-147,139
540,2159,2,-431,-4691,23,-347,-149,140
541,2159,1,-430,-4690,23,-346,-148,140
542,2159,2,-429,-4691,23,-345,-149,141
543,2159,2,-428,-4690,23,-347,-148,142
544,2159,2,-427,-4689,23,-347,-147,141
545,2158,3,-429,-4689,23,-347,-148,141
546,2157,2,-430,-4688,23,-348,-146,141
547,2157,2,-430,-4689,23,-348,-146,138
548,2157,2,-429,-4687,23,-348,-149,137
549,2157,1,-428,-4686,23,-347,-147,138
550,2158,0,-429,-4686,23,-346,-149,139
551,2158,0,-428,-4686,23,-346,-151,138
552,2159,1,-426,-4688,23,-345,-151,137
553,2159,1,-428,-4689,23,-347,-151,138
554,2158,1,-427,-4688,23,-348,-153,139
555,2159,1,-426,-4689,23,-348,-151,138
556,2158,1,-428,-4690,23,-349,-152,140
557,2158,2,-429,-4690,23,-348,-152,140
558,2158,2,-429,-4691,23,-349,-152,140
559,2158,1,-428,-4689,23,-347,-153,142
560,2158,0,-429,-4686,23,-346,-153,141
561,2158,0,-429,-4684,23,-345,-151,142
562,2158,0,-428,-4685,23,-346,-148,138
563,2158,1,-429,-4684,23,-346,-149,140
564,2159,2,-428,-4685,23,-346,-152,140
565,2159,2,-429,-4686,23,-345,-152,137
566,2160,1,-429,-4687,23,-344,-151,137
567,2160,1,-429,-4686,23,-345,-150,138
568,2161,1,-430,-4685,23,-343,-150,139
569,2160,1,-432,-4685,23,-343,-150,140
570,2160,1,-430,-4685,23,-344,-149,142
571,2160,1,-430,-4686,23,-345,-150,141
572,2160,-1,-429,-4685,23,-345,-149,142
573,2160,-1,-429,-4687,23,-345,-150,142
574,2159,-1,-430,-4686,23,-343,-150,143
575,2159,-1,-429,-4687,23,-344,-151,141
576,2159,-1,-429,-4687,23,-344,-147,140
577,2159,-1,-429,-4687,23,-345,-148,139
578,2157,0,-427,-4687,23,-345,-149,140
579,2158,-2,-427,-4685,23,-346,-149,139
580,2158,0,-429,-4685,23,-347,-150,138
581,2158,0,-430,-4683,23,-348,-150,140
582,2160,1,-429,-4684,23,-349,-152,142
583,2160,2,-430,-4684,23,-350,-151,142
584,2161,2,-430,-4687,23,-348,-153,143
585,2161,1,-429,-4689,23,-348,-152,142
586,2162,0,-428,-4689,23,-348,-153,143
587,2160,1,-427,-4689,23,-346,-154,142
588,2160,2,-425,-4688,23,-346,-155,142
589,2159,2,-426,-4688,23,-343,-154,143
590,2159,1,-425,-4688,23,-342,-151,140
591,2159,2,-427,-4688,23,-343,-150,139
592,2159,1,-427,-4688,23,-342,-150,139
593,2159,2,-428,-4687,23,-343,-149,140
594,2159,1,-427,-4688,23,-343,-149,139
595,2159,1,-427,-4690,23,-344,-151,140
596,2159,0,-427,-4690,23,-343,-150,139
597,2158,0,-426,-4689,23,-342,-149,139
598,2159,0,-428,-4689,23,-342,-150,140
599,2158,-1,-430,-4688,23,-344,-151,140
600,2159,0,-431,-4689,23,-345,-151,139
601,2160,1,-430,-4687,23,-345,-149,140
602,2160,0,-429,-4687,23,-348,-151,140
603,2159,1,-428,-4689,23,-347,-150,141
604,2158,1,-431,-4689,23,-345,-152,137
605,2157,1,-429,-4690,23,-344,-153,134
606,2157,0,-428,-4691,23,-343,-148,136
607,2158,1,-429,-4690,23,-344,-147,138
608,2158,0,-427,-4688,23,-346,-148,139
609,2159,0,-428,-4687,23,-345,-151,140
610,2159,0,-426,-4687,23,-344,-151,141
611,2159,1,-425,-4688,23,-344,-150,141
612,2159,1,-427,-4689,23,-344,-149,140
613,2160,2,-428,-4691,23,-346,-148,140
614,2159,2,-428,-4689,23,-345,-151,140
615,2158,2,-430,-4690,23,-342,-150,139
616,2158,2,-430,-4692,23,-342,-151,138
617,2158,1,-429,-4693,23,-341,-152,139
618,2160,2,-429,-4690,23,-341,-151,140
619,2159,1,-428,-4689,23,-343,-149,141
620,2159,1,-429,-4691,23,-342,-150,140
621,2158,-1,-430,-4690,23,-345,-151,140
622,2158,0,-428,-4691,23,-343,-150,140
623,2159,-1,-427,-4691,23,-343,-149,141
624,2158,-1,-428,-4690,23,-344,-150,139
625,2158,0,-426,-4691,23,-344,-149,139
626,2157,0,-428,-4690,23,-344,-149,139
627,2158,1,-430,-4689,23,-345,-147,140
628,2156,0,-430,-4687,23,-344,-146,141
629,2157,1,-428,-4688,23,-342,-145,143
630,2157,1,-428,-4687,23,-343,-147,141
631,2158,1,-428,-4686,23,-344,-148,139
632,2158,0,-428,-4685,23,-344,-145,139
633,2159,0,-428,-4685,23,-346,-146,141
634,2159,0,-427,-4687,23,-347,-147,141
635,2158,1,-429,-4688,23,-348,-148,141
636,2158,1,-430,-4687,23,-346,-147,140
637,2157,1,-430,-4686,23,-344,-148,140
638,2158,2,-430,-4686,23,-344,-150,139
639,2158,3,-431,-4684,23,-342,-147,140
640,2157,1,-430,-4685,23,-342,-149,140
641,2157,0,-430,-4687,23,-341,-150,140
642,2159,1,-430,-4687,23,-343,-147,139
643,2159,1,-431,-4688,23,-342,-148,137
644,2159,2,-430,-4687,23,-345,-151,137
645,2160,2,-429,-4687,23,-347,-152,137
646,2160,1,-430,-4685,23,-345,-151,139
647,2159,1,-430,-4686,23,-348,-149,141
648,2159,2,-428,-4687,23,-345,-150,141
649,2158,1,-428,-4686,23,-346,-149,141
650,2158,1,-428,-4687,23,-345,-150,141
651,2157,1,-429,-4686,23,-344,-150,139
652,2159,1,-429,-4686,23,-343,-145,141
653,2160,2,-429,-4685,23,-343,-146,139
654,2161,1,-429,-4685,23,-346,-146,138
655,2159,1,-430,-4684,23,-345,-147,138
656,2158,0,-430,-4684,23,-344,-148,135
657,2157,1,-427,-4683,23,-342,-148,138
658,2157,1,-428,-4684,23,-342,-151,138
659,2159,1,-426,-4684,23,-345,-153,139
660,2159,0,-427,-4685,23,-345,-153,141
661,2160,0,-429,-4684,23,-345,-154,142
662,2161,1,-430,-4686,23,-343,-152,142
663,2160,1,-429,-4684,23,-346,-153,143
664,2159,1,-429,-4684,23,-346,-153,142
665,2160,3,-430,-4686,23,-344,-155,142
666,2159,2,-431,-4685,23,-344,-156,139
667,2160,2,-430,-4686,23,-344,-151,141
668,2160,2,-428,-4687,23,-341,-150,141
669,2159,2,-428,-4688,23,-344,-152,141
670,2159,1,-427,-4687,23,-345,-153,139
671,2158,0,-430,-4687,23,-344,-153,137
672,2156,0,-431,-4688,23,-346,-153,138
673,2156,1,-431,-4688,23,-346,-153,139
674,2158,2,-431,-4688,23,-345,-150,140
675,2157,1,-429,-4687,23,-346,-150,139
676,2158,2,-429,-4686,23,-348,-151,139
677,2159,0,-430,-4686,23,-347,-152,140
678,2161,0,-429,-4688,23,-348,-151,141
679,2161,0,-429,-4688,23,-348,-151,143
680,2161,-1,-430,-4688,23,-347,-150,141
681,2159,0,-430,-4686,23,-345,-151,139
682,2158,1,-430,-4688,23,-348,-152,141
683,2159,0,-428,-4688,23,-347,-152,142
684,2160,0,-428,-4689,23,-346,-154,140
685,2161,0,-428,-4689,23,-346,-151,142
686,2160,1,-428,-4689,23,-344,-150,140
687,2160,1,-429,-4689,23,-343,-150,139
688,2160,1,-427,-4687,23,-343,-152,141
689,2159,2,-426,-4687,23,-342,-153,141
690,2159,2,-425,-4687,23,-344,-152,139
691,2159,2,-426,-4687,23,-346,-152,140
692,2159,2,-426,-4685,23,-343,-154,140
693,2160,1,-427,-4687,23,-345,-153,140
694,2159,1,-428,-4685,23,-344,-152,140
695,2160,1,-428,-4686,23,-342,-151,141
696,2158,0,-428,-4687,23,-342,-149,138
697,2158,0,-428,-4689,23,-343,-150,137
698,2157,1,-429,-4689,23,-343,-149,134
699,2159,2,-429,-4690,23,-342,-151,135
700,2159,1,-429,-4691,23,-344,-149,138
701,2157,1,-430,-4690,23,-342,-152,139
702,2157,1,-432,-4690,23,-344,-150,138
703,2158,1,-432,-4690,23,-343,-149,139
704,2159,1,-432,-4691,23,-344,-150,138
705,2159,1,-431,-4691,23,-343,-151,139
706,2158,1,-431,-4691,23,-344,-150,137
707,2158,1,-431,-4691,23,-345,-150,137
708,2158,2,-430,-4692,23,-343,-152,136
709,2158,1,-429,-4691,23,-343,-150,138
710,2158,1,-428,-4690,23,-346,-151,140
711,2158,1,-428,-4690,23,-345,-150,139
712,2159,1,-427,-4690,23,-344,-150,139
713,2159,0,-430,-4690,23,-344,-149,138
714,2160,-1,-430,-4688,23,-345,-148,139
715,2160,0,-431,-4688,23,-347,-151,140
716,2160,0,-430,-4688,23,-346,-151,140
717,2159,1,-431,-4686,23,-346,-151,140
718,2160,1,-430,-4686,23,-344,-150,138
719,2159,1,-430,-4683,23,-346,-151,138
720,2158,1,-429,-4685,23,-346,-151,138
721,2159,2,-428,-4684,23,-349,-150,137
722,2158,2,-428,-4683,23,-346,-151,138
723,2159,1,-427,-4684,23,-346,-151,139
724,2160,1,-428,-4684,23,-345,-152,140
725,2159,0,-427,-4685,23,-344,-152,140
726,2160,0,-428,-4686,23,-343,-152,140
727,2160,0,-427,-4686,23,-342,-153,141
728,2159,1,-427,-4685,23,-342,-150,142
729,2159,1,-426,-4685,23,-344,-151,140
730,2159,1,-426,-4684,23,-346,-152,141
731,2159,0,-427,-4684,23,-343,-152,139
732,2159,0,-426,-4685,23,-344,-152,138
733,2159,0,-424,-4685,23,-346,-150,139
734,2159,1,-425,-4684,23,-342,-148,138
735,2159,1,-426,-4684,23,-340,-149,136
736,2158,1,-427,-4686,23,-340,-149,135
737,2158,1,-428,-4685,23,-343,-150,138
738,2159,1,-428,-4685,23,-342,-150,139
739,2159,1,-430,-4683,23,-343,-150,140
740,2158,1,-431,-4683,23,-345,-150,141
741,2157,1,-430,-4685,23,-344,-152,139
742,2157,1,-428,-4686,23,-343,-152,139
743,2156,0,-428,-4687,23,-346,-150,139
744,2156,0,-429,-4688,23,-348,-148,138
745,2158,0,-428,-4687,23,-348,-149,139
746,2157,0,-429,-4689,23,-346,-149,139
747,2157,1,-429,-4688,23,-345,-151,139
748,2160,0,-428,-4689,23,-345,-150,139
749,2158,0,-429,-4687,23,-345,-151,140
750,2158,0,-427,-4687,23,-345,-150,140
751,2159,0,-427,-4687,23,-343,-151,142
752,2158,0,-427,-4687,23,-343,-150,141
753,2158,1,-426,-4685,23,-345,-149,142
754,2158,2,-427,-4685,23,-347,-150,142
755,2157,1,-426,-4685,23,-347,-151,142
756,2157,2,-428,-4687,23,-346,-153,141
757,2159,1,-427,-4687,23,-345,-153,143
758,2159,0,-427,-4688,23,-346,-156,142
759,2158,0,-426,-4687,23,-346,-156,143
760,2158,0,-427,-4686,23,-348,-154,145
761,2158,0,-430,-4687,23,-346,-157,144
762,2158,0,-429,-4687,23,-347,-154,143
763,2158,0,-429,-4688,23,-345,-154,142
764,2158,1,-428,-4685,23,-345,-153,141
765,2159,0,-428,-4685,23,-343,-154,142
766,2159,1,-428,-4683,23,-345,-151,142
767,2159,0,-429,-4683,23,-347,-151,141
768,2158,0,-429,-4684,23,-347,-152,142
769,2158,-1,-428,-4683,23,-348,-153,142
770,2158,-1,-429,-4684,23,-349,-151,143
771,2160,1,-430,-4682,23,-350,-150,143
772,2159,2,-430,-4683,23,-348,-148,143
773,2159,0,-431,-4683,23,-347,-149,141
774,2160,0,-430,-4683,23,-346,-150,140
775,2159,-1,-430,-4684,23,-344,-151,139
776,2159,0,-431,-4684,23,-344,-153,140
777,2158,0,-428,-4683,23,-343,-152,140
778,2158,0,-429,-4680,23,-344,-152,139
779,2158,0,-428,-4680,23,-346,-151,138
780,2158,0,-429,-4680,23,-345,-151,138
781,2158,0,-430,-4682,23,-344,-152,138
782,2157,0,-430,-4680,23,-345,-151,139
783,2158,1,-430,-4679,23,-345,-149,139
784,2158,2,-428,-4679,23,-345,-149,140
785,2159,0,-428,-4680,23,-347,-151,140
786,2158,0,-429,-4681,23,-348,-151,139
787,2158,0,-428,-4681,23,-346,-153,139
788,2158,0,-428,-4681,23,-347,-150,139
789,2158,1,-426,-4682,23,-346,-149,139
790,2158,2,-426,-4682,23,-345,-149,137
791,2158,3,-427,-4683,23,-344,-150,137
792,2159,1,-428,-4681,23,-343,-149,136
793,2159,2,-426,-4682,23,-344,-149,136
794,2158,1,-427,-4682,23,-344,-153,137
795,2158,0,-426,-4681,23,-346,-156,140
796,2160,-1,-426,-4681,23,-346,-155,140
797,2158,-1,-426,-4681,23,-345,-156,139
798,2159,0,-426,-4680,23,-344,-154,140
799,2159,-1,-427,-4681,23,-344,-154,138
800,2159,0,-426,-4682,23,-346,-156,138
801,2159,0,-427,-4683,23,-345,-154,137
802,2159,0,-428,-4685,23,-345,-152,136
803,2160,0,-429,-4683,23,-345,-151,138
804,2161,-1,-430,-4684,23,-343,-151,138
805,2160,-1,-431,-4685,23,-344,-153,136
806,2160,-2,-430,-4686,23,-343,-154,135
807,2159,0,-429,-4686,23,-345,-153,137
808,2158,0,-428,-4686,23,-344,-155,136
809,2159,1,-429,-4685,23,-345,-152,138
810,2158,1,-429,-4687,23,-345,-154,143
811,2159,1,-430,-4687,23,-345,-153,145
812,2159,1,-429,-4687,23,-344,-152,144
813,2158,0,-429,-4687,23,-345,-150,142
814,2159,0,-430,-4688,23,-346,-150,141
815,2160,0,-430,-4689,23,-346,-153,141
816,2160,0,-429,-4689,23,-346,-154,140
817,2160,0,-427,-4687,23,-346,-154,140
818,2161,0,-429,-4687,23,-346,-153,138
819,2160,1,-430,-4685,23,-344,-151,139
820,2159,0,-429,-4685,23,-345,-153,141
821,2158,0,-430,-4683,23,-346,-153,139
822,2159,-1,-427,-4684,23,-345,-149,137
823,2159,0,-429,-4684,23,-345,-150,138
824,2160,0,-428,-4684,23,-344,-151,138
825,2159,0,-426,-4683,23,-343,-151,138
826,2160,-1,-426,-4683,23,-344,-151,138
827,2160,-2,-427,-4683,23,-346,-146,140
828,2159,0,-426,-4682,23,-346,-147,142
829,2158,-1,-427,-4684,23,-348,-150,140
830,2157,0,-427,-4684,23,-348,-149,139
831,2158,0,-425,-4682,23,-347,-150,137
832,2159,0,-426,-4683,23,-346,-149,138
833,2160,0,-427,-4683,23,-344,-151,140
834,2159,0,-426,-4684,23,-344,-150,141
835,2160,0,-428,-4683,23,-346,-150,138
836,2159,2,-426,-4683,23,-347,-151,139
837,2159,2,-425,-4683,23,-348,-152,138
838,2159,2,-426,-4680,23,-345,-154,138
839,2159,1,-427,-4681,23,-347,-155,138
840,2159,1,-428,-4682,23,-348,-153,138
841,2159,2,-428,-4682,23,-346,-150,135
842,2159,2,-428,-4684,23,-345,-153,136
843,2159,2,-428,-4683,23,-346,-153,134
844,2160,1,-429,-4681,23,-347,-152,136
845,2159,1,-428,-4681,23,-345,-151,141
846,2158,1,-429,-4683,23,-344,-152,139
847,2158,0,-429,-4683,23,-345,-148,138
848,2158,2,-428,-4684,23,-344,-149,137
849,2159,2,-428,-4684,23,-342,-149,136
850,2159,2,-429,-4686,23,-344,-148,134
851,2160,3,-428,-4684,23,-345,-148,134
852,2160,2,-428,-4683,23,-345,-150,135
853,2160,1,-430,-4683,23,-345,-148,137
854,2160,2,-430,-4684,23,-347,-151,137
855,2161,3,-429,-4685,23,-346,-152,138
856,2160,1,-429,-4685,23,-344,-151,139
857,2160,3,-430,-4683,23,-343,-151,141
858,2158,2,-429,-4683,23,-344,-152,141
859,2158,1,-429,-4685,23,-346,-151,140
860,2159,1,-431,-4686,23,-347,-150,137
861,2159,1,-429,-4687,23,-348,-148,138
862,2158,1,-427,-4688,23,-346,-147,138
863,2159,0,-427,-4688,23,-345,-147,138
864,2160,0,-428,-4686,23,-345,-149,138
865,2159,0,-429,-4686,23,-346,-149,136
866,2158,-1,-428,-4686,23,-346,-147,137
867,2158,-1,-428,-4686,23,-347,-146,138
868,2158,-1,-427,-4685,23,-346,-147,137
869,2159,1,-427,-4684,23,-348,-148,136
870,2159,0,-427,-4683,23,-350,-146,137
871,2159,0,-428,-4683,23,-352,-149,137
872,2160,0,-427,-4683,23,-349,-149,133
873,2161,1,-428,-4684,23,-348,-150,135
874,2161,2,-429,-4686,23,-348,-150,136
875,2161,2,-429,-4685,23,-350,-151,137
876,2161,2,-429,-4684,23,-350,-151,139
877,2161,1,-429,-4684,23,-350,-152,139
878,2161,2,-430,-4685,23,-348,-150,139
879,2160,2,-429,-4685,23,-346,-148,137
880,2159,2,-430,-4685,23,-346,-149,137
881,2159,0,-430,-4684,23,-346,-148,135
882,2160,-1,-428,-4683,23,-344,-146,137
883,2162,0,-428,-4684,23,-342,-149,139
884,2160,-1,-428,-4684,23,-344,-150,141
885,2160,0,-429,-4685,23,-345,-149,140
886,2161,0,-428,-4683,23,-345,-149,141
887,2161,0,-428,-4683,23,-343,-151,139
888,2161,1,-428,-4684,23,-344,-154,138
889,2162,1,-428,-4684,23,-344,-153,138
890,2162,1,-428,-4684,23,-343,-153,139
891,2161,0,-428,-4685,23,-343,-151,139
892,2160,0,-428,-4684,23,-342,-152,141
893,2160,-1,-427,-4683,23,-340,-151,142
894,2160,2,-426,-4683,23,-341,-153,140
895,2159,1,-428,-4684,23,-342,-151,141
896,2159,2,-428,-4683,23,-344,-152,139
897,2159,1,-427,-4684,23,-344,-156,140
898,2159,1,-428,-4683,23,-345,-155,140
899,2158,1,-429,-4684,23,-345,-155,140
900,2159,1,-427,-4685,23,-345,-155,138
901,2159,0,-428,-4685,23,-347,-155,139
902,2159,1,-426,-4682,23,-347,-152,138
903,2158,0,-426,-4681,23,-348,-150,139
904,2158,-1,-426,-4681,23,-348,-151,140
905,2157,-1,-427,-4682,23,-347,-151,141
906,2157,0,-429,-4682,23,-346,-151,142
907,2157,-1,-428,-4683,23,-347,-152,141
908,2158,-1,-428,-4685,23,-346,-151,141
909,2159,0,-428,-4684,23,-343,-149,141
910,2159,1,-427,-4685,23,-346,-150,141
911,2159,0,-428,-4686,23,-346,-151,140
912,2159,1,-430,-4686,23,-344,-151,140
913,2159,2,-429,-4686,23,-345,-152,137
914,2158,1,-429,-4684,23,-345,-149,138
915,2159,2,-430,-4683,23,-344,-149,140
916,2160,2,-428,-4684,23,-346,-147,140
917,2160,2,-427,-4685,23,-345,-147,140
918,2160,1,-427,-4684,23,-345,-148,140
919,2159,1,-426,-4684,23,-346,-150,140
920,2159,0,-427,-4683,23,-345,-151,139
921,2159,0,-427,-4684,23,-347,-152,140
922,2158,1,-428,-4684,23,-345,-151,140
923,2158,1,-429,-4684,23,-346,-152,139
924,2159,0,-429,-4683,23,-344,-154,139
925,2158,1,-429,-4681,23,-343,-154,139
926,2158,1,-428,-4683,23,-343,-153,138
927,2158,1,-427,-4684,23,-342,-152,136
928,2157,1,-427,-4684,23,-341,-152,138
929,2157,1,-428,-4685,23,-341,-152,137
930,2157,1,-428,-4685,23,-343,-152,139
931,2157,-1,-427,-4686,23,-344,-152,141
932,2157,-1,-427,-4687,23,-345,-153,141
933,2157,0,-428,-4684,23,-347,-151,140
934,2157,0,-427,-4684,23,-347,-149,139
935,2158,0,-427,-4685,23,-347,-145,139
936,2158,0,-427,-4687,23,-345,-149,139
937,2158,-1,-426,-4686,23,-346,-149,140
938,2158,-1,-428,-4685,23,-349,-148,141
939,2157,-1,-428,-4684,23,-346,-146,138
940,2158,-2,-428,-4685,23,-346,-145,138
941,2157,-2,-428,-4686,23,-347,-146,139
942,2158,0,-428,-4686,23,-348,-149,138
943,2159,0,-429,-4685,23,-350,-149,140
944,2160,0,-429,-4683,23,-348,-149,139
945,2160,-1,-427,-4683,23,-350,-149,137
946,2160,-1,-429,-4682,23,-351,-149,137
947,2160,1,-428,-4682,23,-351,-152,140
948,2160,-1,-428,-4682,23,-350,-155,139
949,2160,-1,-430,-4684,23,-348,-154,138
950,2159,-1,-431,-4685,23,-347,-153,141
951,2159,0,-431,-4685,23,-345,-154,138
952,2161,1,-432,-4685,23,-345,-153,140
953,2160,2,-432,-4685,23,-345,-153,141
954,2159,0,-431,-4684,23,-346,-152,140
955,2159,0,-430,-4685,23,-344,-151,140
956,2159,-1,-428,-4684,23,-346,-150,141
957,2160,0,-428,-4682,23,-346,-151,141
958,2159,1,-429,-4683,23,-347,-150,141
959,2159,1,-427,-4683,23,-346,-151,141
960,2159,0,-427,-4682,23,-346,-150,138
961,2159,2,-426,-4681,23,-349,-150,139
962,2159,2,-426,-4683,23,-349,-151,139
963,2159,2,-426,-4682,23,-347,-151,140
964,2158,1,-424,-4684,23,-348,-150,139
965,2159,2,-427,-4684,23,-347,-149,139
966,2159,3,-427,-4684,23,-348,-149,139
967,2158,2,-427,-4683,23,-347,-151,142
968,2157,1,-428,-4683,23,-348,-148,142
969,2157,1,-428,-4684,23,-347,-148,141
970,2157,0,-429,-4681,23,-346,-150,141
971,2159,1,-429,-4682,23,-345,-149,142
972,2159,2,-429,-4684,23,-347,-150,140
973,2159,1,-427,-4684,23,-348,-150,140
974,2158,1,-428,-4683,23,-348,-152,141
975,2158,1,-427,-4683,23,-349,-151,142
976,2157,1,-427,-4683,23,-345,-150,141
977,2158,1,-429,-4682,23,-346,-147,140
978,2159,2,-428,-4683,23,-347,-147,139
979,2159,1,-427,-4684,23,-346,-149,141
980,2158,1,-428,-4687,23,-346,-148,141
981,2158,1,-427,-4686,23,-348,-149,142
982,2158,2,-429,-4687,23,-347,-150,141
983,2159,3,-430,-4686,23,-347,-152,142
984,2157,2,-430,-4685,23,-346,-153,142
985,2159,0,-431,-4684,23,-346,-151,140
986,2160,1,-431,-4686,23,-347,-149,140
987,2161,1,-429,-4685,23,-345,-152,141
988,2160,1,-429,-4685,23,-346,-151,142
989,2161,1,-430,-4683,23,-348,-152,141
990,2160,2,-427,-4682,23,-347,-151,141
991,2160,2,-428,-4684,23,-347,-150,140
992,2160,2,-428,-4684,23,-347,-151,141
993,2158,2,-427,-4684,23,-347,-148,142
994,2158,2,-428,-4684,23,-345,-150,143
995,2160,2,-426,-4684,23,-347,-153,144
996,2161,2,-426,-4683,23,-347,-152,142
997,2161,1,-427,-4683,23,-347,-152,140
998,2161,1,-426,-4683,23,-347,-150,142
