,acc_X,acc_Y,acc_Z,temp,tempC,gyr_X,gyr_Y,gyr_Z
0,4310,0,-853,-4798,22,-86,-38,35
1,4312,5,-856,-4797,22,-87,-38,34
2,4313,4,-862,-4797,22,-86,-37,34
3,4314,1,-857,-4798,22,-87,-37,33
4,4314,2,-857,-4795,22,-87,-37,34
5,4316,4,-860,-4795,22,-87,-37,33
6,4319,5,-858,-4796,22,-87,-37,33
7,4318,6,-861,-4795,22,-86,-37,34
8,4315,3,-855,-4796,22,-87,-38,35
9,4315,0,-857,-4798,22,-86,-37,35
10,4315,2,-862,-4796,22,-86,-39,35
11,4313,2,-858,-4794,22,-86,-39,36
12,4316,6,-861,-4796,22,-86,-38,34
13,4316,5,-859,-4796,22,-87,-39,33
14,4316,8,-856,-4795,22,-87,-38,34
15,4317,7,-853,-4795,22,-87,-38,34
16,4315,5,-852,-4794,22,-86,-38,34
17,4316,3,-855,-4799,22,-86,-39,34
18,4311,2,-856,-4796,22,-86,-38,34
19,4313,3,-861,-4797,22,-87,-37,34
20,4315,1,-857,-4798,22,-88,-37,33
21,4313,5,-853,-4798,22,-87,-37,33
22,4313,3,-854,-4796,22,-87,-37,34
23,4316,3,-858,-4799,22,-88,-38,34
24,4317,2,-857,-4801,22,-87,-38,34
25,4321,-4,-861,-4801,22,-87,-39,34
26,4320,3,-858,-4801,22,-88,-39,34
27,4321,0,-852,-4797,22,-87,-38,34
28,4318,3,-856,-4798,22,-87,-38,34
29,4317,1,-859,-4797,22,-87,-39,34
30,4318,4,-861,-4797,22,-87,-39,35
31,4319,4,-866,-4798,22,-87,-39,34
32,4322,1,-866,-4799,22,-86,-38,35
33,4320,4,-865,-4799,22,-87,-38,34
34,4322,4,-864,-4799,22,-87,-37,34
35,4316,-2,-857,-4798,22,-86,-37,34
36,4314,-1,-860,-4798,22,-86,-37,33
37,4314,2,-859,-4795,22,-86,-36,34
38,4316,-1,-864,-4799,22,-87,-36,35
39,4318,2,-866,-4799,22,-86,-37,34
40,4317,-2,-861,-4798,22,-86,-37,34
41,4316,2,-863,-4797,22,-86,-37,34
42,4315,1,-858,-4798,22,-86,-37,34
43,4317,1,-864,-4797,22,-86,-39,34
44,4317,2,-858,-4792,22,-87,-38,34
45,4315,3,-856,-4791,22,-87,-39,34
46,4319,2,-857,-4793,22,-86,-38,34
47,4320,5,-847,-4794,22,-86,-39,34
48,4322,-3,-854,-4796,22,-86,-38,34
49,4318,5,-851,-4798,22,-87,-39,34
50,4316,10,-854,-4796,22,-87,-39,34
51,4314,9,-853,-4796,22,-88,-39,34
52,4313,8,-850,-4795,22,-87,-38,34
53,4311,5,-850,-4793,22,-87,-38,34
54,4313,5,-852,-4796,22,-87,-38,34
55,4312,3,-855,-4792,22,-88,-39,35
56,4318,3,-859,-4792,22,-87,-38,34
57,4313,1,-859,-4797,22,-86,-38,33
58,4313,3,-860,-4794,22,-87,-39,33
59,4313,5,-861,-4794,22,-88,-37,33
60,4315,6,-865,-4795,22,-89,-37,34
61,4316,11,-862,-4792,22,-87,-38,34
62,4318,7,-860,-4792,22,-87,-37,34
63,4317,9,-865,-4792,22,-86,-39,33
64,4317,5,-865,-4793,22,-85,-38,34
65,4320,3,-868,-4792,22,-87,-38,35
66,4321,1,-865,-4793,22,-87,-38,35
67,4320,-2,-862,-4792,22,-87,-38,35
68,4322,4,-864,-4794,22,-87,-38,34
69,4320,1,-862,-4791,22,-86,-38,33
70,4320,-3,-858,-4791,22,-86,-38,34
71,4321,-3,-858,-4796,22,-86,-37,34
72,4319,-2,-857,-4790,22,-86,-38,34
73,4317,1,-855,-4790,22,-86,-37,34
74,4320,2,-851,-4790,22,-86,-38,34
75,4319,3,-857,-4795,22,-86,-37,35
76,4319,6,-858,-4792,22,-87,-37,34
77,4320,2,-858,-4791,22,-86,-38,34
78,4322,0,-858,-4793,22,-87,-37,35
79,4327,0,-859,-4792,22,-87,-38,34
80,4318,5,-866,-4793,22,-86,-39,34
81,4316,4,-860,-4794,22,-86,-38,34
82,4318,0,-863,-4795,22,-87,-38,34
83,4316,1,-857,-4793,22,-87,-38,35
84,4315,1,-864,-4792,22,-88,-38,35
85,4318,3,-864,-4795,22,-87,-39,34
86,4316,4,-860,-4797,22,-87,-38,34
87,4314,7,-858,-4797,22,-86,-38,34
88,4316,-1,-862,-4791,22,-87,-38,34
89,4319,-1,-862,-4792,22,-87,-39,33
90,4321,4,-863,-4794,22,-86,-38,34
91,4318,0,-861,-4793,22,-86,-38,34
92,4320,-1,-862,-4791,22,-86,-37,34
93,4319,5,-863,-4794,22,-85,-37,33
94,4318,9,-862,-4794,22,-86,-38,34
95,4316,5,-861,-4791,22,-86,-38,34
96,4321,5,-854,-4789,22,-86,-38,34
97,4321,5,-854,-4791,22,-87,-37,35
98,4318,-2,-859,-4794,22,-86,-37,34
99,4318,-5,-859,-4790,22,-87,-38,34
100,4318,2,-857,-4790,22,-86,-38,34
101,4319,-1,-857,-4790,22,-87,-39,34
102,4321,6,-863,-4791,22,-87,-37,34
103,4317,4,-855,-4790,22,-88,-37,34
104,4318,4,-857,-4790,22,-88,-38,35
105,4314,3,-851,-4793,22,-86,-38,34
106,4316,2,-853,-4794,22,-86,-38,34
107,4316,2,-863,-4794,22,-85,-39,35
108,4318,5,-863,-4795,22,-86,-38,34
109,4319,2,-856,-4794,22,-87,-39,35
110,4321,4,-859,-4795,22,-88,-39,34
111,4320,4,-862,-4796,22,-87,-38,34
112,4318,2,-860,-4798,22,-86,-38,33
113,4320,6,-858,-4798,22,-86,-37,34
114,4314,5,-860,-4796,22,-85,-37,35
115,4316,1,-862,-4798,22,-85,-38,34
116,4320,0,-865,-4794,22,-85,-37,35
117,4320,1,-863,-4792,22,-87,-38,35
118,4320,-1,-861,-4795,22,-87,-38,35
119,4318,0,-861,-4796,22,-87,-38,35
120,4315,2,-862,-4794,22,-86,-37,35
121,4316,1,-867,-4792,22,-85,-38,34
122,4318,2,-870,-4794,22,-87,-39,35
123,4318,4,-860,-4792,22,-87,-38,34
124,4320,2,-859,-4790,22,-87,-38,35
125,4321,1,-863,-4792,22,-86,-37,34
126,4322,1,-866,-4793,22,-86,-37,33
127,4322,-1,-858,-4793,22,-86,-37,33
128,4320,0,-862,-4791,22,-87,-38,34
129,4314,-1,-862,-4791,22,-87,-39,34
130,4314,0,-862,-4792,22,-87,-39,34
131,4311,5,-855,-4794,22,-87,-39,34
132,4312,5,-855,-4795,22,-86,-38,34
133,4314,1,-855,-4795,22,-85,-38,33
134,4318,1,-860,-4792,22,-85,-40,34
135,4317,0,-868,-4793,22,-86,-39,35
136,4321,0,-865,-4791,22,-87,-39,34
137,4317,0,-860,-4789,22,-86,-38,34
138,4319,0,-860,-4789,22,-87,-37,35
139,4317,5,-854,-4791,22,-87,-38,33
140,4317,5,-850,-4792,22,-86,-39,33
141,4311,2,-847,-4789,22,-87,-38,34
142,4316,4,-855,-4791,22,-87,-38,34
143,4311,4,-853,-4794,22,-87,-38,34
144,4314,4,-851,-4793,22,-87,-38,33
145,4316,4,-855,-4794,22,-88,-38,34
146,4315,6,-851,-4792,22,-88,-38,35
147,4320,0,-855,-4791,22,-88,-37,34
148,4318,3,-854,-4795,22,-87,-37,35
149,4317,3,-859,-4794,22,-86,-37,34
150,4319,2,-859,-4793,22,-86,-37,34
151,4318,-3,-856,-4792,22,-86,-37,34
152,4318,1,-856,-4789,22,-87,-38,34
153,4315,-1,-854,-4788,22,-87,-37,34
154,4318,-5,-855,-4789,22,-85,-37,33
155,4315,-3,-856,-4791,22,-86,-37,34
156,4317,0,-859,-4793,22,-86,-39,35
157,4317,1,-862,-4792,22,-87,-38,35
158,4316,0,-853,-4794,22,-86,-37,34
159,4312,0,-855,-4794,22,-86,-38,34
160,4314,0,-862,-4792,22,-86,-38,34
161,4312,-1,-857,-4792,22,-86,-39,34
162,4315,3,-863,-4793,22,-87,-39,34
163,4317,13,-863,-4792,22,-87,-38,33
164,4321,8,-861,-4789,22,-86,-38,34
165,4324,8,-865,-4791,22,-87,-39,34
166,4318,2,-863,-4788,22,-86,-39,33
167,4323,-1,-862,-4792,22,-86,-38,34
168,4319,3,-859,-4794,22,-86,-38,34
169,4318,3,-859,-4791,22,-87,-39,34
170,4323,0,-856,-4791,22,-86,-39,34
171,4319,1,-854,-4789,22,-86,-40,35
172,4318,-3,-855,-4788,22,-86,-40,34
173,4318,-6,-858,-4787,22,-86,-39,34
174,4319,-5,-852,-4788,22,-87,-37,35
175,4318,1,-855,-4788,22,-87,-37,35
176,4320,-1,-863,-4789,22,-87,-38,35
177,4319,0,-855,-4792,22,-86,-38,35
178,4320,-4,-855,-4788,22,-87,-39,36
179,4314,0,-858,-4788,22,-87,-38,35
180,4316,0,-860,-4788,22,-87,-39,34
181,4319,1,-867,-4787,22,-87,-37,33
182,4318,0,-865,-4787,22,-86,-37,34
183,4319,2,-858,-4789,22,-86,-37,34
184,4324,2,-852,-4791,22,-86,-38,34
185,4319,2,-854,-4791,22,-86,-39,34
186,4319,5,-858,-4791,22,-86,-38,34
187,4316,7,-858,-4792,22,-86,-39,34
188,4319,7,-858,-4788,22,-86,-38,34
189,4316,9,-860,-4788,22,-85,-38,34
190,4314,9,-859,-4791,22,-86,-39,34
191,4312,5,-859,-4789,22,-86,-38,33
192,4315,2,-855,-4791,22,-86,-38,33
193,4316,4,-852,-4790,22,-87,-38,33
194,4318,3,-854,-4795,22,-87,-38,34
195,4317,5,-859,-4791,22,-87,-38,34
196,4318,2,-850,-4791,22,-86,-39,34
197,4318,2,-852,-4794,22,-86,-38,34
198,4316,4,-850,-4794,22,-86,-38,33
199,4318,4,-850,-4791,22,-86,-39,34
200,4317,5,-852,-4788,22,-86,-38,35
201,4320,3,-853,-4788,22,-86,-39,35
202,4323,5,-848,-4789,22,-86,-38,35
203,4322,4,-851,-4790,22,-86,-39,35
204,4320,3,-852,-4790,22,-86,-39,34
205,4319,2,-849,-4789,22,-87,-39,35
206,4317,4,-850,-4788,22,-87,-39,35
207,4318,3,-855,-4787,22,-87,-38,35
208,4319,3,-859,-4789,22,-86,-39,34
209,4320,3,-859,-4788,22,-87,-39,33
210,4322,1,-857,-4791,22,-86,-38,34
211,4323,0,-860,-4790,22,-86,-38,34
212,4321,5,-861,-4788,22,-86,-38,35
213,4318,2,-860,-4789,22,-87,-38,34
214,4320,2,-858,-4787,22,-87,-39,33
215,4323,4,-862,-4789,22,-87,-38,34
216,4319,2,-854,-4792,22,-87,-39,35
217,4322,6,-853,-4790,22,-86,-39,34
218,4320,5,-856,-4790,22,-86,-39,34
219,4322,6,-854,-4789,22,-86,-40,34
220,4314,9,-864,-4790,22,-86,-38,35
221,4311,11,-867,-4788,22,-87,-38,36
222,4310,9,-861,-4789,22,-87,-38,35
223,4317,10,-862,-4787,22,-87,-38,35
224,4315,12,-856,-4790,22,-86,-38,35
225,4316,7,-857,-4789,22,-86,-38,35
226,4320,3,-857,-4792,22,-86,-38,34
227,4313,8,-857,-4790,22,-86,-37,34
228,4317,9,-865,-4788,22,-85,-37,34
229,4316,5,-866,-4788,22,-86,-37,33
230,4313,1,-868,-4790,22,-86,-37,33
231,4313,1,-863,-4792,22,-86,-37,33
232,4312,0,-862,-4791,22,-86,-37,33
233,4316,9,-862,-4789,22,-85,-38,33
234,4315,5,-863,-4785,22,-86,-37,34
235,4319,4,-862,-4789,22,-87,-38,34
236,4320,4,-854,-4790,22,-87,-40,35
237,4321,4,-854,-4788,22,-86,-39,35
238,4323,2,-858,-4791,22,-85,-39,34
239,4323,9,-866,-4792,22,-86,-38,34
240,4322,5,-863,-4793,22,-85,-38,34
241,4319,2,-866,-4792,22,-85,-37,34
242,4318,3,-860,-4796,22,-86,-38,34
243,4314,5,-855,-4796,22,-86,-38,33
244,4321,0,-859,-4792,22,-86,-40,33
245,4320,1,-858,-4792,22,-87,-39,34
246,4320,0,-859,-4790,22,-86,-38,34
247,4316,-1,-863,-4790,22,-86,-38,34
248,4319,1,-864,-4790,22,-87,-38,33
249,4322,0,-864,-4787,22,-87,-38,35
250,4317,5,-853,-4787,22,-87,-38,35
251,4322,5,-850,-4789,22,-87,-37,35
252,4318,2,-858,-4787,22,-86,-38,34
253,4317,4,-853,-4787,22,-86,-38,34
254,4316,7,-856,-4786,22,-86,-38,34
255,4321,5,-859,-4789,22,-87,-38,35
256,4319,5,-863,-4791,22,-86,-38,34
257,4323,4,-856,-4788,22,-86,-39,34
258,4319,4,-865,-4789,22,-86,-38,34
259,4317,3,-863,-4790,22,-85,-39,35
260,4317,1,-865,-4790,22,-85,-38,35
261,4320,4,-865,-4790,22,-86,-39,33
262,4318,1,-862,-4790,22,-85,-39,34
263,4322,4,-855,-4788,22,-86,-39,34
264,4322,-1,-856,-4788,22,-87,-38,35
265,4317,-3,-861,-4788,22,-87,-38,35
266,4316,-4,-858,-4785,22,-87,-37,35
267,4314,-1,-853,-4787,22,-86,-37,35
268,4313,-1,-855,-4785,22,-86,-38,35
269,4311,3,-857,-4784,22,-85,-39,35
270,4312,0,-857,-4787,22,-86,-38,34
271,4317,2,-854,-4787,22,-86,-39,35
272,4318,6,-857,-4790,22,-86,-40,35
273,4321,-1,-861,-4789,22,-87,-39,34
274,4315,3,-861,-4785,22,-86,-39,34
275,4316,3,-859,-4786,22,-86,-38,34
276,4318,1,-857,-4788,22,-86,-38,34
277,4319,1,-855,-4786,22,-85,-38,34
278,4323,5,-856,-4789,22,-86,-38,33
279,4324,9,-857,-4786,22,-86,-38,34
280,4323,13,-856,-4784,22,-87,-38,34
281,4318,7,-851,-4788,22,-86,-38,35
282,4318,9,-862,-4785,22,-86,-38,35
283,4316,7,-855,-4786,22,-86,-38,34
284,4319,1,-853,-4782,22,-87,-39,34
285,4315,2,-853,-4788,22,-87,-39,35
286,4316,10,-853,-4787,22,-86,-39,36
287,4319,10,-854,-4786,22,-86,-38,35
288,4315,5,-858,-4781,22,-87,-39,34
289,4315,4,-859,-4786,22,-87,-39,33
290,4320,0,-857,-4786,22,-86,-39,33
291,4317,3,-853,-4787,22,-85,-38,33
292,4315,1,-853,-4788,22,-86,-39,33
293,4317,2,-853,-4789,22,-85,-38,33
294,4317,6,-859,-4790,22,-86,-38,34
295,4318,4,-856,-4788,22,-87,-38,34
296,4317,5,-857,-4788,22,-85,-39,34
297,4321,3,-860,-4785,22,-86,-39,34
298,4321,7,-861,-4786,22,-86,-38,34
299,4319,5,-864,-4788,22,-86,-37,34
300,4321,4,-856,-4788,22,-86,-38,34
301,4321,0,-858,-4786,22,-86,-39,35
302,4317,0,-859,-4782,22,-86,-39,35
303,4318,-1,-868,-4784,22,-86,-39,35
304,4321,6,-861,-4784,22,-86,-38,34
305,4321,7,-858,-4786,22,-85,-38,34
306,4321,6,-859,-4784,22,-86,-40,34
307,4322,5,-857,-4781,22,-85,-39,34
308,4323,2,-862,-4783,22,-87,-39,34
309,4322,2,-862,-4784,22,-86,-38,34
310,4317,2,-862,-4785,22,-86,-37,35
311,4315,8,-864,-4785,22,-86,-38,35
312,4313,8,-859,-4784,22,-87,-37,34
313,4313,9,-859,-4782,22,-87,-38,35
314,4318,8,-860,-4785,22,-86,-38,34
315,4314,5,-855,-4786,22,-86,-37,34
316,4319,4,-855,-4788,22,-87,-38,34
317,4319,7,-852,-4785,22,-87,-39,34
318,4319,8,-854,-4787,22,-87,-39,34
319,4318,9,-856,-4787,22,-87,-40,34
320,4315,1,-857,-4786,22,-86,-38,34
321,4314,-3,-847,-4784,22,-86,-38,34
322,4313,-3,-849,-4784,22,-87,-39,33
323,4314,2,-853,-4781,22,-85,-38,33
324,4317,0,-852,-4780,22,-86,-40,34
325,4317,4,-856,-4778,22,-87,-38,35
326,4318,2,-854,-4779,22,-87,-38,34
327,4314,1,-851,-4779,22,-86,-38,35
328,4317,7,-853,-4784,22,-86,-39,35
329,4317,6,-859,-4786,22,-86,-39,34
330,4319,7,-851,-4785,22,-86,-38,35
331,4318,2,-854,-4788,22,-86,-38,34
332,4316,0,-859,-4789,22,-86,-37,34
333,4317,0,-859,-4786,22,-86,-38,34
334,4318,4,-866,-4787,22,-86,-38,34
335,4317,5,-862,-4786,22,-86,-38,35
336,4322,3,-856,-4787,22,-86,-38,36
337,4326,4,-856,-4789,22,-86,-38,35
338,4322,5,-857,-4788,22,-86,-38,35
339,4321,-2,-863,-4787,22,-87,-38,34
340,4319,1,-853,-4787,22,-86,-39,35
341,4321,1,-856,-4785,22,-86,-38,34
342,4321,4,-862,-4787,22,-87,-38,34
343,4320,2,-868,-4783,22,-87,-38,34
344,4319,5,-866,-4784,22,-87,-38,35
345,4318,6,-867,-4788,22,-87,-38,34
346,4314,3,-865,-4787,22,-87,-39,35
347,4316,6,-863,-4787,22,-86,-39,33
348,4316,7,-863,-4784,22,-87,-40,34
349,4317,8,-868,-4782,22,-87,-39,34
350,4314,6,-867,-4786,22,-87,-39,35
351,4317,4,-859,-4788,22,-87,-39,34
352,4318,-2,-853,-4789,22,-86,-38,34
353,4317,-2,-855,-4788,22,-86,-39,34
354,4317,4,-860,-4786,22,-87,-39,34
355,4316,2,-864,-4783,22,-87,-39,34
356,4317,0,-862,-4781,22,-87,-39,34
357,4320,5,-858,-4785,22,-86,-39,34
358,4320,3,-859,-4788,22,-87,-38,33
359,4320,3,-866,-4788,22,-86,-38,34
360,4320,3,-865,-4787,22,-86,-38,35
361,4319,2,-861,-4786,22,-86,-37,35
362,4320,5,-860,-4786,22,-86,-38,34
363,4319,8,-858,-4787,22,-86,-38,34
364,4314,7,-853,-4787,22,-86,-39,34
365,4321,4,-854,-4783,22,-86,-38,35
366,4314,4,-853,-4785,22,-86,-39,34
367,4316,1,-851,-4786,22,-85,-38,34
368,4317,2,-856,-4784,22,-86,-38,35
369,4320,-1,-862,-4785,22,-86,-38,34
370,4317,-2,-862,-4784,22,-86,-39,34
371,4318,-2,-861,-4785,22,-85,-39,34
372,4321,4,-860,-4789,22,-86,-38,35
373,4323,5,-861,-4788,22,-86,-37,34
374,4319,1,-859,-4787,22,-87,-36,34
375,4320,2,-860,-4788,22,-86,-36,34
376,4320,6,-855,-4784,22,-87,-37,34
377,4317,9,-857,-4789,22,-85,-37,35
378,4316,10,-859,-4786,22,-85,-36,35
379,4318,5,-855,-4782,22,-85,-38,35
380,4318,3,-853,-4784,22,-85,-38,35
381,4318,4,-857,-4784,22,-85,-38,35
382,4320,4,-861,-4786,22,-86,-38,35
383,4320,3,-857,-4785,22,-87,-38,34
384,4318,0,-857,-4785,22,-86,-38,34
385,4316,4,-858,-4784,22,-87,-38,35
386,4318,4,-855,-4787,22,-88,-38,34
387,4322,3,-855,-4788,22,-88,-38,34
388,4320,2,-851,-4786,22,-87,-39,34
389,4324,3,-858,-4784,22,-87,-38,34
390,4320,5,-849,-4786,22,-88,-38,34
391,4320,6,-849,-4788,22,-87,-37,35
392,4321,6,-851,-4787,22,-86,-37,34
393,4314,4,-854,-4789,22,-85,-38,35
394,4316,4,-856,-4787,22,-86,-39,35
395,4318,3,-856,-4788,22,-86,-39,35
396,4318,3,-860,-4786,22,-87,-38,35
397,4318,5,-865,-4784,22,-86,-38,35
398,4319,0,-863,-4787,22,-87,-38,34
399,4323,1,-859,-4786,22,-86,-38,34
400,4319,-2,-864,-4786,22,-85,-38,35
401,4321,1,-860,-4789,22,-85,-38,34
402,4319,-3,-862,-4790,22,-86,-38,33
403,4319,-2,-860,-4789,22,-86,-39,34
404,4322,2,-859,-4788,22,-87,-37,34
405,4321,6,-856,-4788,22,-86,-37,34
406,4321,5,-858,-4786,22,-86,-36,34
407,4322,0,-855,-4787,22,-87,-37,35
408,4320,3,-855,-4787,22,-86,-38,35
409,4313,3,-857,-4787,22,-86,-37,34
410,4315,2,-865,-4787,22,-87,-38,34
411,4318,3,-865,-4786,22,-86,-38,34
412,4316,3,-859,-4786,22,-87,-38,34
413,4320,-1,-863,-4784,22,-86,-37,34
414,4317,-1,-858,-4786,22,-85,-37,34
415,4314,0,-858,-4785,22,-86,-37,35
416,4320,4,-859,-4787,22,-87,-37,35
417,4316,6,-860,-4784,22,-87,-37,34
418,4318,3,-859,-4787,22,-86,-38,33
419,4316,2,-861,-4784,22,-86,-38,33
420,4315,-3,-853,-4787,22,-86,-39,33
421,4313,0,-852,-4786,22,-87,-39,33
422,4314,5,-861,-4784,22,-87,-38,33
423,4314,6,-863,-4786,22,-86,-38,34
424,4317,2,-863,-4784,22,-86,-39,34
425,4315,5,-864,-4784,22,-87,-39,34
426,4316,6,-862,-4786,22,-86,-39,33
427,4315,9,-860,-4787,22,-86,-38,34
428,4317,9,-855,-4785,22,-86,-38,34
429,4316,11,-853,-4785,22,-87,-39,33
430,4318,7,-854,-4786,22,-87,-40,34
431,4320,3,-858,-4788,22,-88,-39,34
432,4318,2,-852,-4788,22,-88,-38,35
433,4317,1,-856,-4786,22,-86,-38,35
434,4317,-4,-858,-4786,22,-86,-38,35
435,4315,-3,-858,-4782,22,-87,-39,35
436,4315,0,-861,-4779,22,-87,-37,34
437,4321,2,-858,-4785,22,-86,-37,34
438,4318,3,-861,-4787,22,-87,-38,35
439,4318,4,-860,-4788,22,-85,-37,34
440,4314,5,-859,-4789,22,-86,-38,33
441,4313,6,-851,-4786,22,-85,-37,35
442,4314,4,-856,-4788,22,-85,-37,34
443,4313,0,-852,-4787,22,-86,-38,34
444,4318,1,-851,-4787,22,-84,-37,34
445,4316,0,-853,-4786,22,-85,-38,34
446,4313,-1,-858,-4789,22,-86,-39,34
447,4313,-3,-864,-4788,22,-86,-38,34
448,4316,2,-874,-4786,22,-85,-39,34
449,4318,2,-866,-4786,22,-86,-39,34
450,4322,4,-870,-4786,22,-86,-39,33
451,4321,0,-861,-4783,22,-85,-39,33
452,4320,1,-863,-4785,22,-86,-39,34
453,4319,1,-853,-4781,22,-87,-38,34
454,4316,3,-853,-4784,22,-86,-39,33
455,4316,3,-859,-4786,22,-86,-38,33
456,4322,5,-863,-4782,22,-85,-37,33
457,4323,4,-864,-4784,22,-86,-37,33
458,4321,0,-869,-4782,22,-86,-37,34
459,4321,-1,-868,-4783,22,-87,-39,34
460,4321,0,-865,-4785,22,-87,-38,35
461,4314,6,-859,-4783,22,-87,-37,34
462,4311,0,-859,-4785,22,-87,-38,34
463,4313,-1,-862,-4784,22,-87,-39,33
464,4315,2,-855,-4786,22,-87,-40,33
465,4313,2,-859,-4790,22,-88,-38,33
466,4317,5,-858,-4785,22,-88,-38,34
467,4321,5,-855,-4781,22,-87,-39,33
468,4322,4,-860,-4783,22,-87,-39,34
469,4323,3,-855,-4785,22,-87,-37,35
470,4324,3,-855,-4786,22,-87,-38,35
471,4323,2,-858,-4786,22,-86,-39,35
472,4318,4,-862,-4786,22,-88,-38,34
473,4316,5,-860,-4785,22,-88,-39,34
474,4316,2,-856,-4784,22,-88,-39,34
475,4316,0,-861,-4781,22,-88,-38,34
476,4316,-3,-860,-4781,22,-87,-38,35
477,4313,-5,-857,-4782,22,-87,-38,34
478,4314,-1,-855,-4783,22,-87,-37,34
479,4314,1,-854,-4783,22,-86,-38,34
480,4316,-2,-846,-4784,22,-87,-38,34
481,4316,2,-851,-4786,22,-86,-38,34
482,4316,7,-859,-4786,22,-86,-38,34
483,4317,2,-862,-4785,22,-86,-37,34
484,4315,7,-862,-4783,22,-86,-38,34
485,4317,3,-865,-4783,22,-87,-37,34
486,4316,-1,-860,-4783,22,-85,-38,34
487,4315,2,-857,-4783,22,-86,-38,34
488,4321,3,-847,-4781,22,-87,-37,34
489,4325,5,-854,-4775,22,-87,-37,34
490,4323,3,-855,-4776,22,-88,-39,34
491,4320,3,-861,-4776,22,-88,-39,35
492,4318,5,-854,-4776,22,-88,-39,35
493,4320,1,-855,-4775,22,-87,-39,35
494,4318,2,-863,-4777,22,-87,-38,35
495,4318,3,-863,-4776,22,-87,-38,35
496,4319,0,-860,-4778,22,-86,-39,34
497,4319,0,-857,-4780,22,-86,-40,33
498,4315,3,-858,-4779,22,-86,-39,34
499,4316,4,-865,-4781,22,-87,-39,34
500,4316,5,-864,-4778,22,-87,-39,33
501,4316,6,-864,-4777,22,-87,-39,32
502,4315,5,-861,-4781,22,-86,-38,33
503,4318,6,-863,-4779,22,-86,-38,34
504,4315,5,-856,-4780,22,-86,-39,34
505,4315,9,-858,-4779,22,-85,-38,34
506,4318,2,-856,-4780,22,-87,-37,33
507,4317,3,-852,-4780,22,-87,-36,34
508,4318,9,-851,-4781,22,-87,-37,34
509,4318,9,-854,-4783,22,-87,-39,33
510,4317,9,-852,-4783,22,-87,-39,34
511,4320,5,-856,-4784,22,-87,-40,33
512,4322,6,-858,-4783,22,-87,-40,34
513,4315,4,-858,-4781,22,-87,-39,34
514,4321,1,-861,-4782,22,-87,-38,34
515,4320,2,-858,-4780,22,-87,-38,35
516,4320,5,-856,-4784,22,-87,-38,33
517,4316,7,-858,-4784,22,-87,-38,33
518,4316,9,-859,-4780,22,-86,-38,34
519,4315,5,-852,-4780,22,-87,-39,35
520,4316,4,-856,-4780,22,-87,-39,34
521,4314,4,-851,-4778,22,-86,-39,34
522,4313,6,-851,-4774,22,-86,-39,35
523,4314,5,-851,-4778,22,-86,-39,35
524,4314,5,-857,-4780,22,-86,-38,35
525,4316,9,-862,-4780,22,-87,-38,34
526,4317,8,-864,-4782,22,-87,-38,35
527,4318,5,-863,-4782,22,-86,-38,34
528,4321,2,-871,-4781,22,-87,-38,34
529,4321,1,-868,-4778,22,-87,-38,35
530,4322,4,-864,-4778,22,-86,-40,35
531,4316,0,-863,-4777,22,-86,-41,34
532,4321,3,-863,-4777,22,-88,-40,35
533,4321,-1,-862,-4776,22,-88,-39,35
534,4319,0,-858,-4780,22,-88,-38,34
535,4318,5,-854,-4780,22,-88,-36,34
536,4320,-1,-855,-4782,22,-87,-37,35
537,4324,-3,-855,-4780,22,-88,-37,34
538,4327,0,-859,-4781,22,-87,-38,34
539,4325,2,-864,-4782,22,-87,-38,35
540,4324,5,-862,-4778,22,-87,-38,34
541,4319,2,-857,-4780,22,-87,-39,34
542,4319,1,-856,-4781,22,-87,-39,34
543,4320,0,-854,-4781,22,-88,-39,34
544,4319,-3,-852,-4782,22,-88,-39,33
545,4320,3,-858,-4785,22,-87,-40,34
546,4322,5,-860,-4783,22,-87,-38,34
547,4319,2,-864,-4781,22,-87,-38,34
548,4321,2,-861,-4781,22,-87,-38,34
549,4323,2,-870,-4782,22,-86,-37,34
550,4321,0,-866,-4782,22,-86,-37,34
551,4324,-1,-864,-4782,22,-87,-38,34
552,4323,5,-868,-4780,22,-86,-38,34
553,4321,3,-865,-4779,22,-86,-38,35
554,4313,2,-860,-4781,22,-87,-38,35
555,4315,2,-855,-4781,22,-87,-38,35
556,4315,3,-855,-4782,22,-87,-38,34
557,4317,6,-861,-4781,22,-87,-37,34
558,4317,3,-859,-4780,22,-87,-37,34
559,4317,4,-863,-4780,22,-88,-38,33
560,4315,6,-862,-4779,22,-87,-37,34
561,4314,9,-862,-4779,22,-87,-38,33
562,4314,3,-863,-4781,22,-86,-37,34
563,4313,1,-855,-4782,22,-87,-37,34
564,4315,5,-856,-4780,22,-87,-38,35
565,4319,11,-857,-4780,22,-86,-38,35
566,4322,6,-863,-4780,22,-86,-38,35
567,4322,5,-859,-4778,22,-85,-38,35
568,4318,7,-856,-4780,22,-86,-38,34
569,4323,7,-856,-4780,22,-87,-39,35
570,4321,3,-862,-4779,22,-86,-38,35
571,4321,-1,-861,-4782,22,-86,-37,35
572,4319,2,-866,-4782,22,-86,-38,34
573,4318,6,-869,-4781,22,-86,-39,35
574,4316,-1,-868,-4782,22,-87,-39,35
575,4319,3,-865,-4782,22,-87,-38,34
576,4320,5,-861,-4783,22,-86,-38,34
577,4319,7,-855,-4783,22,-87,-37,34
578,4318,6,-860,-4785,22,-87,-38,34
579,4319,5,-860,-4784,22,-87,-38,34
580,4317,6,-854,-4782,22,-86,-38,35
581,4323,3,-860,-4779,22,-86,-38,34
582,4318,5,-860,-4781,22,-86,-38,34
583,4318,2,-860,-4782,22,-87,-37,35
584,4314,1,-856,-4781,22,-86,-37,35
585,4315,4,-860,-4785,22,-86,-38,35
586,4311,2,-861,-4783,22,-86,-37,34
587,4310,3,-856,-4782,22,-87,-37,34
588,4314,6,-853,-4782,22,-87,-37,35
589,4316,5,-855,-4784,22,-86,-38,34
590,4320,3,-859,-4783,22,-86,-38,34
591,4321,1,-864,-4784,22,-86,-37,33
592,4317,-1,-862,-4782,22,-87,-38,35
593,4314,6,-854,-4779,22,-87,-38,34
594,4310,6,-849,-4781,22,-86,-39,36
595,4316,5,-850,-4783,22,-86,-39,35
596,4314,5,-856,-4782,22,-86,-39,34
597,4315,5,-863,-4782,22,-87,-38,34
598,4314,4,-867,-4782,22,-86,-37,35
599,4316,6,-866,-4781,22,-85,-38,35
600,4317,3,-859,-4779,22,-85,-38,35
601,4314,3,-852,-4781,22,-85,-39,34
602,4315,-1,-849,-4782,22,-85,-38,35
603,4315,1,-855,-4780,22,-86,-38,34
604,4315,2,-857,-4779,22,-86,-38,33
605,4312,10,-862,-4779,22,-85,-39,34
606,4312,7,-863,-4776,22,-86,-38,34
607,4316,6,-862,-4778,22,-87,-38,33
608,4313,5,-863,-4779,22,-87,-37,34
609,4319,5,-866,-4780,22,-87,-37,35
610,4319,0,-863,-4780,22,-86,-36,35
611,4323,4,-863,-4780,22,-86,-37,36
612,4318,4,-862,-4782,22,-86,-38,35
613,4317,3,-853,-4778,22,-86,-39,35
614,4316,9,-857,-4777,22,-86,-40,35
615,4317,8,-856,-4778,22,-87,-39,35
616,4318,5,-858,-4778,22,-88,-37,35
617,4319,8,-859,-4779,22,-87,-38,34
618,4323,7,-860,-4781,22,-86,-38,34
619,4322,10,-857,-4785,22,-86,-37,34
620,4316,11,-858,-4783,22,-86,-37,34
621,4314,8,-857,-4780,22,-86,-37,33
622,4315,7,-856,-4779,22,-86,-38,34
623,4319,4,-856,-4777,22,-87,-38,34
624,4318,3,-855,-4779,22,-87,-37,35
625,4319,-1,-858,-4780,22,-88,-38,34
626,4321,-2,-853,-4780,22,-87,-38,34
627,4323,0,-861,-4780,22,-88,-38,35
628,4320,5,-859,-4778,22,-88,-39,34
629,4321,7,-860,-4781,22,-88,-38,35
630,4317,1,-861,-4779,22,-88,-39,35
631,4320,5,-859,-4781,22,-87,-38,34
632,4320,2,-862,-4779,22,-87,-38,35
633,4323,2,-860,-4780,22,-87,-38,34
634,4322,4,-856,-4780,22,-88,-37,34
635,4322,4,-850,-4778,22,-88,-37,34
636,4323,0,-859,-4778,22,-86,-37,34
637,4324,2,-855,-4779,22,-87,-39,35
638,4321,-1,-858,-4782,22,-87,-40,35
639,4317,1,-854,-4781,22,-86,-39,35
640,4318,2,-860,-4778,22,-86,-40,35
641,4323,4,-862,-4778,22,-86,-39,34
642,4321,4,-853,-4777,22,-86,-38,34
643,4314,1,-852,-4777,22,-87,-38,35
644,4316,1,-856,-4777,22,-86,-38,35
645,4321,-1,-860,-4781,22,-87,-38,35
646,4317,1,-859,-4777,22,-86,-38,35
647,4316,-3,-854,-4774,22,-86,-38,35
648,4319,4,-856,-4776,22,-86,-38,36
649,4316,1,-854,-4777,22,-87,-38,34
650,4316,-2,-857,-4779,22,-87,-38,34
651,4317,-2,-856,-4779,22,-86,-38,35
652,4321,-2,-857,-4778,22,-87,-38,35
653,4316,-1,-860,-4778,22,-86,-38,35
654,4316,2,-861,-4778,22,-85,-37,35
655,4321,7,-853,-4774,22,-85,-37,35
656,4320,8,-857,-4775,22,-86,-37,34
657,4316,11,-861,-4777,22,-87,-37,34
658,4320,11,-864,-4776,22,-86,-37,34
659,4319,10,-862,-4776,22,-86,-39,35
660,4315,5,-863,-4777,22,-86,-38,34
661,4315,2,-865,-4777,22,-86,-39,33
662,4318,4,-867,-4777,22,-86,-38,33
663,4316,6,-862,-4776,22,-87,-38,34
664,4316,11,-859,-4775,22,-88,-37,36
665,4313,6,-862,-4774,22,-87,-37,35
666,4313,4,-859,-4775,22,-87,-37,34
667,4315,5,-863,-4776,22,-88,-38,34
668,4321,2,-861,-4777,22,-87,-38,34
669,4317,7,-859,-4777,22,-87,-37,34
670,4318,8,-862,-4776,22,-87,-37,34
671,4320,5,-863,-4773,22,-87,-38,34
672,4319,3,-863,-4778,22,-87,-38,34
673,4319,3,-869,-4779,22,-87,-38,35
674,4321,7,-860,-4775,22,-87,-39,34
675,4321,4,-859,-4777,22,-88,-38,35
676,4317,3,-863,-4777,22,-87,-38,34
677,4313,5,-861,-4779,22,-87,-37,34
678,4318,4,-858,-4778,22,-86,-37,34
679,4318,6,-860,-4778,22,-87,-38,34
680,4315,4,-859,-4777,22,-86,-38,34
681,4317,8,-861,-4778,22,-86,-38,35
682,4318,7,-865,-4776,22,-86,-38,35
683,4320,5,-861,-4777,22,-85,-38,34
684,4316,7,-861,-4777,22,-86,-38,34
685,4318,6,-858,-4778,22,-86,-38,34
686,4321,8,-858,-4777,22,-86,-38,34
687,4321,3,-856,-4777,22,-87,-38,34
688,4323,4,-855,-4779,22,-86,-38,34
689,4322,5,-852,-4777,22,-86,-38,35
690,4320,2,-853,-4778,22,-87,-38,35
691,4317,3,-857,-4777,22,-86,-39,34
692,4311,5,-852,-4778,22,-86,-39,35
693,4314,6,-851,-4777,22,-87,-39,34
694,4314,4,-857,-4777,22,-86,-38,34
695,4317,3,-860,-4778,22,-86,-38,34
696,4319,-1,-862,-4777,22,-85,-37,34
697,4319,-1,-861,-4778,22,-85,-38,34
698,4321,-1,-861,-4776,22,-85,-39,34
699,4322,3,-855,-4777,22,-85,-39,35
700,4319,3,-851,-4780,22,-86,-39,35
701,4321,6,-853,-4783,22,-86,-39,35
702,4321,3,-856,-4783,22,-88,-39,35
703,4320,0,-861,-4777,22,-88,-38,35
704,4320,-2,-859,-4774,22,-89,-37,35
705,4315,3,-860,-4775,22,-87,-37,34
706,4311,6,-857,-4779,22,-87,-38,35
707,4312,7,-862,-4782,22,-87,-38,35
708,4311,3,-862,-4780,22,-86,-38,34
709,4311,5,-863,-4780,22,-87,-38,34
710,4311,5,-858,-4777,22,-87,-39,34
711,4314,6,-855,-4776,22,-86,-39,35
712,4313,4,-854,-4777,22,-86,-38,34
713,4312,2,-858,-4777,22,-86,-38,33
714,4317,-1,-857,-4776,22,-86,-38,34
715,4316,3,-857,-4777,22,-87,-38,34
716,4318,6,-859,-4777,22,-86,-39,36
717,4318,4,-859,-4776,22,-86,-38,35
718,4318,5,-855,-4775,22,-85,-39,35
719,4315,3,-859,-4773,22,-85,-38,35
720,4318,6,-862,-4776,22,-86,-38,36
721,4317,8,-855,-4777,22,-87,-37,34
722,4318,1,-859,-4776,22,-86,-37,34
723,4321,2,-857,-4780,22,-87,-38,34
724,4322,2,-862,-4778,22,-85,-38,34
725,4325,3,-864,-4776,22,-85,-38,34
726,4322,3,-862,-4772,22,-86,-38,35
727,4327,1,-862,-4772,22,-86,-38,34
728,4321,1,-858,-4774,22,-86,-39,35
729,4323,4,-860,-4775,22,-86,-39,35
730,4323,1,-856,-4776,22,-87,-38,35
731,4320,0,-850,-4776,22,-87,-38,35
732,4319,0,-855,-4775,22,-88,-38,35
733,4317,1,-858,-4775,22,-87,-38,34
734,4317,4,-858,-4776,22,-88,-38,34
735,4316,7,-857,-4774,22,-87,-38,34
736,4314,7,-855,-4774,22,-87,-39,34
737,4315,5,-853,-4774,22,-88,-39,34
738,4315,7,-858,-4772,22,-88,-39,35
739,4321,0,-855,-4771,22,-87,-38,34
740,4324,0,-850,-4774,22,-86,-37,34
741,4324,1,-854,-4776,22,-86,-37,34
742,4326,5,-857,-4774,22,-86,-38,35
743,4324,7,-859,-4773,22,-86,-37,35
744,4315,4,-857,-4769,22,-84,-38,35
745,4317,0,-856,-4769,22,-84,-38,34
746,4315,1,-861,-4772,22,-85,-38,34
747,4320,-1,-866,-4775,22,-85,-39,35
748,4315,-1,-863,-4773,22,-86,-38,35
749,4317,-1,-867,-4773,22,-86,-38,35
750,4318,3,-869,-4773,22,-87,-37,36
751,4322,2,-861,-4774,22,-88,-37,35
752,4321,2,-857,-4778,22,-87,-38,35
753,4318,4,-854,-4779,22,-87,-37,34
754,4315,5,-853,-4777,22,-88,-38,33
755,4315,5,-854,-4770,22,-86,-39,33
756,4318,3,-853,-4771,22,-86,-38,34
757,4316,7,-858,-4773,22,-87,-38,35
758,4313,4,-861,-4771,22,-87,-38,34
759,4317,5,-861,-4772,22,-87,-37,34
760,4319,2,-858,-4773,22,-87,-37,34
761,4317,2,-855,-4771,22,-87,-37,34
762,4317,5,-850,-4773,22,-87,-38,34
763,4316,5,-851,-4771,22,-87,-39,36
764,4320,3,-849,-4772,22,-88,-39,35
765,4320,0,-857,-4772,22,-88,-38,35
766,4316,5,-849,-4776,22,-88,-37,35
767,4312,2,-850,-4777,22,-87,-37,35
768,4310,2,-850,-4774,22,-87,-38,35
769,4314,1,-853,-4774,22,-87,-37,34
770,4317,2,-861,-4774,22,-87,-37,33
771,4314,3,-867,-4775,22,-87,-37,33
772,4315,4,-862,-4775,22,-86,-37,34
773,4315,3,-861,-4775,22,-86,-38,35
774,4315,0,-861,-4776,22,-86,-39,36
775,4317,1,-860,-4775,22,-88,-39,36
776,4315,-1,-868,-4774,22,-87,-39,36
777,4313,5,-863,-4774,22,-87,-39,35
778,4310,4,-863,-4773,22,-86,-39,34
779,4320,3,-863,-4775,22,-86,-38,34
780,4315,1,-861,-4775,22,-86,-39,34
781,4316,1,-859,-4777,22,-87,-39,35
782,4313,1,-856,-4778,22,-87,-39,35
783,4313,5,-856,-4776,22,-86,-39,35
784,4315,1,-851,-4778,22,-86,-40,35
785,4316,-4,-859,-4776,22,-85,-39,34
786,4314,-2,-855,-4774,22,-85,-38,34
787,4312,1,-856,-4776,22,-86,-38,34
788,4313,4,-862,-4778,22,-86,-39,34
789,4315,3,-868,-4775,22,-85,-39,34
790,4313,6,-860,-4774,22,-85,-38,33
791,4313,3,-858,-4774,22,-86,-39,34
792,4315,2,-852,-4775,22,-87,-38,34
793,4317,-2,-854,-4776,22,-87,-38,34
794,4314,-2,-859,-4778,22,-87,-38,34
795,4315,3,-864,-4774,22,-87,-39,34
796,4312,0,-859,-4774,22,-87,-39,34
797,4315,4,-856,-4777,22,-87,-37,34
798,4317,4,-859,-4772,22,-86,-38,35
799,4311,7,-851,-4774,22,-87,-38,35
800,4313,5,-848,-4774,22,-88,-37,36
801,4313,3,-853,-4772,22,-88,-39,36
802,4317,4,-853,-4771,22,-88,-39,35
803,4317,-1,-857,-4773,22,-88,-38,34
804,4317,-1,-857,-4772,22,-87,-38,34
805,4316,0,-855,-4772,22,-87,-38,34
806,4318,0,-861,-4774,22,-86,-39,35
807,4318,-1,-860,-4778,22,-86,-37,34
808,4314,0,-862,-4780,22,-86,-38,35
809,4320,-1,-861,-4782,22,-85,-39,35
810,4321,-2,-854,-4778,22,-85,-38,34
811,4321,1,-859,-4779,22,-86,-38,34
812,4319,2,-852,-4778,22,-86,-38,36
813,4317,3,-856,-4775,22,-86,-38,34
814,4317,5,-857,-4777,22,-87,-37,34
815,4314,0,-857,-4778,22,-86,-37,34
816,4315,3,-855,-4774,22,-86,-38,35
817,4313,4,-851,-4773,22,-88,-38,34
818,4317,5,-850,-4772,22,-87,-38,34
819,4316,2,-858,-4776,22,-86,-39,35
820,4320,1,-854,-4772,22,-87,-39,34
821,4319,1,-863,-4772,22,-87,-38,34
822,4317,6,-859,-4772,22,-85,-37,35
823,4314,6,-860,-4774,22,-87,-37,34
824,4318,7,-863,-4775,22,-87,-37,35
825,4318,5,-854,-4776,22,-87,-37,35
826,4322,5,-861,-4776,22,-87,-37,35
827,4320,6,-853,-4773,22,-87,-38,35
828,4321,2,-845,-4773,22,-87,-38,34
829,4318,1,-846,-4773,22,-87,-39,34
830,4317,2,-847,-4772,22,-87,-38,33
831,4315,5,-851,-4772,22,-87,-38,34
832,4315,3,-853,-4772,22,-86,-39,34
833,4316,1,-857,-4775,22,-86,-39,35
834,4316,3,-855,-4775,22,-87,-39,35
835,4317,2,-857,-4775,22,-86,-38,35
836,4318,2,-861,-4774,22,-86,-38,34
837,4318,2,-861,-4777,22,-86,-37,35
838,4321,6,-855,-4775,22,-87,-38,34
839,4320,3,-863,-4775,22,-88,-38,34
840,4320,3,-858,-4775,22,-87,-37,35
841,4323,5,-861,-4771,22,-87,-38,35
842,4320,4,-859,-4774,22,-87,-37,35
843,4320,2,-856,-4772,22,-86,-38,35
844,4316,3,-859,-4774,22,-86,-38,35
845,4316,7,-857,-4775,22,-87,-38,34
846,4315,7,-855,-4775,22,-87,-39,35
847,4316,1,-869,-4775,22,-87,-38,34
848,4315,0,-861,-4774,22,-87,-37,33
849,4315,-1,-860,-4777,22,-87,-38,33
850,4314,4,-861,-4774,22,-87,-38,34
851,4313,3,-858,-4774,22,-86,-38,34
852,4318,3,-853,-4772,22,-86,-37,34
853,4315,0,-857,-4772,22,-86,-38,34
854,4314,0,-856,-4775,22,-86,-39,35
855,4315,-2,-856,-4773,22,-85,-38,35
856,4315,-2,-850,-4775,22,-86,-38,35
857,4316,1,-849,-4771,22,-87,-38,35
858,4316,3,-852,-4773,22,-87,-38,34
859,4317,6,-854,-4772,22,-88,-37,35
860,4314,5,-854,-4772,22,-87,-37,34
861,4317,-1,-854,-4769,22,-87,-37,34
862,4315,0,-855,-4772,22,-88,-39,34
863,4316,-2,-856,-4772,22,-88,-39,34
864,4311,0,-852,-4771,22,-87,-38,33
865,4311,3,-859,-4772,22,-86,-38,35
866,4313,2,-860,-4775,22,-87,-37,34
867,4317,5,-851,-4775,22,-87,-37,35
868,4318,1,-849,-4774,22,-87,-38,35
869,4313,1,-851,-4776,22,-87,-39,34
870,4316,-3,-852,-4775,22,-87,-38,33
871,4315,-2,-856,-4775,22,-87,-38,33
872,4312,-3,-850,-4775,22,-87,-37,33
873,4316,0,-851,-4776,22,-86,-37,33
874,4313,1,-849,-4771,22,-86,-38,33
875,4316,-2,-857,-4773,22,-86,-37,33
876,4317,0,-855,-4773,22,-87,-37,33
877,4323,2,-857,-4774,22,-87,-37,33
878,4318,3,-855,-4776,22,-87,-38,33
879,4322,3,-860,-4775,22,-88,-37,34
880,4323,6,-856,-4774,22,-87,-38,33
881,4318,1,-859,-4775,22,-87,-38,33
882,4316,0,-861,-4776,22,-87,-38,34
883,4319,4,-862,-4773,22,-87,-38,34
884,4320,2,-860,-4775,22,-86,-38,33
885,4318,-2,-859,-4776,22,-86,-38,33
886,4315,1,-852,-4776,22,-86,-38,33
887,4313,5,-856,-4776,22,-86,-38,33
888,4311,4,-851,-4777,22,-86,-38,32
889,4314,8,-858,-4777,22,-87,-38,33
890,4317,5,-862,-4773,22,-87,-37,33
891,4314,3,-856,-4775,22,-87,-38,33
892,4312,6,-856,-4776,22,-88,-38,33
893,4312,8,-854,-4777,22,-88,-37,34
894,4310,3,-855,-4772,22,-88,-37,34
895,4310,4,-855,-4771,22,-87,-38,34
896,4312,4,-862,-4773,22,-88,-38,35
897,4311,3,-861,-4773,22,-87,-38,34
898,4310,1,-860,-4775,22,-86,-39,35
899,4315,2,-867,-4774,22,-87,-39,34
900,4318,2,-868,-4773,22,-87,-38,33
901,4318,1,-866,-4775,22,-86,-39,33
902,4318,3,-863,-4775,22,-85,-39,34
903,4320,9,-866,-4771,22,-86,-39,34
904,4317,5,-871,-4772,22,-86,-39,34
905,4320,7,-871,-4773,22,-85,-39,35
906,4318,5,-870,-4775,22,-85,-39,35
907,4317,5,-865,-4770,22,-85,-38,35
908,4320,5,-858,-4772,22,-87,-38,34
909,4321,0,-855,-4772,22,-87,-37,34
910,4322,2,-855,-4774,22,-86,-38,34
911,4323,3,-860,-4771,22,-86,-38,34
912,4317,6,-858,-4769,22,-86,-38,34
913,4319,1,-858,-4771,22,-86,-37,34
914,4320,3,-858,-4770,22,-88,-38,35
915,4316,4,-852,-4773,22,-87,-39,34
916,4314,2,-856,-4773,22,-87,-40,35
917,4314,3,-856,-4770,22,-87,-40,33
918,4317,0,-856,-4769,22,-87,-40,32
919,4316,7,-858,-4770,22,-86,-40,33
920,4316,4,-858,-4767,22,-85,-39,34
921,4320,5,-854,-4769,22,-85,-39,33
922,4320,5,-851,-4770,22,-86,-39,34
923,4317,4,-852,-4772,22,-86,-39,34
924,4314,-3,-857,-4773,22,-87,-37,34
925,4316,0,-859,-4774,22,-86,-38,34
926,4312,2,-856,-4776,22,-86,-38,34
927,4311,4,-860,-4775,22,-86,-37,35
928,4316,6,-858,-4778,22,-87,-37,35
929,4318,6,-861,-4774,22,-87,-37,34
930,4321,4,-871,-4772,22,-87,-37,35
931,4317,1,-869,-4773,22,-86,-37,35
932,4316,0,-864,-4773,22,-86,-36,34
933,4315,1,-865,-4772,22,-87,-37,34
934,4320,5,-866,-4773,22,-86,-38,35
935,4317,4,-863,-4773,22,-86,-38,35
936,4318,4,-870,-4773,22,-87,-37,35
937,4322,2,-869,-4773,22,-86,-38,34
938,4319,1,-866,-4772,22,-87,-38,34
939,4315,3,-869,-4775,22,-87,-38,34
940,4319,4,-865,-4771,22,-87,-37,34
941,4319,1,-865,-4771,22,-87,-37,34
942,4316,2,-869,-4773,22,-86,-37,35
943,4322,2,-863,-4773,22,-86,-38,35
944,4322,2,-857,-4771,22,-87,-38,34
945,4317,3,-865,-4774,22,-86,-39,34
946,4316,4,-863,-4775,22,-86,-38,34
947,4315,6,-866,-4777,22,-86,-38,35
948,4315,6,-862,-4773,22,-86,-38,34
949,4314,0,-862,-4773,22,-85,-38,34
950,4313,0,-862,-4772,22,-87,-39,34
951,4313,2,-865,-4773,22,-87,-38,34
952,4313,3,-866,-4774,22,-87,-38,35
953,4318,1,-864,-4774,22,-87,-39,34
954,4319,1,-860,-4773,22,-86,-38,34
955,4322,1,-857,-4774,22,-87,-37,35
956,4322,2,-854,-4775,22,-86,-38,34
957,4324,-3,-857,-4773,22,-86,-38,34
958,4320,-2,-860,-4775,22,-85,-36,34
959,4316,-3,-860,-4773,22,-86,-37,34
960,4318,-4,-856,-4772,22,-87,-38,34
961,4315,0,-849,-4771,22,-87,-36,34
962,4315,3,-848,-4776,22,-86,-37,35
963,4316,6,-851,-4776,22,-87,-38,35
964,4318,5,-855,-4773,22,-87,-39,34
965,4314,3,-851,-4776,22,-86,-39,34
966,4311,3,-850,-4777,22,-87,-38,34
967,4314,0,-857,-4776,22,-86,-38,34
968,4310,-3,-860,-4772,22,-87,-38,34
969,4309,-6,-858,-4771,22,-87,-38,34
970,4313,-4,-852,-4772,22,-86,-38,34
971,4314,-4,-852,-4773,22,-86,-39,35
972,4313,-1,-862,-4775,22,-87,-38,34
973,4315,6,-858,-4775,22,-86,-39,35
974,4315,2,-857,-4776,22,-87,-38,35
975,4311,2,-865,-4778,22,-87,-38,34
976,4317,2,-866,-4775,22,-86,-38,34
977,4319,3,-863,-4773,22,-87,-38,34
978,4322,1,-860,-4773,22,-87,-38,35
979,4318,0,-853,-4775,22,-87,-38,34
980,4317,0,-858,-4775,22,-87,-39,35
981,4317,3,-863,-4775,22,-87,-38,34
982,4317,3,-856,-4776,22,-88,-38,34
983,4320,4,-857,-4773,22,-88,-37,34
984,4320,2,-859,-4777,22,-88,-37,34
985,4321,3,-857,-4777,22,-87,-37,34
986,4317,2,-859,-4776,22,-87,-39,34
987,4315,7,-859,-4779,22,-88,-37,34
988,4317,6,-858,-4773,22,-87,-39,34
989,4320,3,-865,-4771,22,-87,-39,35
990,4317,5,-865,-4772,22,-87,-38,36
991,4314,2,-861,-4771,22,-87,-39,35
992,4320,1,-859,-4773,22,-87,-39,35
993,4316,-3,-853,-4772,22,-87,-39,33
994,4317,-2,-863,-4773,22,-86,-38,34
995,4316,3,-865,-4776,22,-87,-38,33
996,4315,4,-866,-4778,22,-87,-39,33
997,4314,2,-862,-4774,22,-87,-38,34
998,4315,-2,-864,-4775,22,-88,-38,34
