,acc_X,acc_Y,acc_Z,temp,tempC,gyr_X,gyr_Y,gyr_Z
0,2155,-8,-423,-4708,23,-353,-163,153
1,2168,-7,-422,-4717,23,-351,-140,137
2,2160,0,-420,-4707,23,-344,-177,135
3,2162,6,-422,-4689,23,-360,-160,130
4,2157,-4,-418,-4705,23,-341,-170,132
5,2166,0,-432,-4699,23,-345,-132,135
6,2163,5,-443,-4708,23,-364,-157,138
7,2166,-6,-442,-4691,23,-345,-158,134
8,2155,-5,-427,-4702,23,-334,-151,134
9,2150,7,-425,-4716,23,-341,-158,149
10,2168,-4,-438,-4707,23,-349,-167,138
11,2155,-7,-421,-4693,23,-344,-149,147
12,2160,8,-413,-4700,23,-353,-167,153
13,2159,-4,-433,-4705,23,-351,-144,129
14,2162,-2,-419,-4697,23,-347,-179,129
15,2163,-8,-428,-4699,23,-336,-153,137
16,2162,5,-418,-4696,23,-341,-160,134
17,2159,-6,-425,-4704,23,-349,-143,123
18,2149,-3,-427,-4700,23,-353,-144,126
19,2164,-11,-428,-4704,23,-356,-156,128
20,2166,12,-412,-4701,23,-346,-158,144
21,2159,-6,-417,-4713,23,-342,-145,128
22,2158,-9,-412,-4709,23,-342,-155,124
23,2156,-6,-433,-4705,23,-355,-155,126
24,2160,-2,-432,-4704,23,-333,-141,153
25,2162,3,-427,-4705,23,-338,-143,141
26,2163,8,-428,-4710,23,-338,-144,133
27,2161,5,-440,-4716,23,-349,-141,148
28,2155,-3,-419,-4714,23,-343,-136,133
29,2160,4,-436,-4707,23,-360,-159,122
30,2163,1,-439,-4704,23,-353,-133,146
31,2161,9,-416,-4710,23,-347,-145,132
32,2159,0,-435,-4701,23,-353,-145,142
33,2163,2,-403,-4701,23,-334,-149,140
34,2158,3,-420,-4686,23,-368,-183,150
35,2155,6,-424,-4699,23,-330,-146,150
36,2161,-1,-422,-4703,23,-354,-155,132
37,2157,-2,-424,-4708,23,-343,-137,143
38,2156,-3,-427,-4705,23,-344,-143,149
39,2152,-4,-426,-4704,23,-357,-146,144
40,2163,5,-433,-4700,23,-346,-138,147
41,2159,5,-427,-4718,23,-324,-154,135
42,2164,-4,-441,-4721,23,-358,-162,144
43,2161,4,-418,-4704,23,-347,-145,131
44,2162,2,-439,-4697,23,-346,-160,157
45,2160,1,-419,-4712,23,-353,-156,154
46,2158,12,-421,-4704,23,-352,-155,128
47,2158,7,-411,-4692,23,-342,-156,141
48,2148,4,-436,-4710,23,-364,-139,141
49,2168,3,-418,-4703,23,-339,-161,139
50,2169,5,-429,-4704,23,-339,-155,137
51,2164,-4,-432,-4691,23,-336,-154,143
52,2157,7,-422,-4691,23,-360,-153,147
53,2160,-10,-410,-4702,23,-347,-154,151
54,2159,9,-409,-4711,23,-344,-169,152
55,2159,-5,-428,-4715,23,-338,-161,136
56,2158,-2,-414,-4722,23,-339,-151,124
57,2154,5,-413,-4699,23,-359,-138,130
58,2159,-4,-425,-4711,23,-328,-160,150
59,2155,8,-423,-4700,23,-363,-159,147
60,2158,-1,-430,-4721,23,-339,-149,161
61,2157,8,-419,-4703,23,-359,-148,142
62,2166,-3,-433,-4698,23,-359,-146,146
63,2153,-10,-423,-4712,23,-361,-154,130
64,2160,5,-438,-4707,23,-350,-155,143
65,2161,-7,-430,-4711,23,-352,-150,149
66,2156,-6,-428,-4695,23,-326,-146,125
67,2173,9,-426,-4708,23,-354,-147,146
68,2167,-3,-429,-4700,23,-344,-146,144
69,2153,-3,-436,-4710,23,-361,-139,152
70,2160,-7,-442,-4714,23,-349,-155,153
71,2149,-2,-411,-4694,23,-348,-141,137
72,2162,-7,-425,-4707,23,-349,-139,123
73,2161,4,-424,-4711,23,-343,-137,141
74,2159,-3,-427,-4698,23,-337,-154,140
75,2157,-5,-420,-4707,23,-334,-159,124
76,2159,-1,-427,-4699,23,-349,-151,131
77,2162,4,-422,-4709,23,-344,-156,154
78,2162,7,-409,-4694,23,-346,-166,133
79,2157,9,-430,-4716,23,-361,-153,131
80,2161,-5,-438,-4707,23,-341,-142,134
81,2151,8,-408,-4711,23,-353,-157,140
82,2159,-10,-417,-4697,23,-340,-165,137
83,2161,-4,-433,-4714,23,-336,-158,152
84,2162,-8,-421,-4706,23,-324,-158,137
85,2162,5,-420,-4702,23,-355,-162,132
86,2158,-6,-417,-4703,23,-322,-161,137
87,2160,1,-419,-4705,23,-369,-156,147
88,2162,-3,-427,-4695,23,-340,-147,141
89,2161,0,-427,-4708,23,-348,-140,137
90,2159,6,-424,-4693,23,-345,-145,128
91,2164,7,-424,-4708,23,-331,-168,134
92,2157,12,-424,-4696,23,-348,-159,140
93,2162,1,-418,-4706,23,-341,-144,138
94,2169,-7,-420,-4712,23,-352,-133,157
95,2152,4,-437,-4698,23,-350,-146,125
96,2164,-5,-430,-4700,23,-329,-153,138
97,2164,4,-422,-4706,23,-335,-153,134
98,2160,-5,-422,-4698,23,-351,-145,148
99,2157,2,-423,-4709,23,-346,-160,147
100,2172,1,-426,-4703,23,-361,-144,141
101,2162,-6,-434,-4716,23,-337,-143,147
102,2168,0,-422,-4702,23,-344,-127,152
103,2156,2,-435,-4699,23,-371,-148,169
104,2167,-1,-429,-4702,23,-340,-164,139
105,2156,-1,-429,-4689,23,-348,-143,150
106,2162,7,-429,-4704,23,-353,-153,132
107,2157,-8,-433,-4720,23,-356,-167,145
108,2163,1,-415,-4710,23,-349,-163,127
109,2155,7,-432,-4705,23,-342,-145,148
110,2149,-3,-411,-4709,23,-344,-143,134
111,2159,-6,-410,-4697,23,-351,-165,147
112,2165,6,-429,-4692,23,-348,-153,131
113,2170,6,-425,-4703,23,-358,-151,147
114,2157,-3,-433,-4708,23,-329,-169,143
115,2161,1,-420,-4706,23,-352,-158,126
116,2163,2,-412,-4706,23,-344,-147,137
117,2167,-5,-420,-4700,23,-351,-157,126
118,2167,4,-437,-4686,23,-336,-161,125
119,2161,-1,-439,-4710,23,-330,-146,153
120,2161,-1,-425,-4704,23,-356,-153,146
121,2161,-10,-439,-4699,23,-336,-148,126
122,2157,6,-428,-4692,23,-343,-163,143
123,2163,1,-437,-4698,23,-350,-142,136
124,2158,0,-421,-4709,23,-348,-145,141
125,2160,18,-424,-4708,23,-350,-143,128
126,2165,-3,-429,-4698,23,-354,-142,136
127,2161,-8,-430,-4701,23,-356,-157,144
128,2166,8,-439,-4719,23,-329,-153,148
129,2151,-4,-427,-4702,23,-344,-153,167
130,2151,13,-438,-4690,23,-335,-161,144
131,2159,-1,-420,-4692,23,-336,-151,151
132,2167,-4,-421,-4702,23,-349,-157,144
133,2163,0,-444,-4699,23,-336,-152,126
134,2163,5,-417,-4700,23,-350,-167,137
135,2171,1,-418,-4703,23,-349,-146,137
136,2154,-1,-414,-4705,23,-330,-158,130
137,2160,10,-439,-4702,23,-358,-154,142
138,2160,-9,-421,-4688,23,-334,-145,150
139,2164,-5,-418,-4694,23,-325,-143,152
140,2161,2,-429,-4693,23,-358,-167,128
141,2164,2,-438,-4690,23,-348,-154,147
142,2159,5,-419,-4709,23,-333,-149,131
143,2155,-1,-433,-4715,23,-334,-159,132
144,2152,-7,-442,-4696,23,-345,-161,137
145,2159,2,-431,-4702,23,-342,-137,153
146,2156,-1,-426,-4710,23,-333,-129,152
147,2158,0,-409,-4702,23,-335,-147,152
148,2160,1,-428,-4704,23,-331,-172,157
149,2158,2,-416,-4702,23,-342,-143,124
150,2155,1,-433,-4694,23,-350,-137,141
151,2164,-19,-436,-4708,23,-343,-144,131
152,2146,0,-413,-4701,23,-353,-153,156
153,2172,-5,-419,-4693,23,-343,-159,143
154,2163,3,-411,-4699,23,-339,-136,154
155,2159,0,-419,-4701,23,-360,-166,135
156,2154,10,-413,-4703,23,-346,-138,145
157,2172,0,-417,-4691,23,-347,-147,146
158,2157,-1,-429,-4709,23,-347,-142,139
159,2152,7,-426,-4709,23,-341,-141,140
160,2157,-5,-423,-4686,23,-359,-147,141
161,2166,9,-421,-4690,23,-343,-155,145
162,2167,0,-423,-4712,23,-360,-147,130
163,2168,-1,-418,-4682,23,-346,-144,142
164,2156,8,-435,-4704,23,-350,-173,146
165,2160,4,-420,-4713,23,-342,-155,150
166,2162,7,-422,-4711,23,-365,-156,133
167,2152,5,-428,-4709,23,-333,-134,142
168,2148,1,-411,-4696,23,-338,-147,129
169,2159,-1,-422,-4715,23,-330,-145,138
170,2154,-3,-428,-4701,23,-344,-140,152
171,2145,-6,-435,-4694,23,-364,-156,141
172,2162,0,-418,-4695,23,-339,-180,136
173,2164,-10,-441,-4702,23,-340,-157,138
174,2170,-9,-421,-4704,23,-345,-137,123
175,2167,4,-415,-4704,23,-357,-160,141
176,2164,8,-407,-4718,23,-352,-172,125
177,2162,11,-436,-4698,23,-337,-153,134
178,2161,16,-429,-4714,23,-345,-161,136
179,2168,-3,-428,-4700,23,-353,-153,147
180,2164,8,-424,-4706,23,-350,-152,142
181,2157,10,-436,-4710,23,-344,-150,120
182,2165,5,-426,-4697,23,-351,-160,142
183,2165,0,-423,-4707,23,-346,-166,151
184,2161,-3,-430,-4701,23,-347,-141,156
185,2165,2,-426,-4706,23,-352,-141,135
186,2167,4,-424,-4713,23,-350,-153,139
187,2169,-5,-425,-4698,23,-336,-168,137
188,2164,-4,-430,-4720,23,-348,-132,118
189,2156,3,-430,-4689,23,-338,-149,132
190,2159,-4,-439,-4699,23,-344,-159,121
191,2165,2,-427,-4698,23,-353,-145,134
192,2161,10,-433,-4704,23,-354,-144,170
193,2154,5,-426,-4677,23,-339,-151,138
194,2149,-6,-434,-4704,23,-351,-142,149
195,2154,4,-429,-4706,23,-360,-149,151
196,2169,3,-421,-4706,23,-347,-150,158
197,2157,-3,-424,-4712,23,-333,-156,132
198,2144,9,-405,-4706,23,-345,-151,132
199,2162,2,-421,-4710,23,-337,-147,135
200,2160,4,-410,-4708,23,-344,-169,141
201,2156,-14,-421,-4701,23,-338,-155,139
202,2158,2,-414,-4695,23,-332,-133,148
203,2152,0,-423,-4705,23,-350,-147,139
204,2164,3,-432,-4704,23,-340,-148,142
205,2165,3,-421,-4715,23,-346,-153,132
206,2148,4,-420,-4712,23,-326,-132,123
207,2158,4,-442,-4696,23,-328,-143,142
208,2157,0,-430,-4702,23,-336,-154,144
209,2153,2,-432,-4708,23,-361,-158,145
210,2158,2,-416,-4702,23,-345,-151,144
211,2160,5,-424,-4708,23,-348,-156,143
212,2162,2,-437,-4708,23,-337,-142,142
213,2168,1,-425,-4699,23,-347,-161,131
214,2158,-1,-425,-4694,23,-343,-134,159
215,2163,-11,-435,-4709,23,-340,-140,137
216,2161,-1,-423,-4700,23,-356,-157,131
217,2155,0,-434,-4708,23,-351,-140,143
218,2161,0,-418,-4706,23,-363,-155,138
219,2161,-8,-429,-4707,23,-353,-168,144
220,2154,-1,-441,-4698,23,-339,-147,130
221,2157,1,-428,-4713,23,-344,-154,128
222,2166,1,-427,-4701,23,-340,-140,144
223,2158,3,-424,-4704,23,-341,-153,128
224,2162,-1,-418,-4696,23,-360,-140,152
225,2151,0,-426,-4697,23,-361,-150,142
226,2156,-2,-443,-4702,23,-353,-156,128
227,2161,3,-428,-4716,23,-350,-158,132
228,2155,-3,-413,-4691,23,-361,-171,136
229,2166,-6,-429,-4691,23,-336,-152,129
230,2156,6,-435,-4696,23,-351,-141,141
231,2153,-2,-403,-4699,23,-328,-150,143
232,2163,-2,-419,-4693,23,-330,-145,139
233,2157,3,-416,-4695,23,-364,-144,139
234,2156,5,-421,-4703,23,-344,-156,142
235,2162,15,-431,-4703,23,-353,-146,143
236,2165,-1,-437,-4704,23,-350,-163,138
237,2152,-3,-425,-4701,23,-341,-145,133
238,2158,4,-420,-4691,23,-344,-148,141
239,2165,5,-425,-4693,23,-354,-144,121
240,2151,2,-427,-4694,23,-340,-147,139
241,2159,5,-433,-4698,23,-373,-142,138
242,2160,3,-425,-4711,23,-363,-140,139
243,2158,-1,-420,-4692,23,-334,-151,128
244,2169,-4,-417,-4707,23,-340,-140,140
245,2162,2,-431,-4694,23,-332,-130,131
246,2162,0,-442,-4716,23,-344,-136,144
247,2156,2,-416,-4698,23,-346,-150,133
248,2154,-5,-415,-4705,23,-339,-158,135
249,2157,3,-416,-4722,23,-356,-157,135
250,2162,-8,-425,-4699,23,-350,-161,137
251,2165,7,-419,-4695,23,-344,-150,146
252,2169,7,-415,-4707,23,-334,-152,136
253,2162,-3,-416,-4693,23,-331,-165,142
254,2148,5,-418,-4702,23,-336,-157,144
255,2150,-9,-435,-4690,23,-348,-127,133
256,2160,3,-422,-4687,23,-350,-143,142
257,2163,5,-434,-4702,23,-368,-148,122
258,2163,-6,-410,-4698,23,-334,-165,131
259,2156,-7,-424,-4709,23,-351,-157,134
260,2162,-5,-432,-4709,23,-353,-154,150
261,2162,-1,-426,-4693,23,-355,-162,141
262,2166,-2,-423,-4685,23,-350,-145,146
263,2160,6,-433,-4690,23,-340,-152,120
264,2166,-6,-420,-4703,23,-333,-153,157
265,2168,-1,-427,-4709,23,-335,-151,140
266,2164,1,-430,-4703,23,-342,-168,150
267,2158,-3,-426,-4700,23,-349,-159,155
268,2161,9,-420,-4697,23,-350,-145,132
269,2161,6,-426,-4693,23,-347,-148,131
270,2166,1,-423,-4694,23,-349,-155,133
271,2160,2,-412,-4693,23,-344,-147,133
272,2159,-14,-420,-4700,23,-357,-150,124
273,2166,1,-424,-4693,23,-349,-154,134
274,2168,-6,-411,-4697,23,-339,-145,128
275,2157,5,-439,-4705,23,-353,-142,136
276,2165,11,-420,-4692,23,-335,-148,143
277,2160,2,-416,-4685,23,-345,-149,130
278,2159,2,-435,-4685,23,-349,-143,138
279,2154,2,-426,-4698,23,-332,-136,143
280,2164,-2,-424,-4702,23,-333,-151,153
281,2157,-2,-427,-4701,23,-355,-157,130
282,2161,2,-430,-4696,23,-355,-137,128
283,2156,-3,-439,-4696,23,-354,-140,122
284,2167,-7,-431,-4690,23,-334,-148,144
285,2165,9,-432,-4707,23,-347,-137,135
286,2147,6,-425,-4697,23,-359,-151,141
287,2159,-1,-426,-4700,23,-342,-150,151
288,2164,0,-428,-4711,23,-340,-135,156
289,2156,1,-414,-4708,23,-368,-159,149
290,2158,-4,-425,-4699,23,-348,-149,143
291,2159,5,-442,-4702,23,-355,-167,143
292,2153,-7,-419,-4696,23,-335,-144,147
293,2158,-1,-425,-4700,23,-346,-137,132
294,2166,7,-423,-4710,23,-354,-149,148
295,2158,-7,-426,-4698,23,-322,-161,142
296,2158,-2,-437,-4694,23,-332,-152,139
297,2156,3,-433,-4699,23,-330,-163,129
298,2152,-3,-437,-4700,23,-360,-147,139
299,2167,6,-417,-4691,23,-357,-143,149
300,2159,7,-434,-4687,23,-350,-156,152
301,2166,-3,-417,-4706,23,-349,-148,146
302,2167,0,-433,-4698,23,-339,-146,139
303,2157,-1,-437,-4686,23,-353,-167,136
304,2163,-7,-430,-4699,23,-332,-151,133
305,2164,3,-416,-4699,23,-332,-156,129
306,2171,9,-418,-4696,23,-365,-148,155
307,2167,8,-426,-4688,23,-349,-167,147
308,2160,-2,-413,-4688,23,-344,-153,138
309,2151,2,-422,-4698,23,-336,-134,129
310,2160,-4,-423,-4691,23,-354,-141,139
311,2165,8,-436,-4706,23,-346,-154,147
312,2162,-8,-420,-4696,23,-335,-160,117
313,2155,7,-412,-4694,23,-352,-148,150
314,2165,5,-430,-4701,23,-353,-143,150
315,2158,-7,-433,-4708,23,-348,-147,137
316,2162,-4,-420,-4709,23,-351,-139,125
317,2155,2,-438,-4690,23,-353,-159,135
318,2157,6,-446,-4676,23,-354,-156,133
319,2154,0,-426,-4704,23,-354,-149,137
320,2162,5,-422,-4702,23,-355,-164,140
321,2170,1,-431,-4696,23,-346,-151,147
322,2162,-6,-452,-4691,23,-357,-157,141
323,2157,2,-423,-4691,23,-361,-179,143
324,2167,-5,-419,-4696,23,-350,-151,141
325,2162,-3,-419,-4707,23,-335,-149,155
326,2148,-1,-417,-4697,23,-339,-144,160
327,2153,13,-436,-4698,23,-342,-143,131
328,2152,6,-440,-4698,23,-329,-146,137
329,2163,0,-426,-4707,23,-347,-148,135
330,2150,-8,-439,-4683,23,-360,-146,149
331,2165,-4,-407,-4688,23,-348,-145,137
332,2162,1,-426,-4695,23,-340,-164,149
333,2160,-3,-431,-4701,23,-347,-168,148
334,2160,2,-421,-4698,23,-353,-176,128
335,2160,-3,-414,-4692,23,-336,-134,131
336,2148,3,-427,-4704,23,-347,-135,136
337,2161,2,-420,-4698,23,-347,-163,128
338,2172,5,-416,-4707,23,-366,-136,145
339,2162,3,-435,-4690,23,-351,-141,128
340,2155,-8,-419,-4710,23,-344,-153,133
341,2169,-11,-417,-4698,23,-334,-168,140
342,2158,-3,-417,-4698,23,-332,-168,123
343,2157,0,-429,-4696,23,-343,-155,129
344,2160,14,-429,-4703,23,-358,-145,144
345,2160,-5,-422,-4700,23,-342,-154,141
346,2166,3,-440,-4692,23,-356,-161,139
347,2161,2,-445,-4685,23,-355,-162,132
348,2161,-2,-408,-4710,23,-342,-145,129
349,2155,0,-422,-4688,23,-337,-144,127
350,2160,-4,-430,-4700,23,-356,-161,139
351,2162,-7,-418,-4706,23,-354,-155,131
352,2156,7,-419,-4706,23,-344,-138,135
353,2164,1,-423,-4701,23,-339,-145,143
354,2165,3,-438,-4709,23,-343,-159,141
355,2160,7,-430,-4706,23,-356,-152,135
356,2156,10,-425,-4705,23,-345,-155,149
357,2167,-7,-429,-4694,23,-332,-151,149
358,2163,-6,-423,-4700,23,-353,-149,140
359,2162,2,-428,-4702,23,-349,-141,160
360,2148,7,-417,-4710,23,-356,-131,144
361,2167,0,-420,-4709,23,-351,-158,147
362,2169,-1,-429,-4698,23,-364,-151,126
363,2159,-1,-436,-4702,23,-356,-160,143
364,2153,-1,-437,-4683,23,-368,-152,154
365,2159,-1,-429,-4707,23,-343,-156,140
366,2165,4,-424,-4713,23,-348,-149,134
367,2167,-1,-406,-4689,23,-357,-165,131
368,2160,-5,-420,-4709,23,-351,-156,153
369,2158,-3,-412,-4706,23,-346,-158,137
370,2165,-11,-425,-4699,23,-360,-175,118
371,2155,0,-421,-4716,23,-351,-155,152
372,2153,-5,-448,-4699,23,-363,-136,141
373,2152,0,-424,-4706,23,-334,-145,130
374,2157,-4,-417,-4699,23,-339,-156,133
375,2154,-10,-425,-4692,23,-336,-130,143
376,2164,-4,-433,-4697,23,-352,-152,147
377,2163,0,-429,-4704,23,-346,-168,146
378,2160,-2,-423,-4689,23,-334,-155,158
379,2160,-4,-420,-4703,23,-334,-146,147
380,2154,10,-415,-4698,23,-374,-164,125
381,2157,5,-405,-4703,23,-342,-157,150
382,2161,3,-430,-4707,23,-348,-156,129
383,2156,-2,-430,-4700,23,-343,-139,142
384,2156,9,-426,-4707,23,-345,-137,134
385,2152,8,-420,-4689,23,-354,-155,139
386,2164,-6,-403,-4697,23,-343,-135,159
387,2167,5,-406,-4691,23,-337,-142,143
388,2159,5,-435,-4703,23,-357,-148,142
389,2150,0,-421,-4695,23,-354,-156,119
390,2168,-1,-421,-4695,23,-349,-151,142
391,2164,7,-403,-4690,23,-353,-136,151
392,2160,-5,-418,-4702,23,-345,-147,133
393,2156,3,-434,-4694,23,-342,-134,135
394,2150,10,-435,-4707,23,-340,-147,132
395,2148,9,-428,-4699,23,-338,-149,148
396,2161,11,-421,-4708,23,-344,-155,129
397,2158,2,-423,-4697,23,-347,-178,152
398,2153,5,-415,-4695,23,-346,-163,144
399,2167,-1,-429,-4690,23,-343,-161,129
400,2156,-2,-426,-4690,23,-355,-146,142
401,2162,0,-424,-4712,23,-352,-159,155
402,2158,-9,-437,-4699,23,-333,-160,142
403,2156,5,-427,-4703,23,-355,-142,139
404,2160,4,-419,-4696,23,-365,-148,142
405,2159,7,-434,-4702,23,-341,-158,141
406,2166,-3,-420,-4696,23,-349,-158,150
407,2153,-1,-437,-4704,23,-352,-151,165
408,2160,10,-417,-4702,23,-346,-159,142
409,2168,5,-418,-4700,23,-344,-155,145
410,2159,6,-415,-4699,23,-353,-154,142
411,2151,1,-425,-4699,23,-353,-142,139
412,2159,-9,-412,-4699,23,-334,-144,155
413,2158,3,-439,-4699,23,-344,-140,133
414,2164,-6,-426,-4705,23,-335,-149,153
415,2162,13,-410,-4694,23,-341,-152,124
416,2160,-1,-430,-4697,23,-334,-147,130
417,2150,5,-428,-4693,23,-344,-127,142
418,2154,3,-438,-4713,23,-365,-153,143
419,2154,-1,-426,-4704,23,-353,-134,147
420,2158,9,-428,-4695,23,-355,-128,143
421,2158,1,-418,-4707,23,-341,-169,141
422,2143,3,-404,-4697,23,-320,-151,139
423,2157,7,-413,-4698,23,-329,-130,142
424,2155,9,-433,-4706,23,-343,-157,143
425,2163,0,-420,-4694,23,-348,-143,144
426,2162,-1,-423,-4693,23,-347,-160,131
427,2162,4,-429,-4698,23,-339,-156,135
428,2162,-4,-425,-4693,23,-350,-138,142
429,2155,-2,-433,-4684,23,-342,-150,151
430,2163,2,-421,-4684,23,-349,-168,150
431,2151,1,-424,-4690,23,-348,-152,144
432,2155,3,-430,-4715,23,-368,-166,144
433,2155,-2,-427,-4682,23,-355,-146,142
434,2163,4,-424,-4710,23,-333,-161,134
435,2169,-1,-415,-4693,23,-354,-154,144
436,2158,2,-447,-4685,23,-351,-152,134
437,2162,-5,-432,-4705,23,-350,-156,144
438,2148,5,-441,-4695,23,-347,-159,143
439,2160,10,-417,-4705,23,-354,-169,156
440,2147,-5,-423,-4702,23,-341,-141,145
441,2158,0,-434,-4693,23,-356,-149,135
442,2154,2,-431,-4700,23,-344,-143,132
443,2160,-2,-437,-4699,23,-345,-160,144
444,2162,5,-428,-4698,23,-338,-140,139
445,2162,0,-429,-4693,23,-343,-159,136
446,2165,6,-421,-4699,23,-356,-157,147
447,2157,-8,-439,-4695,23,-345,-147,131
448,2156,-1,-412,-4704,23,-331,-153,148
449,2158,-3,-421,-4681,23,-335,-151,141
450,2156,10,-438,-4691,23,-342,-157,141
451,2159,2,-432,-4693,23,-344,-151,151
452,2155,-4,-428,-4708,23,-350,-168,154
453,2152,-1,-409,-4697,23,-347,-165,131
454,2156,0,-424,-4698,23,-339,-167,143
455,2158,7,-434,-4699,23,-351,-155,140
456,2166,8,-414,-4705,23,-318,-151,126
457,2164,-1,-425,-4694,23,-343,-155,144
458,2160,4,-415,-4707,23,-317,-149,125
459,2163,-7,-429,-4688,23,-354,-142,129
460,2158,6,-413,-4703,23,-333,-146,158
461,2160,-5,-433,-4706,23,-334,-138,143
462,2168,-1,-433,-4696,23,-346,-152,150
463,2164,-1,-420,-4711,23,-347,-161,158
464,2165,-2,-435,-4694,23,-351,-151,133
465,2162,-3,-421,-4691,23,-334,-145,148
466,2155,5,-417,-4701,23,-353,-155,144
467,2170,4,-434,-4677,23,-359,-156,136
468,2158,2,-415,-4694,23,-349,-161,161
469,2166,2,-422,-4699,23,-369,-142,142
470,2158,6,-427,-4689,23,-337,-153,131
471,2162,9,-400,-4698,23,-346,-165,134
472,2164,1,-425,-4698,23,-339,-154,130
473,2155,-7,-434,-4702,23,-343,-159,139
474,2162,8,-428,-4680,23,-354,-166,144
475,2161,-2,-431,-4679,23,-368,-138,122
476,2154,-1,-421,-4695,23,-342,-161,134
477,2165,1,-428,-4688,23,-346,-147,139
478,2158,-3,-416,-4700,23,-343,-174,134
479,2158,-1,-416,-4711,23,-350,-176,143
480,2169,-5,-425,-4704,23,-337,-170,144
481,2170,9,-423,-4705,23,-342,-152,143
482,2158,2,-415,-4701,23,-348,-175,134
483,2153,5,-427,-4709,23,-343,-148,130
484,2162,9,-423,-4696,23,-347,-155,143
485,2171,-1,-410,-4705,23,-348,-164,124
486,2172,7,-417,-4694,23,-347,-152,143
487,2163,-3,-409,-4711,23,-344,-145,148
488,2164,2,-432,-4705,23,-345,-135,145
489,2164,-4,-436,-4683,23,-338,-149,122
490,2155,4,-419,-4700,23,-346,-149,146
491,2154,-2,-427,-4695,23,-342,-146,136
492,2159,7,-426,-4710,23,-343,-159,135
493,2159,10,-435,-4696,23,-350,-158,159
494,2164,-8,-433,-4711,23,-353,-145,144
495,2165,6,-437,-4707,23,-345,-145,137
496,2160,0,-415,-4695,23,-349,-147,132
497,2159,-1,-422,-4698,23,-343,-150,147
498,2162,5,-426,-4717,23,-332,-153,139
499,2156,-1,-433,-4715,23,-331,-155,149
500,2160,10,-420,-4698,23,-346,-139,136
501,2164,12,-425,-4699,23,-336,-140,139
502,2161,-4,-428,-4705,23,-340,-135,149
503,2158,7,-429,-4695,23,-347,-149,141
504,2159,-12,-425,-4688,23,-358,-158,138
505,2156,-6,-422,-4706,23,-358,-140,148
506,2155,-1,-431,-4702,23,-344,-144,131
507,2161,10,-419,-4701,23,-326,-143,120
508,2160,-3,-424,-4694,23,-344,-135,147
509,2162,11,-427,-4701,23,-350,-146,141
510,2167,1,-429,-4702,23,-341,-163,134
511,2156,1,-425,-4700,23,-336,-127,132
512,2170,11,-426,-4692,23,-347,-153,145
513,2159,-1,-416,-4696,23,-353,-145,143
514,2159,-7,-417,-4700,23,-352,-154,128
515,2166,2,-436,-4697,23,-339,-144,138
516,2166,-5,-432,-4691,23,-341,-140,153
517,2157,-3,-430,-4693,23,-339,-159,124
518,2153,-3,-413,-4685,23,-348,-143,142
519,2169,-2,-429,-4696,23,-370,-149,165
520,2150,-11,-447,-4700,23,-324,-137,161
521,2154,-5,-430,-4693,23,-341,-150,131
522,2157,5,-422,-4694,23,-350,-132,123
523,2156,2,-424,-4703,23,-349,-139,133
524,2167,3,-408,-4695,23,-353,-141,155
525,2162,-4,-425,-4701,23,-338,-162,143
526,2150,-2,-430,-4699,23,-348,-163,132
527,2160,-1,-416,-4712,23,-337,-146,135
528,2170,4,-433,-4685,23,-339,-152,144
529,2144,4,-416,-4712,23,-326,-150,138
530,2167,6,-424,-4704,23,-345,-130,131
531,2154,-12,-424,-4693,23,-343,-144,139
532,2162,2,-424,-4700,23,-336,-144,148
533,2159,4,-426,-4699,23,-360,-155,138
534,2161,-9,-424,-4702,23,-350,-129,127
535,2156,-5,-434,-4692,23,-360,-145,141
536,2148,-9,-426,-4693,23,-339,-146,129
537,2166,7,-416,-4698,23,-335,-147,155
538,2168,-2,-425,-4706,23,-336,-155,145
539,2163,1,-430,-4697,23,-339,-144,147
540,2151,9,-415,-4698,23,-346,-143,128
541,2162,12,-429,-4713,23,-354,-141,116
542,2163,-3,-428,-4696,23,-330,-145,148
543,2159,-1,-429,-4688,23,-351,-158,126
544,2162,5,-421,-4693,23,-331,-160,157
545,2151,-10,-424,-4704,23,-343,-149,142
546,2167,1,-436,-4712,23,-349,-155,135
547,2163,7,-429,-4695,23,-347,-140,144
548,2149,3,-420,-4692,23,-354,-154,135
549,2146,-4,-412,-4706,23,-358,-136,138
550,2156,-6,-430,-4709,23,-346,-136,148
551,2158,-3,-438,-4708,23,-349,-145,149
552,2146,1,-416,-4695,23,-332,-171,143
553,2166,1,-435,-4691,23,-349,-163,146
554,2160,-1,-420,-4703,23,-354,-157,144
555,2164,-1,-427,-4702,23,-335,-130,144
556,2161,-6,-433,-4692,23,-333,-151,126
557,2163,-1,-415,-4697,23,-346,-124,148
558,2162,11,-422,-4694,23,-343,-143,128
559,2158,-3,-424,-4700,23,-340,-133,137
560,2152,5,-435,-4687,23,-363,-146,129
561,2155,-7,-437,-4696,23,-321,-163,134
562,2149,0,-423,-4701,23,-357,-154,143
563,2169,5,-431,-4691,23,-350,-151,125
564,2161,4,-414,-4695,23,-342,-153,129
565,2164,-12,-423,-4690,23,-351,-149,142
566,2162,7,-419,-4712,23,-331,-143,153
567,2164,5,-421,-4701,23,-349,-160,136
568,2166,2,-426,-4692,23,-331,-158,146
569,2155,-14,-430,-4704,23,-328,-135,141
570,2161,9,-448,-4698,23,-347,-142,132
571,2162,3,-431,-4695,23,-352,-146,138
572,2158,11,-426,-4691,23,-334,-166,135
573,2157,2,-425,-4709,23,-341,-156,139
574,2160,1,-419,-4698,23,-360,-149,138
575,2161,8,-434,-4701,23,-344,-165,148
576,2157,5,-434,-4701,23,-331,-154,124
577,2154,0,-425,-4706,23,-341,-166,141
578,2162,8,-429,-4697,23,-352,-149,128
579,2154,-2,-429,-4693,23,-347,-144,142
580,2167,1,-428,-4696,23,-342,-146,140
581,2155,-5,-433,-4709,23,-338,-136,144
582,2160,7,-422,-4694,23,-338,-140,149
583,2164,-4,-434,-4689,23,-341,-159,145
584,2148,4,-431,-4706,23,-346,-128,134
585,2157,-5,-424,-4690,23,-326,-143,148
586,2163,-5,-424,-4705,23,-342,-154,145
587,2150,4,-430,-4697,23,-341,-166,149
588,2148,5,-424,-4703,23,-360,-170,128
589,2156,0,-424,-4693,23,-342,-179,149
590,2155,2,-419,-4698,23,-338,-146,134
591,2164,-3,-430,-4705,23,-328,-157,148
592,2154,-1,-439,-4698,23,-338,-167,137
593,2153,11,-430,-4705,23,-331,-136,128
594,2155,12,-437,-4684,23,-343,-150,139
595,2150,15,-420,-4703,23,-367,-158,161
596,2163,-2,-410,-4688,23,-352,-143,135
597,2164,-1,-407,-4709,23,-337,-153,136
598,2149,-6,-423,-4704,23,-347,-159,158
599,2163,-8,-416,-4692,23,-357,-155,159
600,2155,5,-413,-4698,23,-355,-156,142
601,2156,0,-415,-4688,23,-358,-183,130
602,2170,3,-414,-4695,23,-347,-155,157
603,2152,6,-440,-4704,23,-339,-148,122
604,2152,-4,-422,-4706,23,-337,-157,135
605,2159,3,-418,-4694,23,-358,-147,148
606,2151,4,-425,-4693,23,-344,-171,145
607,2156,-3,-416,-4683,23,-326,-154,153
608,2166,23,-430,-4693,23,-347,-117,163
609,2161,4,-421,-4685,23,-340,-143,128
610,2161,3,-425,-4701,23,-339,-154,148
611,2160,-4,-421,-4695,23,-340,-157,142
612,2155,-2,-430,-4699,23,-343,-151,162
613,2149,-5,-428,-4686,23,-344,-157,148
614,2162,-1,-422,-4695,23,-349,-151,140
615,2162,-2,-425,-4697,23,-342,-132,148
616,2168,-6,-424,-4699,23,-344,-158,135
617,2157,-5,-430,-4688,23,-356,-155,134
618,2151,2,-415,-4693,23,-341,-141,139
619,2164,6,-429,-4702,23,-343,-137,135
620,2165,1,-420,-4688,23,-335,-149,139
621,2164,1,-419,-4686,23,-347,-147,152
622,2163,0,-426,-4693,23,-331,-150,146
623,2162,6,-438,-4703,23,-340,-163,143
624,2158,-8,-422,-4700,23,-343,-152,144
625,2161,5,-425,-4695,23,-338,-132,140
626,2168,6,-451,-4689,23,-343,-157,145
627,2164,5,-421,-4695,23,-343,-131,136
628,2157,9,-421,-4709,23,-336,-130,128
629,2153,-5,-427,-4703,23,-355,-167,149
630,2153,1,-424,-4700,23,-344,-138,145
631,2147,7,-428,-4697,23,-345,-169,119
632,2162,0,-441,-4691,23,-346,-149,126
633,2152,-3,-421,-4694,23,-342,-148,142
634,2152,0,-420,-4695,23,-343,-149,156
635,2164,0,-413,-4696,23,-348,-146,150
636,2165,6,-422,-4704,23,-341,-153,132
637,2158,2,-420,-4702,23,-344,-144,143
638,2160,11,-414,-4695,23,-352,-155,129
639,2155,3,-426,-4697,23,-351,-169,122
640,2155,1,-426,-4696,23,-344,-152,143
641,2150,-2,-407,-4690,23,-349,-136,136
642,2161,-6,-417,-4699,23,-326,-173,146
643,2164,7,-425,-4701,23,-356,-147,132
644,2159,8,-432,-4690,23,-337,-145,138
645,2165,-2,-420,-4698,23,-344,-158,133
646,2152,-5,-423,-4691,23,-341,-145,129
647,2168,-1,-436,-4694,23,-347,-156,123
648,2155,1,-425,-4703,23,-351,-147,141
649,2165,-3,-431,-4686,23,-352,-150,145
650,2155,9,-424,-4698,23,-349,-138,149
651,2154,1,-408,-4691,23,-348,-144,146
652,2158,13,-428,-4715,23,-354,-144,136
653,2168,7,-428,-4692,23,-343,-143,133
654,2156,6,-427,-4706,23,-350,-173,142
655,2164,-1,-412,-4697,23,-345,-164,133
656,2164,0,-428,-4698,23,-331,-165,149
657,2157,4,-428,-4693,23,-350,-137,141
658,2157,4,-424,-4702,23,-346,-147,137
659,2172,-4,-419,-4692,23,-351,-140,128
660,2157,4,-419,-4691,23,-359,-149,151
661,2162,3,-446,-4697,23,-364,-152,145
662,2153,1,-419,-4707,23,-347,-160,144
663,2159,1,-441,-4712,23,-328,-160,150
664,2163,-7,-431,-4686,23,-344,-156,146
665,2163,-5,-434,-4701,23,-349,-153,126
666,2163,-1,-414,-4702,23,-349,-154,124
667,2156,3,-433,-4691,23,-339,-139,135
668,2156,-10,-417,-4701,23,-350,-143,137
669,2165,-2,-408,-4693,23,-343,-149,145
670,2164,0,-427,-4698,23,-348,-142,145
671,2160,0,-430,-4688,23,-333,-156,143
672,2161,3,-425,-4701,23,-346,-150,133
673,2154,0,-421,-4695,23,-348,-150,155
674,2156,-2,-436,-4706,23,-368,-152,129
675,2156,-3,-423,-4696,23,-340,-155,147
676,2156,0,-418,-4690,23,-346,-164,130
677,2170,0,-427,-4701,23,-329,-140,119
678,2153,1,-421,-4691,23,-352,-150,144
679,2153,2,-435,-4689,23,-350,-165,141
680,2160,5,-424,-4696,23,-346,-137,138
681,2160,4,-437,-4697,23,-355,-138,137
682,2163,-7,-414,-4690,23,-350,-133,153
683,2152,-1,-420,-4696,23,-340,-163,140
684,2163,0,-439,-4716,23,-343,-155,148
685,2160,0,-421,-4689,23,-354,-158,154
686,2161,-3,-422,-4684,23,-335,-143,145
687,2162,14,-434,-4707,23,-361,-146,137
688,2161,8,-414,-4707,23,-338,-161,140
689,2164,-7,-415,-4698,23,-355,-158,144
690,2161,-2,-429,-4692,23,-326,-154,139
691,2163,-5,-416,-4697,23,-339,-141,144
692,2154,-3,-430,-4702,23,-347,-133,137
693,2159,6,-441,-4702,23,-344,-149,136
694,2165,2,-413,-4694,23,-360,-151,143
695,2164,-4,-421,-4711,23,-350,-156,131
696,2164,1,-442,-4684,23,-335,-152,151
697,2169,12,-438,-4699,23,-338,-161,151
698,2152,2,-420,-4698,23,-346,-156,154
699,2164,-5,-430,-4691,23,-342,-139,136
700,2156,0,-418,-4690,23,-338,-156,143
701,2159,3,-424,-4704,23,-346,-132,134
702,2147,5,-435,-4694,23,-359,-141,143
703,2163,1,-433,-4683,23,-349,-154,146
704,2170,-7,-407,-4687,23,-339,-142,134
705,2162,7,-430,-4694,23,-356,-145,138
706,2157,4,-425,-4678,23,-341,-132,126
707,2162,-4,-426,-4688,23,-361,-167,155
708,2169,-12,-427,-4697,23,-337,-151,153
709,2150,4,-427,-4693,23,-331,-168,144
710,2155,8,-422,-4698,23,-338,-155,157
711,2159,6,-440,-4690,23,-361,-149,131
712,2163,-4,-409,-4699,23,-368,-146,137
713,2161,4,-420,-4695,23,-341,-153,153
714,2160,6,-429,-4695,23,-349,-136,148
715,2170,1,-428,-4689,23,-356,-150,134
716,2166,3,-420,-4708,23,-353,-133,144
717,2162,-12,-423,-4698,23,-345,-156,139
718,2168,-7,-430,-4695,23,-340,-142,142
719,2152,5,-442,-4705,23,-356,-150,125
720,2162,0,-424,-4695,23,-343,-141,138
721,2146,8,-431,-4705,23,-364,-144,138
722,2154,7,-417,-4694,23,-335,-161,148
723,2158,3,-432,-4700,23,-344,-144,137
724,2155,-3,-422,-4697,23,-344,-165,135
725,2165,10,-426,-4693,23,-336,-156,159
726,2161,-2,-418,-4693,23,-319,-149,138
727,2159,-8,-409,-4713,23,-355,-154,142
728,2158,3,-427,-4698,23,-344,-149,138
729,2168,-4,-423,-4686,23,-357,-163,134
730,2162,7,-421,-4699,23,-334,-136,139
731,2151,-6,-418,-4691,23,-342,-140,144
732,2159,7,-422,-4694,23,-345,-177,150
733,2165,10,-427,-4677,23,-358,-162,137
734,2150,4,-428,-4697,23,-341,-166,138
735,2163,3,-420,-4687,23,-340,-152,152
736,2160,1,-411,-4692,23,-339,-143,142
737,2161,-6,-420,-4704,23,-341,-148,145
738,2157,6,-439,-4692,23,-339,-152,139
739,2162,-5,-428,-4692,23,-336,-163,127
740,2162,3,-437,-4681,23,-351,-156,147
741,2166,-11,-435,-4689,23,-350,-145,131
742,2163,1,-417,-4698,23,-346,-169,121
743,2163,11,-419,-4687,23,-336,-154,148
744,2163,0,-420,-4703,23,-335,-160,131
745,2165,-12,-425,-4701,23,-342,-150,149
746,2158,1,-419,-4693,23,-348,-157,126
747,2161,-4,-416,-4702,23,-341,-154,146
748,2161,6,-426,-4703,23,-333,-167,141
749,2165,-3,-438,-4700,23,-356,-166,151
750,2162,-3,-423,-4693,23,-345,-149,147
751,2167,5,-416,-4696,23,-340,-149,134
752,2160,9,-430,-4696,23,-338,-158,138
753,2157,2,-429,-4693,23,-350,-128,132
754,2159,-3,-416,-4696,23,-342,-167,155
755,2160,3,-439,-4706,23,-350,-158,136
756,2167,-1,-453,-4691,23,-342,-156,142
757,2155,7,-418,-4694,23,-358,-146,131
758,2159,1,-434,-4694,23,-342,-161,139
759,2154,0,-416,-4686,23,-353,-151,121
760,2159,1,-424,-4704,23,-332,-159,149
761,2162,-2,-428,-4699,23,-346,-148,147
762,2164,3,-420,-4702,23,-350,-142,137
763,2150,7,-418,-4690,23,-354,-164,148
764,2156,-7,-428,-4688,23,-356,-171,142
765,2155,0,-439,-4693,23,-364,-143,150
766,2153,4,-425,-4704,23,-346,-140,135
767,2162,0,-420,-4701,23,-330,-140,132
768,2157,6,-420,-4706,23,-347,-149,164
769,2161,2,-430,-4715,23,-336,-144,134
770,2162,0,-428,-4704,23,-341,-141,113
771,2158,8,-428,-4689,23,-348,-144,132
772,2161,3,-420,-4697,23,-342,-144,134
773,2154,0,-421,-4697,23,-350,-152,126
774,2161,3,-420,-4685,23,-338,-161,141
775,2156,1,-425,-4703,23,-348,-154,132
776,2157,10,-426,-4688,23,-351,-145,138
777,2158,4,-434,-4703,23,-353,-155,152
778,2165,5,-415,-4705,23,-330,-152,131
779,2162,-1,-421,-4695,23,-350,-143,127
780,2151,5,-411,-4688,23,-358,-140,138
781,2166,2,-421,-4695,23,-361,-137,158
782,2153,2,-425,-4699,23,-345,-163,136
783,2163,-5,-436,-4695,23,-362,-149,142
784,2160,8,-426,-4677,23,-353,-148,136
785,2166,6,-430,-4677,23,-340,-143,139
786,2164,-8,-420,-4702,23,-353,-139,143
787,2155,0,-418,-4702,23,-362,-162,142
788,2159,1,-426,-4690,23,-355,-158,150
789,2163,1,-426,-4701,23,-343,-151,153
790,2163,5,-415,-4702,23,-342,-149,133
791,2159,-6,-421,-4702,23,-360,-143,153
792,2158,6,-418,-4703,23,-354,-173,128
793,2167,-8,-431,-4709,23,-360,-145,143
794,2160,-2,-431,-4690,23,-335,-158,144
795,2163,8,-423,-4690,23,-359,-147,129
796,2149,4,-417,-4694,23,-354,-156,145
797,2159,1,-423,-4702,23,-357,-156,139
798,2161,12,-434,-4694,23,-347,-172,128
799,2148,-3,-422,-4687,23,-335,-154,148
800,2160,-4,-415,-4691,23,-366,-146,139
801,2169,-5,-412,-4706,23,-347,-150,150
802,2156,-4,-428,-4708,23,-344,-141,156
803,2157,-2,-416,-4692,23,-339,-142,146
804,2153,-10,-427,-4694,23,-357,-148,141
805,2155,2,-418,-4699,23,-339,-164,133
806,2158,5,-414,-4690,23,-323,-145,133
807,2159,8,-438,-4689,23,-341,-129,144
808,2157,-1,-417,-4703,23,-332,-148,141
809,2167,-6,-432,-4693,23,-345,-149,141
810,2168,-3,-428,-4699,23,-324,-135,142
811,2162,1,-417,-4691,23,-335,-136,129
812,2155,8,-420,-4702,23,-342,-157,154
813,2155,-12,-416,-4687,23,-323,-148,131
814,2154,5,-420,-4700,23,-340,-160,149
815,2154,-4,-430,-4687,23,-362,-152,123
816,2158,-1,-422,-4694,23,-336,-141,143
817,2160,9,-427,-4702,23,-342,-166,138
818,2158,3,-434,-4718,23,-334,-151,133
819,2155,-4,-437,-4699,23,-352,-146,142
820,2150,5,-428,-4704,23,-347,-165,136
821,2168,-10,-412,-4704,23,-354,-148,139
822,2160,6,-435,-4684,23,-342,-167,136
823,2156,-7,-419,-4696,23,-357,-151,124
824,2157,-3,-426,-4698,23,-338,-173,142
825,2152,-5,-420,-4688,23,-333,-141,118
826,2159,-7,-410,-4704,23,-346,-150,141
827,2157,8,-416,-4689,23,-348,-139,136
828,2159,5,-410,-4684,23,-356,-162,143
829,2158,3,-416,-4696,23,-346,-153,142
830,2161,-12,-420,-4702,23,-331,-151,128
831,2159,0,-429,-4695,23,-361,-142,123
832,2160,-2,-396,-4705,23,-357,-139,144
833,2159,1,-423,-4689,23,-357,-156,124
834,2161,3,-426,-4687,23,-357,-136,137
835,2167,-3,-436,-4690,23,-358,-171,146
836,2163,-2,-426,-4705,23,-353,-148,121
837,2161,0,-440,-4694,23,-349,-147,141
838,2155,-3,-429,-4711,23,-344,-157,148
839,2149,5,-423,-4698,23,-346,-138,131
840,2166,6,-428,-4686,23,-339,-151,145
841,2153,0,-422,-4690,23,-364,-147,146
842,2148,-5,-421,-4706,23,-350,-160,155
843,2161,-1,-435,-4692,23,-345,-154,136
844,2165,-1,-422,-4703,23,-348,-161,132
845,2160,-11,-418,-4699,23,-339,-160,131
846,2165,0,-419,-4691,23,-338,-157,137
847,2157,-6,-398,-4690,23,-343,-145,135
848,2163,4,-424,-4702,23,-345,-126,135
849,2165,5,-428,-4683,23,-349,-151,131
850,2155,0,-419,-4682,23,-362,-149,126
851,2161,2,-414,-4706,23,-358,-144,138
852,2151,1,-423,-4681,23,-345,-160,131
853,2157,1,-419,-4685,23,-360,-172,154
854,2165,5,-433,-4696,23,-357,-149,136
855,2166,12,-424,-4693,23,-351,-161,130
856,2156,4,-425,-4712,23,-347,-143,133
857,2151,7,-412,-4692,23,-340,-143,144
858,2158,-4,-419,-4701,23,-351,-145,156
859,2158,4,-433,-4707,23,-345,-160,136
860,2163,2,-430,-4709,23,-360,-149,153
861,2156,-4,-416,-4712,23,-330,-160,133
862,2162,-3,-423,-4703,23,-370,-151,140
863,2160,3,-425,-4703,23,-337,-144,134
864,2157,1,-407,-4694,23,-326,-143,153
865,2164,-3,-434,-4694,23,-350,-134,135
866,2157,0,-419,-4693,23,-343,-146,136
867,2160,6,-416,-4697,23,-340,-152,139
868,2165,-7,-419,-4695,23,-353,-144,134
869,2149,10,-415,-4706,23,-342,-164,139
870,2147,1,-432,-4709,23,-343,-136,136
871,2159,-3,-440,-4698,23,-346,-127,129
872,2156,2,-418,-4705,23,-346,-148,129
873,2159,-9,-420,-4702,23,-342,-146,136
874,2170,-7,-413,-4696,23,-344,-149,145
875,2162,5,-436,-4700,23,-340,-157,133
876,2158,3,-424,-4708,23,-348,-166,140
877,2158,-11,-434,-4697,23,-353,-150,141
878,2160,5,-412,-4686,23,-349,-146,158
879,2156,2,-439,-4689,23,-344,-162,141
880,2166,3,-433,-4700,23,-336,-144,159
881,2162,0,-421,-4696,23,-356,-139,148
882,2152,-5,-425,-4707,23,-353,-155,126
883,2158,2,-417,-4695,23,-353,-146,139
884,2156,12,-427,-4703,23,-347,-148,131
885,2151,-5,-429,-4705,23,-351,-153,146
886,2170,0,-420,-4696,23,-350,-152,137
887,2166,-5,-410,-4697,23,-334,-143,136
888,2156,12,-424,-4690,23,-359,-164,134
889,2148,11,-428,-4701,23,-340,-138,145
890,2165,0,-422,-4696,23,-346,-151,138
891,2158,1,-431,-4698,23,-343,-147,138
892,2167,9,-421,-4691,23,-348,-130,141
893,2171,0,-424,-4707,23,-352,-162,139
894,2159,6,-424,-4707,23,-344,-153,140
895,2158,-3,-435,-4694,23,-368,-158,156
896,2161,-4,-435,-4689,23,-345,-141,151
897,2163,8,-411,-4687,23,-347,-150,145
898,2153,-4,-423,-4698,23,-333,-164,135
899,2159,-3,-419,-4697,23,-349,-132,133
900,2156,6,-420,-4700,23,-344,-137,146
901,2157,8,-445,-4703,23,-342,-168,146
902,2154,5,-426,-4688,23,-353,-162,147
903,2146,-4,-431,-4694,23,-349,-131,143
904,2158,6,-425,-4713,23,-351,-155,133
905,2160,-6,-429,-4707,23,-354,-145,124
906,2152,-1,-426,-4698,23,-353,-153,140
907,2150,6,-421,-4701,23,-355,-143,126
908,2165,-5,-434,-4702,23,-351,-156,144
909,2152,12,-416,-4702,23,-344,-145,156
910,2154,1,-430,-4692,23,-362,-146,130
911,2157,-4,-425,-4704,23,-338,-167,138
912,2154,1,-439,-4694,23,-335,-142,147
913,2162,-4,-432,-4687,23,-352,-164,129
914,2166,11,-402,-4695,23,-353,-141,149
915,2157,6,-420,-4706,23,-333,-139,152
916,2156,5,-408,-4698,23,-345,-166,139
917,2167,12,-421,-4697,23,-362,-154,138
918,2160,-3,-424,-4696,23,-359,-151,128
919,2165,8,-424,-4695,23,-354,-145,139
920,2152,9,-434,-4688,23,-334,-146,141
921,2160,1,-422,-4708,23,-333,-131,159
922,2162,8,-417,-4690,23,-349,-140,164
923,2166,-3,-436,-4691,23,-352,-140,137
924,2150,0,-423,-4687,23,-346,-148,135
925,2165,8,-431,-4700,23,-352,-157,144
926,2159,-1,-418,-4697,23,-355,-147,141
927,2167,4,-436,-4709,23,-356,-154,129
928,2152,3,-439,-4688,23,-355,-151,144
929,2167,-2,-421,-4694,23,-350,-146,144
930,2162,6,-435,-4712,23,-344,-140,126
931,2154,-7,-419,-4703,23,-339,-152,140
932,2155,-2,-430,-4705,23,-343,-137,133
933,2152,-5,-436,-4702,23,-334,-170,137
934,2158,4,-412,-4699,23,-352,-138,151
935,2153,2,-431,-4696,23,-353,-135,148
936,2161,8,-414,-4695,23,-341,-162,139
937,2168,-2,-417,-4704,23,-339,-137,143
938,2148,-5,-417,-4697,23,-332,-165,143
939,2151,8,-424,-4687,23,-362,-152,156
940,2158,2,-429,-4696,23,-345,-156,144
941,2153,2,-404,-4687,23,-345,-153,129
942,2154,8,-431,-4687,23,-352,-147,145
943,2153,-5,-429,-4697,23,-354,-152,153
944,2161,9,-413,-4694,23,-344,-147,146
945,2141,-5,-432,-4691,23,-354,-145,137
946,2159,-2,-425,-4691,23,-337,-155,136
947,2155,6,-414,-4686,23,-347,-146,137
948,2156,12,-425,-4701,23,-342,-134,135
949,2158,-1,-420,-4695,23,-355,-143,142
950,2161,8,-426,-4688,23,-359,-153,147
951,2159,11,-417,-4700,23,-353,-146,142
952,2156,2,-425,-4698,23,-356,-154,135
953,2156,-4,-435,-4685,23,-346,-139,143
954,2162,8,-413,-4703,23,-364,-138,131
955,2160,16,-417,-4684,23,-343,-134,155
956,2161,-5,-426,-4699,23,-349,-142,138
957,2163,9,-433,-4685,23,-341,-158,137
958,2161,1,-417,-4701,23,-335,-129,145
959,2164,0,-438,-4690,23,-347,-162,142
960,2160,1,-422,-4697,23,-354,-137,148
961,2162,-8,-410,-4708,23,-351,-142,133
962,2157,5,-437,-4689,23,-361,-159,158
963,2159,10,-427,-4699,23,-343,-155,142
964,2155,-6,-420,-4695,23,-331,-156,134
965,2161,-2,-420,-4689,23,-329,-155,131
966,2160,10,-440,-4678,23,-329,-152,147
967,2161,8,-442,-4692,23,-341,-170,134
968,2161,2,-423,-4707,23,-353,-172,131
969,2163,-1,-428,-4699,23,-347,-155,138
970,2163,1,-412,-4698,23,-339,-131,148
971,2157,-3,-427,-4696,23,-342,-135,146
972,2153,0,-422,-4685,23,-363,-153,141
973,2150,0,-433,-4688,23,-338,-161,134
974,2161,3,-424,-4686,23,-347,-147,125
975,2154,1,-419,-4693,23,-359,-144,131
976,2166,1,-410,-4707,23,-359,-162,131
977,2156,2,-416,-4694,23,-358,-141,150
978,2165,13,-450,-4699,23,-353,-151,155
979,2162,-1,-420,-4688,23,-356,-142,135
980,2166,8,-418,-4689,23,-349,-149,135
981,2161,-7,-418,-4703,23,-332,-139,136
982,2158,-7,-416,-4700,23,-341,-149,124
983,2170,-6,-441,-4703,23,-343,-162,140
984,2158,2,-424,-4692,23,-350,-146,142
985,2159,-3,-424,-4700,23,-352,-152,136
986,2150,17,-414,-4693,23,-351,-121,136
987,2160,-2,-434,-4697,23,-335,-165,145
988,2165,14,-428,-4696,23,-359,-157,156
989,2154,-4,-429,-4705,23,-345,-156,117
990,2159,-10,-434,-4702,23,-339,-158,143
991,2166,-1,-424,-4689,23,-338,-153,159
992,2161,-1,-429,-4699,23,-350,-164,135
993,2167,0,-432,-4687,23,-334,-152,143
994,2159,9,-427,-4704,23,-350,-138,145
995,2165,6,-432,-4692,23,-337,-160,150
996,2159,1,-427,-4694,23,-343,-150,130
997,2164,12,-416,-4695,23,-357,-145,125
998,2162,5,-440,-4693,23,-336,-156,146
