,acc_X,acc_Y,acc_Z,temp,tempC,gyr_X,gyr_Y,gyr_Z
0,8650,30,-1718,-4716,23,-342,-158,139
1,8635,22,-1756,-4716,23,-341,-152,140
2,8638,14,-1738,-4714,23,-350,-150,140
3,8637,10,-1728,-4705,23,-347,-144,138
4,8643,2,-1711,-4709,23,-353,-145,137
5,8628,3,-1715,-4711,23,-344,-143,139
6,8632,16,-1702,-4710,23,-340,-146,136
7,8620,15,-1718,-4706,23,-338,-152,144
8,8621,26,-1714,-4710,23,-336,-145,138
9,8630,24,-1751,-4716,23,-341,-149,135
10,8629,17,-1728,-4712,23,-341,-148,132
11,8632,22,-1740,-4714,23,-348,-144,141
12,8644,14,-1721,-4710,23,-347,-148,140
13,8647,2,-1723,-4708,23,-344,-147,143
14,8646,12,-1720,-4712,23,-352,-145,142
15,8650,13,-1710,-4711,23,-343,-146,140
16,8629,1,-1707,-4714,23,-341,-143,139
17,8628,-3,-1706,-4712,23,-348,-147,133
18,8616,8,-1704,-4707,23,-342,-152,140
19,8645,8,-1713,-4707,23,-343,-139,148
20,8637,6,-1726,-4711,23,-341,-146,144
21,8642,18,-1728,-4712,23,-342,-147,140
22,8652,30,-1712,-4710,23,-343,-150,141
23,8639,29,-1744,-4711,23,-350,-144,137
24,8640,19,-1703,-4713,23,-348,-153,142
25,8632,12,-1724,-4710,23,-345,-149,137
26,8650,10,-1699,-4712,23,-345,-153,142
27,8630,19,-1724,-4711,23,-346,-161,136
28,8644,18,-1703,-4708,23,-345,-158,136
29,8644,18,-1699,-4709,23,-345,-154,136
30,8658,20,-1715,-4708,23,-347,-151,138
31,8649,16,-1718,-4709,23,-347,-157,135
32,8647,3,-1741,-4705,23,-347,-158,136
33,8636,1,-1730,-4704,23,-338,-153,140
34,8630,7,-1721,-4700,23,-344,-150,133
35,8648,19,-1708,-4705,23,-350,-156,133
36,8645,9,-1742,-4708,23,-346,-162,132
37,8632,-9,-1730,-4709,23,-352,-155,130
38,8637,2,-1704,-4709,23,-351,-149,134
39,8638,15,-1716,-4708,23,-347,-149,139
40,8637,12,-1737,-4709,23,-342,-158,135
41,8652,8,-1747,-4711,23,-344,-153,136
42,8634,6,-1705,-4715,23,-353,-152,139
43,8625,16,-1723,-4710,23,-349,-148,137
44,8633,21,-1734,-4709,23,-344,-143,135
45,8652,16,-1731,-4707,23,-341,-145,136
46,8628,18,-1734,-4708,23,-348,-147,138
47,8641,9,-1716,-4707,23,-346,-151,141
48,8637,15,-1693,-4713,23,-346,-150,137
49,8646,14,-1719,-4710,23,-345,-145,135
50,8635,5,-1724,-4706,23,-345,-141,140
51,8644,2,-1738,-4710,23,-344,-147,136
52,8625,-1,-1718,-4710,23,-345,-150,138
53,8624,6,-1728,-4709,23,-341,-146,142
54,8621,2,-1728,-4710,23,-334,-142,140
55,8634,15,-1743,-4708,23,-341,-150,140
56,8637,10,-1710,-4716,23,-349,-142,143
57,8648,4,-1727,-4709,23,-345,-140,145
58,8632,-1,-1718,-4713,23,-343,-149,141
59,8631,4,-1714,-4708,23,-345,-142,147
60,8629,-11,-1732,-4711,23,-342,-151,144
61,8625,-17,-1722,-4710,23,-347,-147,143
62,8627,3,-1703,-4716,23,-347,-151,136
63,8637,3,-1709,-4713,23,-344,-150,143
64,8648,-7,-1694,-4706,23,-347,-146,142
65,8637,2,-1701,-4712,23,-343,-144,135
66,8647,7,-1714,-4706,23,-341,-148,140
67,8633,9,-1711,-4707,23,-345,-155,142
68,8641,2,-1715,-4710,23,-346,-154,141
69,8641,0,-1726,-4710,23,-347,-152,139
70,8644,4,-1711,-4711,23,-343,-160,136
71,8648,8,-1709,-4711,23,-347,-155,136
72,8650,12,-1709,-4709,23,-348,-160,136
73,8640,5,-1720,-4707,23,-348,-155,140
74,8644,-4,-1726,-4714,23,-343,-156,136
75,8626,3,-1718,-4710,23,-345,-153,136
76,8626,14,-1710,-4702,23,-345,-153,131
77,8637,1,-1750,-4705,23,-343,-149,133
78,8641,22,-1739,-4713,23,-341,-148,131
79,8635,6,-1736,-4713,23,-346,-149,134
80,8635,20,-1735,-4714,23,-347,-147,139
81,8620,35,-1721,-4716,23,-343,-149,143
82,8624,34,-1720,-4711,23,-342,-149,143
83,8625,14,-1702,-4713,23,-341,-153,139
84,8635,21,-1716,-4707,23,-342,-145,144
85,8640,24,-1725,-4708,23,-352,-145,142
86,8637,14,-1770,-4709,23,-343,-148,145
87,8639,-8,-1754,-4707,23,-338,-150,145
88,8620,5,-1726,-4705,23,-345,-149,145
89,8633,8,-1724,-4704,23,-345,-143,144
90,8640,-1,-1720,-4706,23,-350,-144,141
91,8651,13,-1726,-4703,23,-348,-144,145
92,8642,17,-1698,-4705,23,-347,-145,148
93,8641,20,-1707,-4706,23,-351,-137,143
94,8638,9,-1717,-4704,23,-345,-140,141
95,8638,13,-1722,-4705,23,-342,-142,139
96,8628,25,-1732,-4710,23,-342,-143,140
97,8630,7,-1727,-4707,23,-343,-146,146
98,8635,10,-1716,-4710,23,-343,-141,144
99,8628,2,-1708,-4708,23,-348,-141,146
100,8621,3,-1706,-4709,23,-349,-143,147
101,8629,3,-1705,-4706,23,-349,-139,152
102,8627,-4,-1706,-4704,23,-354,-136,149
103,8635,4,-1714,-4707,23,-347,-139,144
104,8640,7,-1694,-4712,23,-338,-137,149
105,8622,14,-1709,-4710,23,-349,-144,143
106,8633,7,-1707,-4716,23,-349,-150,141
107,8660,20,-1711,-4710,23,-347,-145,137
108,8650,13,-1706,-4706,23,-350,-148,138
109,8630,5,-1711,-4699,23,-339,-154,137
110,8643,3,-1692,-4707,23,-345,-149,140
111,8632,1,-1716,-4710,23,-337,-144,141
112,8630,-14,-1706,-4709,23,-348,-148,142
113,8637,1,-1721,-4710,23,-341,-148,141
114,8649,-2,-1714,-4706,23,-343,-150,142
115,8655,6,-1716,-4705,23,-339,-147,142
116,8636,13,-1721,-4708,23,-337,-153,138
117,8645,17,-1698,-4709,23,-342,-158,130
118,8646,2,-1697,-4706,23,-340,-161,124
119,8641,14,-1733,-4708,23,-347,-159,135
120,8646,9,-1716,-4705,23,-352,-157,139
121,8640,19,-1735,-4699,23,-356,-160,137
122,8623,17,-1727,-4707,23,-353,-160,140
123,8620,30,-1704,-4704,23,-352,-155,141
124,8633,17,-1709,-4711,23,-346,-163,136
125,8640,14,-1727,-4710,23,-343,-164,131
126,8641,-4,-1727,-4708,23,-343,-157,131
127,8634,-5,-1723,-4706,23,-343,-154,139
128,8635,-3,-1746,-4709,23,-350,-152,136
129,8646,5,-1724,-4713,23,-346,-156,143
130,8633,9,-1732,-4710,23,-341,-153,142
131,8631,4,-1752,-4713,23,-338,-140,144
132,8635,1,-1738,-4715,23,-342,-145,140
133,8638,3,-1755,-4716,23,-340,-138,141
134,8637,8,-1734,-4716,23,-341,-153,136
135,8624,10,-1717,-4711,23,-342,-157,147
136,8624,-3,-1695,-4712,23,-350,-150,148
137,8637,11,-1701,-4705,23,-340,-142,137
138,8624,7,-1697,-4707,23,-337,-150,139
139,8638,10,-1708,-4707,23,-345,-153,140
140,8642,22,-1714,-4710,23,-348,-151,138
141,8639,2,-1729,-4707,23,-350,-149,144
142,8641,4,-1715,-4709,23,-351,-147,144
143,8643,2,-1701,-4706,23,-349,-150,150
144,8623,11,-1707,-4711,23,-345,-149,142
145,8630,17,-1709,-4715,23,-348,-149,142
146,8643,23,-1703,-4710,23,-349,-149,138
147,8617,1,-1706,-4712,23,-354,-157,144
148,8617,11,-1704,-4709,23,-348,-155,143
149,8635,8,-1723,-4714,23,-345,-154,140
150,8631,11,-1731,-4709,23,-342,-152,138
151,8636,30,-1731,-4711,23,-342,-146,133
152,8643,-2,-1734,-4707,23,-346,-141,136
153,8641,15,-1726,-4707,23,-347,-148,142
154,8631,19,-1710,-4707,23,-345,-153,139
155,8631,-5,-1696,-4710,23,-344,-151,141
156,8639,9,-1720,-4711,23,-344,-147,133
157,8637,2,-1691,-4708,23,-350,-154,141
158,8627,4,-1705,-4704,23,-349,-142,141
159,8637,19,-1700,-4709,23,-346,-149,143
160,8627,21,-1725,-4706,23,-349,-148,127
161,8638,24,-1726,-4709,23,-350,-149,137
162,8637,5,-1729,-4705,23,-349,-149,137
163,8642,15,-1719,-4708,23,-348,-149,131
164,8629,18,-1725,-4705,23,-349,-143,134
165,8631,13,-1701,-4706,23,-346,-139,134
166,8635,13,-1698,-4708,23,-347,-146,139
167,8626,13,-1712,-4703,23,-342,-150,141
168,8649,27,-1741,-4705,23,-340,-141,145
169,8641,15,-1743,-4709,23,-346,-150,143
170,8620,19,-1734,-4708,23,-339,-156,142
171,8630,6,-1743,-4705,23,-344,-148,144
172,8635,19,-1759,-4700,23,-348,-159,146
173,8631,-3,-1724,-4701,23,-349,-152,145
174,8630,7,-1718,-4706,23,-350,-153,147
175,8629,11,-1725,-4707,23,-345,-143,142
176,8630,16,-1724,-4709,23,-338,-149,139
177,8628,16,-1703,-4712,23,-336,-149,145
178,8638,13,-1718,-4712,23,-345,-148,144
179,8640,7,-1698,-4714,23,-347,-145,136
180,8619,-11,-1692,-4712,23,-344,-148,136
181,8627,-2,-1735,-4708,23,-345,-155,143
182,8638,5,-1725,-4710,23,-345,-148,140
183,8652,10,-1728,-4711,23,-349,-148,143
184,8642,13,-1733,-4706,23,-348,-152,142
185,8638,6,-1752,-4709,23,-346,-149,142
186,8632,9,-1727,-4709,23,-352,-152,149
187,8627,9,-1747,-4709,23,-351,-150,150
188,8611,11,-1730,-4710,23,-346,-155,144
189,8616,1,-1723,-4711,23,-347,-155,146
190,8623,-5,-1691,-4707,23,-349,-159,148
191,8627,-5,-1704,-4708,23,-351,-164,143
192,8642,22,-1712,-4705,23,-355,-154,138
193,8647,-11,-1719,-4710,23,-346,-158,142
194,8648,0,-1707,-4714,23,-342,-156,139
195,8641,-7,-1710,-4713,23,-345,-156,135
196,8643,-1,-1720,-4709,23,-343,-153,133
197,8637,-9,-1726,-4711,23,-344,-150,138
198,8630,1,-1707,-4705,23,-347,-153,131
199,8619,7,-1701,-4707,23,-347,-154,138
200,8610,19,-1716,-4709,23,-351,-156,137
201,8620,7,-1730,-4706,23,-349,-158,138
202,8629,5,-1719,-4707,23,-347,-163,143
203,8629,13,-1693,-4710,23,-347,-168,141
204,8638,-1,-1722,-4707,23,-346,-161,129
205,8638,-1,-1730,-4703,23,-347,-155,135
206,8632,8,-1757,-4701,23,-345,-152,140
207,8635,16,-1732,-4701,23,-343,-144,139
208,8633,19,-1720,-4697,23,-347,-154,149
209,8629,3,-1734,-4705,23,-349,-135,154
210,8630,4,-1746,-4702,23,-352,-147,151
211,8623,10,-1703,-4700,23,-348,-149,149
212,8615,23,-1709,-4700,23,-346,-150,140
213,8619,8,-1693,-4704,23,-344,-148,142
214,8641,13,-1706,-4703,23,-347,-146,138
215,8642,-5,-1721,-4706,23,-338,-146,144
216,8636,2,-1703,-4708,23,-341,-154,141
217,8638,25,-1721,-4708,23,-345,-151,138
218,8642,11,-1711,-4708,23,-350,-153,144
219,8645,5,-1686,-4708,23,-350,-145,149
220,8630,5,-1698,-4710,23,-346,-139,139
221,8625,14,-1697,-4711,23,-353,-140,146
222,8635,12,-1716,-4707,23,-342,-149,144
223,8626,10,-1692,-4705,23,-342,-146,143
224,8644,15,-1731,-4703,23,-349,-151,144
225,8650,2,-1705,-4700,23,-349,-144,145
226,8642,4,-1718,-4705,23,-344,-151,141
227,8644,13,-1736,-4704,23,-345,-144,145
228,8631,12,-1728,-4705,23,-346,-146,146
229,8616,-8,-1724,-4706,23,-347,-146,145
230,8616,7,-1724,-4699,23,-351,-145,146
231,8629,0,-1720,-4702,23,-348,-144,140
232,8625,-10,-1737,-4705,23,-351,-144,139
233,8641,6,-1713,-4703,23,-343,-150,138
234,8641,6,-1709,-4707,23,-335,-151,140
235,8629,12,-1729,-4713,23,-341,-156,133
236,8621,0,-1743,-4707,23,-337,-152,136
237,8617,-6,-1720,-4704,23,-337,-151,138
238,8638,-3,-1713,-4709,23,-344,-153,136
239,8626,-3,-1731,-4707,23,-341,-151,137
240,8633,-12,-1734,-4712,23,-340,-149,137
241,8636,-9,-1729,-4703,23,-345,-153,138
242,8644,-13,-1731,-4708,23,-344,-153,144
243,8648,9,-1700,-4710,23,-345,-151,147
244,8648,10,-1715,-4711,23,-339,-158,140
245,8632,24,-1716,-4710,23,-341,-148,142
246,8634,14,-1735,-4710,23,-342,-153,139
247,8638,14,-1719,-4701,23,-340,-159,140
248,8622,15,-1719,-4703,23,-342,-154,143
249,8639,16,-1729,-4705,23,-343,-148,139
250,8651,6,-1692,-4703,23,-345,-149,140
251,8645,11,-1705,-4704,23,-346,-151,141
252,8630,-5,-1724,-4706,23,-343,-155,148
253,8631,8,-1719,-4707,23,-345,-151,146
254,8627,15,-1705,-4707,23,-342,-149,145
255,8638,3,-1710,-4708,23,-338,-144,144
256,8635,-15,-1717,-4711,23,-347,-145,137
257,8622,3,-1695,-4704,23,-345,-148,134
258,8632,5,-1689,-4710,23,-346,-150,139
259,8647,18,-1702,-4712,23,-346,-152,142
260,8647,15,-1713,-4708,23,-346,-146,142
261,8641,10,-1716,-4707,23,-345,-146,142
262,8620,1,-1744,-4707,23,-341,-144,141
263,8637,6,-1721,-4707,23,-337,-150,144
264,8631,10,-1724,-4711,23,-343,-147,142
265,8631,5,-1731,-4711,23,-345,-144,142
266,8635,21,-1733,-4711,23,-345,-145,139
267,8641,2,-1749,-4712,23,-354,-143,141
268,8644,4,-1744,-4706,23,-343,-158,145
269,8640,8,-1724,-4705,23,-341,-152,143
270,8635,-8,-1709,-4708,23,-336,-150,137
271,8625,7,-1722,-4709,23,-341,-152,140
272,8631,7,-1697,-4710,23,-340,-149,143
273,8650,10,-1720,-4708,23,-343,-149,145
274,8645,22,-1708,-4710,23,-346,-144,146
275,8636,7,-1691,-4710,23,-345,-148,148
276,8639,5,-1710,-4707,23,-347,-152,144
277,8643,8,-1713,-4710,23,-342,-148,143
278,8625,-2,-1708,-4707,23,-340,-159,139
279,8614,7,-1717,-4701,23,-343,-154,136
280,8640,4,-1732,-4710,23,-347,-158,141
281,8632,11,-1754,-4708,23,-350,-155,137
282,8632,2,-1744,-4705,23,-355,-151,140
283,8626,2,-1725,-4702,23,-344,-140,136
284,8637,12,-1749,-4704,23,-346,-155,134
285,8635,-1,-1733,-4702,23,-347,-147,135
286,8661,-1,-1726,-4708,23,-344,-152,136
287,8641,13,-1729,-4708,23,-346,-154,133
288,8638,11,-1702,-4707,23,-349,-154,133
289,8635,9,-1695,-4709,23,-344,-153,134
290,8655,9,-1718,-4708,23,-345,-160,138
291,8639,5,-1713,-4705,23,-346,-154,141
292,8642,3,-1749,-4712,23,-355,-155,140
293,8642,9,-1727,-4708,23,-350,-154,131
294,8631,14,-1701,-4707,23,-347,-161,137
295,8637,17,-1721,-4706,23,-344,-153,135
296,8639,0,-1719,-4708,23,-343,-147,141
297,8645,8,-1735,-4710,23,-346,-152,144
298,8645,-2,-1743,-4710,23,-348,-145,139
299,8630,-14,-1741,-4710,23,-347,-150,136
300,8631,-16,-1736,-4711,23,-347,-152,139
301,8642,-1,-1720,-4709,23,-345,-150,142
302,8639,5,-1719,-4708,23,-338,-153,143
303,8626,-2,-1720,-4704,23,-339,-149,136
304,8646,2,-1716,-4706,23,-344,-140,136
305,8641,7,-1725,-4704,23,-351,-146,138
306,8635,3,-1709,-4702,23,-344,-154,137
307,8635,14,-1715,-4701,23,-350,-152,140
308,8644,-4,-1717,-4701,23,-349,-154,137
309,8629,0,-1719,-4700,23,-348,-148,145
310,8637,30,-1711,-4707,23,-344,-150,143
311,8636,8,-1713,-4710,23,-342,-152,137
312,8624,12,-1690,-4708,23,-340,-150,134
313,8635,21,-1700,-4707,23,-342,-154,138
314,8634,21,-1687,-4709,23,-345,-147,141
315,8623,23,-1722,-4706,23,-341,-155,137
316,8616,26,-1720,-4704,23,-349,-155,139
317,8621,8,-1726,-4705,23,-346,-157,145
318,8630,-12,-1734,-4701,23,-344,-154,146
319,8624,-1,-1729,-4703,23,-335,-151,145
320,8634,-2,-1721,-4704,23,-340,-155,140
321,8645,1,-1733,-4703,23,-343,-145,134
322,8640,3,-1727,-4707,23,-341,-148,147
323,8643,0,-1732,-4707,23,-339,-156,144
324,8627,-4,-1699,-4705,23,-341,-149,142
325,8623,6,-1697,-4710,23,-348,-148,140
326,8622,5,-1726,-4713,23,-348,-149,138
327,8626,-22,-1716,-4706,23,-347,-150,142
328,8634,13,-1697,-4706,23,-344,-146,141
329,8626,22,-1732,-4705,23,-338,-151,140
330,8618,17,-1727,-4705,23,-340,-149,141
331,8637,7,-1713,-4708,23,-348,-155,136
332,8647,19,-1721,-4711,23,-345,-157,137
333,8650,22,-1734,-4708,23,-337,-154,140
334,8633,19,-1722,-4706,23,-340,-145,143
335,8626,27,-1716,-4709,23,-338,-159,138
336,8618,17,-1704,-4707,23,-345,-159,139
337,8632,31,-1733,-4703,23,-342,-155,143
338,8636,36,-1730,-4702,23,-344,-143,139
339,8634,10,-1728,-4712,23,-343,-151,138
340,8641,15,-1728,-4703,23,-341,-144,142
341,8636,22,-1720,-4706,23,-349,-143,146
342,8637,21,-1705,-4709,23,-347,-150,148
343,8635,3,-1720,-4709,23,-344,-146,139
344,8627,-3,-1725,-4712,23,-350,-144,142
345,8634,-5,-1722,-4702,23,-348,-147,143
346,8638,3,-1730,-4702,23,-355,-146,145
347,8621,3,-1707,-4708,23,-345,-153,146
348,8634,5,-1719,-4707,23,-346,-154,141
349,8644,-12,-1712,-4707,23,-348,-155,146
350,8623,10,-1707,-4708,23,-346,-153,143
351,8634,18,-1708,-4707,23,-343,-147,139
352,8631,15,-1699,-4704,23,-344,-159,138
353,8638,12,-1692,-4709,23,-341,-149,137
354,8634,12,-1705,-4707,23,-343,-151,131
355,8624,16,-1708,-4704,23,-345,-158,138
356,8628,14,-1725,-4706,23,-349,-157,137
357,8648,-5,-1719,-4704,23,-346,-156,134
358,8650,9,-1721,-4705,23,-343,-154,141
359,8652,20,-1740,-4704,23,-348,-155,142
360,8625,28,-1731,-4706,23,-352,-156,147
361,8650,21,-1708,-4703,23,-346,-149,141
362,8645,9,-1743,-4704,23,-350,-145,135
363,8642,19,-1750,-4707,23,-348,-140,146
364,8627,13,-1729,-4703,23,-353,-146,144
365,8621,18,-1721,-4700,23,-347,-147,141
366,8628,4,-1727,-4704,23,-345,-151,141
367,8625,-11,-1744,-4704,23,-350,-148,136
368,8638,-4,-1715,-4706,23,-346,-143,140
369,8641,4,-1697,-4706,23,-344,-144,139
370,8631,-4,-1696,-4705,23,-348,-138,144
371,8626,12,-1713,-4703,23,-342,-145,145
372,8629,23,-1706,-4704,23,-341,-151,139
373,8634,15,-1715,-4705,23,-346,-154,143
374,8633,15,-1711,-4707,23,-350,-153,141
375,8628,0,-1708,-4707,23,-342,-159,141
376,8638,1,-1717,-4706,23,-344,-157,142
377,8647,4,-1720,-4708,23,-350,-161,135
378,8641,-3,-1700,-4704,23,-345,-163,132
379,8644,-14,-1717,-4703,23,-345,-167,136
380,8630,-5,-1718,-4703,23,-350,-160,136
381,8640,10,-1728,-4704,23,-347,-159,135
382,8635,1,-1730,-4702,23,-346,-152,137
383,8608,10,-1745,-4704,23,-343,-150,146
384,8627,3,-1735,-4710,23,-335,-153,146
385,8627,8,-1731,-4704,23,-344,-152,144
386,8628,22,-1719,-4702,23,-341,-145,138
387,8623,4,-1719,-4700,23,-338,-146,133
388,8627,26,-1726,-4705,23,-336,-148,140
389,8643,21,-1725,-4701,23,-341,-152,145
390,8626,21,-1722,-4709,23,-340,-153,140
391,8629,18,-1703,-4707,23,-350,-150,136
392,8634,24,-1716,-4708,23,-349,-150,143
393,8626,7,-1742,-4707,23,-343,-146,139
394,8643,-5,-1726,-4704,23,-346,-146,146
395,8635,5,-1707,-4703,23,-346,-154,140
396,8633,21,-1711,-4699,23,-345,-157,140
397,8627,23,-1742,-4708,23,-343,-155,140
398,8639,2,-1714,-4704,23,-345,-151,138
399,8642,-6,-1731,-4708,23,-340,-143,140
400,8633,-1,-1737,-4713,23,-347,-154,142
401,8628,-7,-1720,-4705,23,-355,-155,141
402,8645,7,-1719,-4703,23,-342,-153,141
403,8645,10,-1742,-4707,23,-338,-148,143
404,8643,23,-1754,-4707,23,-341,-149,144
405,8634,19,-1725,-4708,23,-347,-147,135
406,8641,10,-1712,-4707,23,-351,-151,145
407,8641,0,-1716,-4705,23,-351,-147,143
408,8635,-3,-1695,-4704,23,-338,-155,142
409,8642,4,-1697,-4706,23,-342,-155,142
410,8634,9,-1709,-4703,23,-349,-162,143
411,8640,10,-1708,-4711,23,-346,-155,141
412,8623,5,-1713,-4709,23,-344,-152,142
413,8635,8,-1696,-4704,23,-346,-148,142
414,8639,17,-1723,-4706,23,-344,-153,140
415,8637,-3,-1738,-4705,23,-342,-161,144
416,8628,5,-1761,-4709,23,-345,-152,133
417,8618,9,-1720,-4703,23,-350,-152,139
418,8640,20,-1726,-4705,23,-343,-149,146
419,8630,-2,-1728,-4705,23,-340,-148,139
420,8633,5,-1714,-4702,23,-341,-148,137
421,8637,-2,-1707,-4702,23,-342,-152,147
422,8633,2,-1726,-4705,23,-340,-150,143
423,8636,4,-1708,-4705,23,-347,-146,137
424,8620,10,-1720,-4701,23,-342,-147,143
425,8633,2,-1707,-4699,23,-343,-153,138
426,8613,2,-1726,-4706,23,-347,-150,141
427,8628,22,-1706,-4703,23,-352,-156,143
428,8616,3,-1724,-4703,23,-351,-158,138
429,8636,6,-1712,-4705,23,-345,-152,144
430,8624,8,-1688,-4715,23,-352,-154,135
431,8626,18,-1719,-4708,23,-350,-154,138
432,8625,20,-1741,-4704,23,-347,-153,133
433,8625,12,-1726,-4701,23,-349,-158,138
434,8632,10,-1711,-4703,23,-344,-159,135
435,8642,2,-1721,-4708,23,-348,-153,139
436,8637,5,-1740,-4705,23,-349,-152,137
437,8634,18,-1732,-4699,23,-345,-148,144
438,8633,15,-1725,-4703,23,-350,-150,142
439,8636,10,-1739,-4703,23,-346,-150,142
440,8632,1,-1726,-4703,23,-347,-157,146
441,8621,-9,-1738,-4705,23,-341,-146,143
442,8633,-2,-1740,-4701,23,-341,-141,139
443,8633,-1,-1756,-4702,23,-337,-150,140
444,8631,2,-1746,-4703,23,-342,-145,148
445,8635,-4,-1702,-4703,23,-346,-140,145
446,8644,6,-1697,-4702,23,-345,-145,146
447,8654,-4,-1712,-4703,23,-341,-153,147
448,8638,-2,-1707,-4704,23,-346,-154,139
449,8635,-6,-1714,-4704,23,-338,-154,136
450,8645,9,-1724,-4706,23,-342,-158,145
451,8640,19,-1716,-4703,23,-343,-152,140
452,8645,6,-1726,-4704,23,-344,-151,139
453,8640,9,-1695,-4705,23,-351,-148,141
454,8628,9,-1702,-4709,23,-349,-153,140
455,8628,8,-1712,-4709,23,-348,-155,144
456,8628,3,-1728,-4703,23,-346,-150,142
457,8636,5,-1712,-4705,23,-350,-153,135
458,8643,7,-1719,-4705,23,-344,-149,137
459,8636,14,-1725,-4706,23,-345,-150,142
460,8632,6,-1740,-4703,23,-342,-152,140
461,8632,9,-1701,-4708,23,-347,-150,138
462,8627,3,-1690,-4706,23,-344,-157,142
463,8646,11,-1702,-4701,23,-339,-149,137
464,8646,17,-1710,-4703,23,-347,-159,136
465,8645,10,-1730,-4700,23,-346,-156,137
466,8644,9,-1699,-4704,23,-352,-154,148
467,8648,8,-1727,-4702,23,-341,-149,150
468,8645,10,-1712,-4700,23,-349,-145,148
469,8650,11,-1715,-4700,23,-346,-146,141
470,8639,0,-1713,-4702,23,-344,-153,137
471,8638,6,-1699,-4701,23,-341,-151,139
472,8641,17,-1731,-4706,23,-341,-151,138
473,8634,14,-1742,-4706,23,-343,-154,139
474,8628,10,-1728,-4708,23,-344,-152,136
475,8636,21,-1727,-4702,23,-347,-157,134
476,8632,5,-1743,-4703,23,-341,-156,138
477,8629,14,-1726,-4702,23,-340,-157,136
478,8631,15,-1710,-4704,23,-344,-154,133
479,8649,12,-1716,-4703,23,-345,-153,136
480,8639,2,-1739,-4704,23,-346,-149,138
481,8628,15,-1724,-4710,23,-345,-144,138
482,8639,2,-1734,-4705,23,-343,-148,143
483,8641,5,-1716,-4706,23,-343,-144,142
484,8636,-1,-1707,-4705,23,-350,-146,143
485,8642,10,-1700,-4701,23,-350,-154,144
486,8627,0,-1709,-4705,23,-347,-151,146
487,8637,13,-1705,-4706,23,-349,-150,145
488,8636,8,-1696,-4706,23,-345,-150,144
489,8645,14,-1713,-4703,23,-345,-148,139
490,8645,8,-1711,-4702,23,-351,-144,137
491,8627,3,-1729,-4705,23,-344,-155,141
492,8629,7,-1732,-4702,23,-341,-149,144
493,8639,4,-1729,-4705,23,-340,-158,136
494,8648,11,-1725,-4704,23,-349,-149,144
495,8657,13,-1712,-4701,23,-345,-152,140
496,8637,5,-1717,-4708,23,-346,-151,137
497,8632,2,-1721,-4704,23,-344,-150,139
498,8641,2,-1714,-4701,23,-339,-145,144
499,8638,-1,-1719,-4707,23,-342,-152,137
500,8655,3,-1706,-4707,23,-342,-151,138
501,8627,1,-1712,-4703,23,-345,-149,140
502,8642,6,-1717,-4707,23,-348,-150,137
503,8642,2,-1720,-4706,23,-342,-153,140
504,8640,15,-1718,-4700,23,-347,-157,141
505,8627,10,-1703,-4697,23,-347,-150,145
506,8649,9,-1719,-4704,23,-344,-151,141
507,8638,14,-1714,-4699,23,-346,-152,141
508,8632,14,-1712,-4701,23,-344,-147,136
509,8638,14,-1725,-4700,23,-346,-155,139
510,8650,9,-1726,-4707,23,-340,-155,137
511,8641,2,-1730,-4702,23,-344,-153,139
512,8646,5,-1718,-4700,23,-344,-158,145
513,8642,5,-1734,-4696,23,-342,-161,136
514,8630,-15,-1749,-4701,23,-344,-150,140
515,8643,4,-1743,-4710,23,-343,-146,140
516,8631,3,-1739,-4704,23,-346,-154,136
517,8643,11,-1764,-4706,23,-340,-150,144
518,8636,6,-1735,-4702,23,-339,-146,144
519,8621,4,-1705,-4704,23,-342,-151,141
520,8629,21,-1722,-4700,23,-340,-143,145
521,8643,8,-1715,-4705,23,-345,-144,140
522,8637,15,-1730,-4702,23,-341,-147,142
523,8646,10,-1728,-4703,23,-345,-149,141
524,8635,-4,-1728,-4699,23,-343,-151,137
525,8633,1,-1728,-4702,23,-345,-156,138
526,8629,-10,-1733,-4709,23,-349,-148,143
527,8625,-7,-1716,-4706,23,-339,-148,141
528,8617,-13,-1714,-4702,23,-347,-149,137
529,8623,-2,-1747,-4695,23,-347,-156,139
530,8622,-2,-1730,-4700,23,-349,-155,139
531,8640,1,-1698,-4703,23,-346,-147,141
532,8640,-2,-1712,-4703,23,-346,-145,138
533,8634,2,-1710,-4703,23,-347,-148,141
534,8639,2,-1732,-4705,23,-348,-156,140
535,8643,1,-1717,-4710,23,-342,-158,141
536,8640,0,-1720,-4704,23,-343,-154,138
537,8633,3,-1739,-4704,23,-353,-156,144
538,8628,3,-1744,-4709,23,-346,-151,141
539,8631,20,-1723,-4705,23,-348,-145,139
540,8622,6,-1725,-4701,23,-349,-152,139
541,8636,0,-1713,-4705,23,-343,-153,141
542,8644,-2,-1693,-4705,23,-341,-151,143
543,8644,-4,-1716,-4700,23,-350,-148,138
544,8636,8,-1691,-4703,23,-346,-148,138
545,8635,0,-1695,-4703,23,-343,-150,134
546,8632,6,-1713,-4706,23,-348,-158,139
547,8633,14,-1718,-4709,23,-346,-152,139
548,8642,23,-1701,-4702,23,-345,-154,135
549,8633,12,-1723,-4704,23,-347,-150,132
550,8638,8,-1739,-4700,23,-351,-154,138
551,8641,-10,-1736,-4702,23,-349,-157,137
552,8635,2,-1726,-4703,23,-351,-151,138
553,8633,6,-1709,-4694,23,-349,-154,137
554,8639,18,-1710,-4699,23,-350,-150,135
555,8620,26,-1712,-4698,23,-350,-150,137
556,8621,24,-1730,-4699,23,-351,-149,135
557,8634,11,-1730,-4702,23,-348,-154,141
558,8631,24,-1715,-4706,23,-343,-150,139
559,8626,21,-1723,-4697,23,-343,-149,145
560,8630,10,-1714,-4699,23,-344,-148,146
561,8631,-9,-1730,-4701,23,-340,-154,138
562,8628,4,-1715,-4695,23,-347,-151,129
563,8636,15,-1722,-4700,23,-342,-148,136
564,8642,14,-1725,-4702,23,-340,-150,133
565,8640,8,-1719,-4700,23,-344,-148,136
566,8633,0,-1715,-4704,23,-345,-153,143
567,8647,15,-1708,-4704,23,-344,-154,143
568,8644,19,-1710,-4703,23,-346,-148,137
569,8645,14,-1715,-4708,23,-346,-146,146
570,8646,7,-1732,-4707,23,-346,-148,141
571,8641,3,-1711,-4704,23,-349,-153,138
572,8639,-8,-1733,-4709,23,-352,-144,139
573,8650,6,-1724,-4702,23,-357,-145,134
574,8641,6,-1716,-4706,23,-360,-146,136
575,8643,27,-1705,-4703,23,-345,-156,143
576,8637,15,-1708,-4700,23,-347,-150,139
577,8636,21,-1723,-4701,23,-347,-149,140
578,8629,17,-1721,-4697,23,-348,-149,140
579,8626,6,-1710,-4697,23,-352,-155,139
580,8628,3,-1710,-4702,23,-347,-154,137
581,8626,7,-1720,-4702,23,-352,-156,136
582,8651,-14,-1724,-4701,23,-352,-158,145
583,8632,6,-1709,-4700,23,-348,-156,142
584,8638,11,-1729,-4703,23,-347,-154,137
585,8637,15,-1736,-4698,23,-351,-153,146
586,8633,-9,-1722,-4703,23,-347,-155,137
587,8630,-13,-1715,-4704,23,-351,-155,140
588,8611,-6,-1723,-4704,23,-346,-150,144
589,8627,-2,-1722,-4700,23,-345,-149,144
590,8635,-3,-1699,-4694,23,-339,-151,137
591,8639,25,-1718,-4702,23,-344,-154,136
592,8647,-1,-1711,-4700,23,-344,-147,138
593,8649,21,-1710,-4700,23,-345,-156,146
594,8639,20,-1703,-4705,23,-340,-151,138
595,8631,12,-1725,-4705,23,-346,-145,144
596,8616,15,-1718,-4705,23,-343,-149,143
597,8631,11,-1733,-4703,23,-346,-149,139
598,8632,20,-1716,-4707,23,-341,-153,138
599,8642,18,-1705,-4708,23,-343,-158,140
600,8639,6,-1708,-4710,23,-345,-149,140
601,8633,10,-1714,-4703,23,-350,-149,136
602,8628,1,-1715,-4704,23,-342,-151,137
603,8646,12,-1731,-4704,23,-347,-147,142
604,8656,4,-1710,-4703,23,-345,-149,139
605,8639,10,-1718,-4702,23,-349,-148,144
606,8631,7,-1721,-4703,23,-349,-152,139
607,8635,-2,-1703,-4696,23,-340,-152,141
608,8639,4,-1708,-4706,23,-342,-148,139
609,8647,22,-1730,-4705,23,-336,-150,137
610,8635,6,-1696,-4708,23,-337,-145,141
611,8650,4,-1716,-4703,23,-341,-145,132
612,8631,9,-1720,-4706,23,-345,-146,141
613,8636,5,-1713,-4703,23,-345,-150,138
614,8625,3,-1720,-4705,23,-347,-146,140
615,8628,-2,-1705,-4703,23,-349,-148,143
616,8642,20,-1724,-4704,23,-348,-147,141
617,8647,15,-1708,-4699,23,-346,-146,137
618,8646,7,-1696,-4701,23,-345,-148,139
619,8635,2,-1712,-4705,23,-344,-158,141
620,8627,4,-1725,-4705,23,-343,-157,142
621,8633,11,-1711,-4704,23,-344,-152,138
622,8632,13,-1698,-4703,23,-348,-152,143
623,8629,25,-1699,-4704,23,-348,-150,139
624,8644,13,-1729,-4706,23,-344,-149,139
625,8634,23,-1721,-4703,23,-345,-150,141
626,8638,13,-1725,-4704,23,-344,-149,140
627,8640,16,-1728,-4706,23,-342,-150,139
628,8624,2,-1718,-4708,23,-343,-154,139
629,8617,-2,-1716,-4701,23,-341,-155,139
630,8639,10,-1697,-4699,23,-339,-152,141
631,8635,13,-1705,-4700,23,-344,-152,138
632,8641,17,-1704,-4699,23,-348,-149,136
633,8624,21,-1701,-4703,23,-348,-146,131
634,8618,2,-1712,-4703,23,-340,-156,138
635,8629,16,-1728,-4702,23,-344,-156,140
636,8619,20,-1734,-4706,23,-346,-152,141
637,8618,9,-1705,-4704,23,-340,-154,138
638,8633,8,-1708,-4704,23,-343,-145,145
639,8645,16,-1718,-4704,23,-344,-152,146
640,8641,17,-1736,-4700,23,-349,-154,140
641,8661,16,-1718,-4702,23,-341,-159,139
642,8639,-7,-1730,-4699,23,-344,-141,144
643,8626,-2,-1737,-4704,23,-346,-151,140
644,8634,11,-1716,-4705,23,-345,-143,147
645,8632,-6,-1720,-4704,23,-347,-146,141
646,8639,-17,-1718,-4700,23,-340,-140,143
647,8632,-1,-1707,-4706,23,-341,-143,141
648,8637,16,-1705,-4699,23,-342,-144,138
649,8628,13,-1697,-4703,23,-347,-147,139
650,8633,3,-1694,-4707,23,-343,-156,137
651,8650,13,-1731,-4704,23,-342,-156,142
652,8651,-2,-1720,-4704,23,-345,-154,143
653,8634,3,-1747,-4703,23,-353,-160,141
654,8639,11,-1733,-4706,23,-347,-150,141
655,8640,-3,-1722,-4706,23,-348,-148,135
656,8633,20,-1704,-4708,23,-347,-154,144
657,8643,14,-1720,-4711,23,-348,-160,134
658,8640,1,-1717,-4710,23,-347,-149,138
659,8641,9,-1721,-4709,23,-350,-143,140
660,8643,11,-1697,-4703,23,-347,-145,135
661,8646,11,-1706,-4707,23,-348,-151,136
662,8653,23,-1740,-4701,23,-349,-149,139
663,8626,13,-1728,-4697,23,-345,-147,140
664,8642,11,-1720,-4698,23,-346,-147,137
665,8646,15,-1702,-4701,23,-348,-152,145
666,8650,11,-1709,-4702,23,-345,-150,141
667,8637,11,-1716,-4699,23,-351,-145,134
668,8638,10,-1706,-4705,23,-355,-157,138
669,8641,11,-1718,-4700,23,-348,-156,144
670,8638,7,-1716,-4702,23,-347,-154,141
671,8632,13,-1716,-4705,23,-349,-151,143
672,8627,15,-1731,-4706,23,-344,-150,137
673,8625,4,-1713,-4699,23,-348,-148,141
674,8629,8,-1728,-4698,23,-348,-149,140
675,8621,19,-1704,-4703,23,-347,-157,140
676,8627,9,-1707,-4704,23,-359,-144,138
677,8627,21,-1728,-4701,23,-349,-144,131
678,8627,10,-1735,-4707,23,-348,-145,131
679,8629,0,-1714,-4703,23,-346,-147,134
680,8630,6,-1737,-4705,23,-345,-147,142
681,8622,7,-1703,-4703,23,-344,-151,139
682,8634,9,-1729,-4704,23,-345,-158,144
683,8641,-11,-1718,-4706,23,-347,-147,138
684,8638,5,-1715,-4702,23,-346,-149,139
685,8642,10,-1718,-4700,23,-348,-150,132
686,8639,11,-1727,-4700,23,-351,-147,134
687,8644,15,-1703,-4705,23,-348,-148,140
688,8652,23,-1704,-4703,23,-348,-151,142
689,8639,17,-1729,-4703,23,-349,-146,148
690,8651,2,-1723,-4701,23,-347,-147,145
691,8636,18,-1700,-4702,23,-350,-148,146
692,8657,5,-1729,-4705,23,-338,-151,142
693,8643,15,-1711,-4703,23,-344,-151,139
694,8635,7,-1706,-4701,23,-342,-149,135
695,8633,15,-1717,-4700,23,-339,-143,140
696,8638,8,-1715,-4701,23,-350,-152,141
697,8638,9,-1715,-4703,23,-343,-154,138
698,8634,26,-1717,-4704,23,-343,-156,138
699,8627,13,-1731,-4704,23,-348,-148,138
700,8637,23,-1722,-4704,23,-343,-151,143
701,8646,23,-1741,-4708,23,-347,-154,138
702,8643,28,-1719,-4697,23,-346,-154,145
703,8631,12,-1707,-4707,23,-343,-151,143
704,8628,20,-1703,-4702,23,-345,-151,148
705,8638,28,-1731,-4704,23,-337,-153,137
706,8643,26,-1736,-4703,23,-339,-159,136
707,8643,14,-1712,-4697,23,-348,-157,143
708,8639,10,-1721,-4698,23,-349,-154,140
709,8625,-8,-1712,-4701,23,-348,-149,138
710,8634,-7,-1723,-4702,23,-345,-153,133
711,8640,8,-1701,-4705,23,-348,-153,133
712,8634,10,-1705,-4702,23,-349,-146,139
713,8650,19,-1719,-4704,23,-341,-148,145
714,8649,10,-1727,-4701,23,-343,-151,145
715,8632,21,-1720,-4701,23,-347,-147,150
716,8643,7,-1720,-4704,23,-345,-144,138
717,8639,13,-1728,-4701,23,-344,-150,145
718,8627,10,-1732,-4699,23,-342,-139,142
719,8641,9,-1718,-4701,23,-343,-158,135
720,8634,9,-1713,-4707,23,-350,-147,139
721,8638,15,-1714,-4704,23,-349,-153,141
722,8634,22,-1716,-4701,23,-350,-158,135
723,8648,6,-1697,-4698,23,-348,-150,137
724,8642,5,-1712,-4704,23,-345,-155,140
725,8650,1,-1724,-4702,23,-347,-144,140
726,8645,7,-1694,-4705,23,-349,-145,135
727,8641,10,-1718,-4701,23,-348,-137,139
728,8638,1,-1717,-4702,23,-354,-141,135
729,8637,4,-1721,-4702,23,-341,-153,134
730,8639,-1,-1706,-4700,23,-341,-154,137
731,8636,11,-1707,-4705,23,-347,-154,133
732,8643,12,-1716,-4704,23,-342,-155,131
733,8634,16,-1730,-4702,23,-344,-151,140
734,8641,3,-1718,-4703,23,-344,-149,143
735,8646,2,-1713,-4703,23,-346,-145,138
736,8626,6,-1705,-4701,23,-347,-153,148
737,8617,18,-1712,-4693,23,-343,-151,145
738,8634,-10,-1712,-4696,23,-344,-155,138
739,8630,0,-1710,-4699,23,-349,-149,139
740,8629,-1,-1719,-4700,23,-347,-154,142
741,8649,11,-1743,-4706,23,-348,-157,145
742,8637,19,-1708,-4701,23,-342,-149,143
743,8629,-7,-1695,-4705,23,-347,-147,144
744,8649,-10,-1710,-4698,23,-353,-150,145
745,8650,17,-1733,-4699,23,-351,-150,138
746,8640,2,-1716,-4699,23,-348,-152,140
747,8631,10,-1731,-4703,23,-342,-153,135
748,8630,12,-1756,-4706,23,-344,-151,134
749,8622,15,-1728,-4705,23,-348,-157,135
750,8641,11,-1702,-4704,23,-344,-152,141
751,8635,11,-1701,-4707,23,-344,-153,142
752,8628,9,-1694,-4701,23,-348,-158,140
753,8629,13,-1719,-4707,23,-354,-155,139
754,8630,1,-1717,-4705,23,-347,-154,135
755,8634,0,-1709,-4702,23,-344,-156,137
756,8634,16,-1682,-4701,23,-345,-148,141
757,8639,1,-1681,-4700,23,-346,-158,144
758,8639,4,-1721,-4705,23,-346,-148,136
759,8655,20,-1733,-4705,23,-346,-151,141
760,8643,13,-1719,-4706,23,-355,-150,137
761,8635,-3,-1711,-4704,23,-347,-153,138
762,8633,3,-1728,-4703,23,-351,-153,139
763,8626,10,-1721,-4701,23,-341,-148,136
764,8633,9,-1725,-4702,23,-347,-150,131
765,8635,4,-1710,-4705,23,-347,-149,134
766,8632,-20,-1710,-4705,23,-339,-149,134
767,8625,0,-1721,-4704,23,-348,-148,138
768,8642,0,-1713,-4700,23,-340,-155,135
769,8638,0,-1724,-4696,23,-345,-157,135
770,8647,-1,-1724,-4696,23,-342,-154,141
771,8650,8,-1703,-4701,23,-348,-153,142
772,8642,6,-1724,-4699,23,-348,-154,143
773,8636,14,-1712,-4701,23,-347,-153,145
774,8637,0,-1698,-4699,23,-346,-153,143
775,8628,-1,-1710,-4695,23,-341,-152,140
776,8639,10,-1707,-4704,23,-349,-146,137
777,8640,10,-1720,-4701,23,-346,-149,142
778,8640,7,-1705,-4701,23,-346,-148,140
779,8639,0,-1709,-4704,23,-342,-145,132
780,8630,1,-1718,-4699,23,-346,-144,136
781,8625,18,-1720,-4708,23,-349,-143,140
782,8631,6,-1707,-4702,23,-351,-149,142
783,8639,6,-1719,-4703,23,-347,-149,134
784,8631,16,-1706,-4705,23,-341,-156,137
785,8639,12,-1711,-4710,23,-338,-148,137
786,8630,1,-1681,-4705,23,-343,-156,142
787,8626,4,-1721,-4703,23,-341,-153,139
788,8634,1,-1716,-4696,23,-343,-144,144
789,8636,6,-1698,-4698,23,-347,-139,146
790,8634,8,-1703,-4702,23,-342,-150,145
791,8634,14,-1703,-4703,23,-350,-150,138
792,8636,8,-1707,-4700,23,-348,-151,138
793,8638,-1,-1701,-4697,23,-349,-145,142
794,8634,16,-1723,-4701,23,-347,-150,138
795,8633,9,-1707,-4701,23,-343,-139,143
796,8628,14,-1714,-4700,23,-338,-143,142
797,8633,8,-1699,-4700,23,-346,-150,144
798,8646,-8,-1710,-4697,23,-347,-152,139
799,8640,0,-1740,-4698,23,-345,-145,137
800,8646,17,-1725,-4708,23,-350,-145,142
801,8639,10,-1706,-4707,23,-349,-152,147
802,8647,1,-1710,-4705,23,-348,-153,145
803,8643,2,-1704,-4700,23,-352,-148,144
804,8644,13,-1722,-4702,23,-344,-158,144
805,8644,4,-1725,-4708,23,-348,-151,141
806,8643,6,-1692,-4705,23,-340,-149,135
807,8638,-2,-1727,-4699,23,-347,-153,140
808,8649,-5,-1718,-4695,23,-348,-150,134
809,8643,-1,-1716,-4701,23,-351,-147,135
810,8645,0,-1715,-4703,23,-340,-153,145
811,8645,2,-1696,-4705,23,-353,-152,144
812,8643,12,-1726,-4702,23,-350,-155,139
813,8632,14,-1713,-4702,23,-344,-158,142
814,8631,4,-1698,-4697,23,-343,-155,141
815,8643,8,-1708,-4700,23,-342,-153,138
816,8646,11,-1710,-4702,23,-340,-147,140
817,8631,6,-1731,-4699,23,-348,-148,141
818,8639,16,-1733,-4702,23,-342,-151,141
819,8630,13,-1731,-4697,23,-341,-146,137
820,8636,4,-1735,-4697,23,-350,-150,138
821,8644,5,-1729,-4701,23,-350,-139,131
822,8651,-4,-1738,-4701,23,-344,-149,143
823,8651,4,-1696,-4696,23,-347,-151,137
824,8632,11,-1694,-4698,23,-342,-143,139
825,8623,3,-1711,-4700,23,-344,-147,138
826,8649,1,-1731,-4699,23,-345,-148,138
827,8639,1,-1730,-4702,23,-345,-150,133
828,8636,11,-1726,-4701,23,-344,-150,137
829,8624,16,-1710,-4697,23,-342,-155,134
830,8636,13,-1694,-4701,23,-342,-153,139
831,8648,5,-1731,-4704,23,-350,-152,136
832,8621,10,-1750,-4701,23,-349,-149,139
833,8630,20,-1716,-4699,23,-354,-155,143
834,8624,28,-1688,-4700,23,-349,-150,140
835,8636,19,-1701,-4699,23,-356,-153,144
836,8620,18,-1703,-4705,23,-352,-154,143
837,8627,18,-1729,-4703,23,-352,-158,137
838,8636,9,-1714,-4695,23,-346,-155,139
839,8628,5,-1730,-4704,23,-341,-151,143
840,8633,-11,-1706,-4702,23,-343,-147,138
841,8641,3,-1711,-4703,23,-348,-148,141
842,8622,18,-1706,-4705,23,-346,-155,141
843,8634,8,-1713,-4701,23,-340,-145,140
844,8630,12,-1710,-4698,23,-345,-151,135
845,8625,2,-1697,-4704,23,-348,-152,138
846,8625,-5,-1721,-4699,23,-344,-157,140
847,8625,9,-1720,-4702,23,-341,-152,139
848,8634,4,-1717,-4700,23,-343,-154,141
849,8626,-3,-1722,-4704,23,-344,-160,136
850,8630,3,-1709,-4699,23,-343,-153,145
851,8629,10,-1722,-4701,23,-352,-156,140
852,8642,11,-1726,-4702,23,-348,-155,146
853,8637,5,-1701,-4700,23,-349,-158,135
854,8632,5,-1702,-4699,23,-352,-155,138
855,8647,0,-1722,-4702,23,-343,-153,134
856,8648,1,-1734,-4698,23,-339,-146,139
857,8630,21,-1716,-4698,23,-344,-151,135
858,8636,31,-1710,-4700,23,-342,-153,136
859,8629,13,-1721,-4694,23,-344,-153,136
860,8632,2,-1708,-4700,23,-347,-152,145
861,8634,-7,-1737,-4700,23,-356,-149,136
862,8631,15,-1750,-4702,23,-353,-148,144
863,8627,-6,-1718,-4702,23,-349,-151,135
864,8643,-6,-1703,-4699,23,-350,-143,137
865,8653,-2,-1711,-4697,23,-353,-151,138
866,8642,5,-1718,-4695,23,-349,-147,139
867,8631,7,-1715,-4700,23,-346,-151,142
868,8623,7,-1709,-4694,23,-345,-149,142
869,8619,20,-1702,-4695,23,-348,-151,146
870,8613,14,-1717,-4694,23,-346,-146,140
871,8630,18,-1734,-4698,23,-346,-149,140
872,8629,25,-1710,-4697,23,-340,-161,137
873,8622,10,-1719,-4693,23,-341,-144,140
874,8619,12,-1701,-4692,23,-344,-150,141
875,8652,23,-1732,-4697,23,-347,-149,139
876,8631,6,-1723,-4699,23,-343,-147,143
877,8644,8,-1731,-4705,23,-348,-148,143
878,8649,-8,-1725,-4698,23,-348,-149,138
879,8643,6,-1723,-4704,23,-347,-144,138
880,8638,7,-1711,-4701,23,-349,-153,138
881,8630,14,-1740,-4699,23,-351,-148,136
882,8633,9,-1745,-4699,23,-351,-147,134
883,8636,8,-1734,-4694,23,-349,-153,133
884,8633,-5,-1741,-4700,23,-348,-157,135
885,8658,-7,-1729,-4704,23,-339,-152,132
886,8642,13,-1719,-4700,23,-342,-154,137
887,8639,-3,-1698,-4698,23,-341,-149,139
888,8633,13,-1720,-4701,23,-340,-145,140
889,8644,2,-1734,-4700,23,-342,-148,144
890,8638,-12,-1704,-4701,23,-352,-155,135
891,8622,-2,-1716,-4700,23,-344,-161,133
892,8629,9,-1694,-4702,23,-352,-156,143
893,8634,-1,-1702,-4698,23,-352,-154,146
894,8642,4,-1722,-4700,23,-349,-152,139
895,8632,18,-1727,-4700,23,-349,-147,143
896,8629,7,-1728,-4699,23,-348,-145,141
897,8631,10,-1730,-4698,23,-343,-146,139
898,8637,-5,-1721,-4692,23,-348,-147,136
899,8631,4,-1723,-4699,23,-346,-158,141
900,8632,-5,-1732,-4703,23,-346,-153,136
901,8646,-11,-1724,-4702,23,-339,-153,140
902,8624,4,-1726,-4700,23,-352,-151,143
903,8627,16,-1716,-4701,23,-346,-152,133
904,8635,13,-1715,-4700,23,-345,-147,139
905,8634,0,-1741,-4697,23,-343,-153,139
906,8642,-1,-1711,-4697,23,-345,-142,139
907,8653,4,-1705,-4695,23,-349,-149,145
908,8639,2,-1739,-4697,23,-346,-158,139
909,8632,0,-1729,-4699,23,-342,-153,138
910,8624,6,-1698,-4696,23,-344,-154,134
911,8634,15,-1718,-4695,23,-346,-154,136
912,8625,8,-1706,-4697,23,-347,-162,139
913,8653,2,-1717,-4694,23,-345,-152,135
914,8641,1,-1701,-4691,23,-340,-152,135
915,8636,7,-1718,-4697,23,-343,-154,138
916,8629,19,-1714,-4696,23,-342,-158,143
917,8643,14,-1710,-4696,23,-341,-157,137
918,8633,19,-1723,-4698,23,-343,-151,141
919,8625,14,-1721,-4702,23,-338,-147,141
920,8630,-4,-1729,-4699,23,-344,-146,143
921,8624,0,-1726,-4698,23,-351,-148,138
922,8615,-3,-1731,-4693,23,-349,-154,139
923,8633,-10,-1700,-4695,23,-348,-152,138
924,8619,7,-1692,-4693,23,-348,-152,135
925,8633,9,-1700,-4690,23,-346,-145,139
926,8641,24,-1716,-4699,23,-345,-146,139
927,8637,6,-1730,-4698,23,-342,-153,138
928,8633,-2,-1722,-4700,23,-344,-156,131
929,8628,4,-1714,-4697,23,-341,-150,136
930,8656,14,-1723,-4704,23,-344,-153,141
931,8643,0,-1725,-4698,23,-349,-154,138
932,8630,8,-1705,-4696,23,-349,-148,142
933,8630,12,-1726,-4695,23,-351,-157,140
934,8647,16,-1711,-4695,23,-351,-149,137
935,8643,4,-1716,-4696,23,-348,-160,143
936,8637,5,-1719,-4702,23,-346,-153,142
937,8622,8,-1715,-4701,23,-352,-149,135
938,8640,9,-1709,-4692,23,-350,-147,134
939,8643,0,-1705,-4695,23,-346,-148,134
940,8647,17,-1708,-4696,23,-349,-147,141
941,8644,-6,-1713,-4697,23,-348,-152,137
942,8631,2,-1702,-4700,23,-350,-149,140
943,8619,-1,-1713,-4694,23,-347,-154,137
944,8631,8,-1732,-4694,23,-348,-149,136
945,8631,-12,-1748,-4698,23,-355,-152,137
946,8637,15,-1731,-4693,23,-347,-152,137
947,8636,2,-1736,-4695,23,-348,-148,133
948,8648,9,-1725,-4698,23,-346,-153,146
949,8643,0,-1730,-4696,23,-341,-154,137
950,8634,8,-1738,-4696,23,-342,-152,136
951,8641,13,-1712,-4697,23,-348,-154,138
952,8652,8,-1692,-4697,23,-347,-149,142
953,8639,2,-1705,-4690,23,-342,-154,142
954,8654,17,-1712,-4694,23,-345,-153,135
955,8633,24,-1740,-4696,23,-342,-147,134
956,8646,20,-1715,-4689,23,-350,-144,132
957,8643,17,-1717,-4697,23,-341,-146,138
958,8640,18,-1705,-4699,23,-342,-148,139
959,8641,7,-1689,-4694,23,-352,-152,139
960,8634,11,-1712,-4692,23,-353,-150,145
961,8637,12,-1731,-4694,23,-347,-147,144
962,8634,17,-1715,-4696,23,-349,-147,146
963,8640,11,-1717,-4698,23,-343,-152,142
964,8628,-3,-1711,-4694,23,-342,-156,138
965,8627,6,-1731,-4691,23,-348,-159,135
966,8643,11,-1718,-4692,23,-348,-151,138
967,8639,1,-1710,-4695,23,-347,-156,141
968,8644,7,-1707,-4699,23,-352,-148,140
969,8638,-4,-1728,-4700,23,-343,-148,140
970,8622,5,-1722,-4702,23,-350,-142,142
971,8632,0,-1706,-4698,23,-346,-153,141
972,8642,2,-1700,-4696,23,-344,-153,139
973,8633,2,-1704,-4698,23,-349,-162,140
974,8645,0,-1707,-4694,23,-352,-161,142
975,8640,8,-1688,-4699,23,-347,-158,134
976,8641,-1,-1705,-4691,23,-342,-156,138
977,8640,-1,-1710,-4694,23,-346,-149,143
978,8634,-7,-1702,-4696,23,-347,-149,140
979,8629,-1,-1732,-4697,23,-349,-154,144
980,8632,23,-1717,-4699,23,-343,-149,142
981,8637,17,-1710,-4701,23,-340,-150,140
982,8642,14,-1724,-4695,23,-348,-154,146
983,8643,23,-1734,-4696,23,-351,-148,142
984,8645,18,-1716,-4696,23,-344,-149,137
985,8639,8,-1711,-4701,23,-350,-143,135
986,8643,17,-1734,-4701,23,-347,-158,135
987,8664,14,-1708,-4698,23,-345,-152,135
988,8648,17,-1736,-4695,23,-346,-150,137
989,8646,18,-1738,-4693,23,-348,-153,140
990,8633,13,-1708,-4699,23,-338,-155,138
991,8643,4,-1704,-4703,23,-343,-154,138
992,8643,11,-1731,-4698,23,-351,-151,140
993,8639,-6,-1717,-4696,23,-344,-148,135
994,8634,2,-1726,-4695,23,-354,-152,136
995,8641,-1,-1723,-4698,23,-348,-155,136
996,8629,2,-1705,-4692,23,-346,-147,139
997,8621,-3,-1733,-4691,23,-347,-154,139
998,8613,-7,-1724,-4693,23,-348,-153,140
