,acc_X,acc_Y,acc_Z,temp,tempC,gyr_X,gyr_Y,gyr_Z
0,8632,0,-1727,-4675,23,-43,-19,16
1,8653,-23,-1697,-4672,23,-43,-20,18
2,8654,21,-1694,-4671,23,-44,-19,17
3,8654,22,-1678,-4673,23,-43,-19,16
4,8682,13,-1719,-4678,23,-46,-18,17
5,8629,9,-1690,-4678,23,-44,-19,17
6,8636,-14,-1721,-4674,23,-44,-20,16
7,8665,1,-1688,-4671,23,-44,-19,15
8,8646,-9,-1687,-4670,23,-45,-17,16
9,8615,-19,-1718,-4673,23,-46,-19,19
10,8621,9,-1721,-4680,23,-44,-19,16
11,8638,-2,-1723,-4670,23,-44,-18,18
12,8616,28,-1709,-4679,23,-45,-20,16
13,8666,-4,-1654,-4671,23,-44,-19,17
14,8659,-29,-1676,-4686,23,-44,-20,16
15,8641,-2,-1652,-4677,23,-45,-19,16
16,8635,28,-1701,-4665,23,-42,-18,17
17,8660,9,-1694,-4678,23,-44,-21,16
18,8633,-5,-1696,-4679,23,-43,-17,15
19,8647,5,-1711,-4674,23,-45,-20,17
20,8633,6,-1691,-4679,23,-43,-21,16
21,8629,-24,-1674,-4674,23,-43,-20,17
22,8629,-13,-1664,-4665,23,-44,-18,17
23,8646,-14,-1686,-4675,23,-44,-19,16
24,8644,21,-1701,-4685,23,-45,-21,18
25,8628,-3,-1678,-4685,23,-43,-19,18
26,8667,-25,-1694,-4677,23,-44,-20,16
27,8623,12,-1708,-4683,23,-45,-18,17
28,8648,-7,-1700,-4682,23,-43,-20,18
29,8652,13,-1701,-4688,23,-44,-19,19
30,8640,27,-1689,-4666,23,-45,-19,17
31,8625,-11,-1683,-4671,23,-43,-18,17
32,8620,13,-1693,-4678,23,-44,-19,18
33,8634,7,-1700,-4671,23,-45,-18,18
34,8633,9,-1724,-4670,23,-45,-19,18
35,8643,-2,-1685,-4681,23,-44,-20,17
36,8637,1,-1685,-4678,23,-44,-19,18
37,8617,8,-1699,-4677,23,-45,-21,16
38,8650,1,-1707,-4684,23,-45,-20,18
39,8623,25,-1709,-4684,23,-44,-19,17
40,8675,25,-1765,-4678,23,-43,-19,18
41,8622,29,-1696,-4684,23,-44,-19,16
42,8651,-15,-1647,-4687,23,-42,-21,16
43,8659,22,-1697,-4672,23,-43,-20,15
44,8639,8,-1689,-4681,23,-45,-19,17
45,8633,18,-1705,-4675,23,-45,-19,17
46,8644,30,-1700,-4686,23,-45,-18,18
47,8657,-20,-1700,-4676,23,-42,-19,17
48,8654,21,-1697,-4678,23,-44,-19,18
49,8625,-22,-1708,-4684,23,-44,-19,17
50,8639,-3,-1692,-4679,23,-44,-19,16
51,8643,12,-1681,-4675,23,-44,-19,19
52,8618,16,-1684,-4677,23,-45,-18,16
53,8632,13,-1670,-4683,23,-44,-20,17
54,8583,-26,-1699,-4675,23,-43,-19,16
55,8629,26,-1700,-4669,23,-46,-20,18
56,8660,8,-1709,-4674,23,-45,-19,16
57,8632,1,-1649,-4682,23,-41,-20,18
58,8648,-21,-1706,-4681,23,-44,-18,17
59,8619,19,-1683,-4675,23,-43,-22,18
60,8632,4,-1692,-4680,23,-45,-20,19
61,8666,11,-1695,-4666,23,-45,-20,16
62,8629,3,-1715,-4677,23,-45,-19,18
63,8633,-14,-1678,-4672,23,-46,-19,18
64,8605,-7,-1724,-4670,23,-43,-19,15
65,8656,-11,-1703,-4677,23,-44,-20,16
66,8628,21,-1683,-4681,23,-44,-20,16
67,8656,-24,-1709,-4678,23,-44,-21,16
68,8633,2,-1672,-4667,23,-46,-20,18
69,8621,22,-1688,-4680,23,-43,-19,17
70,8626,14,-1681,-4673,23,-43,-20,17
71,8663,23,-1732,-4683,23,-44,-19,17
72,8641,-25,-1707,-4671,23,-43,-19,17
73,8635,4,-1720,-4677,23,-44,-19,16
74,8629,11,-1661,-4686,23,-44,-20,18
75,8628,13,-1700,-4673,23,-44,-17,15
76,8629,-14,-1683,-4676,23,-45,-19,17
77,8640,-19,-1733,-4671,23,-44,-18,17
78,8599,-9,-1715,-4673,23,-43,-20,17
79,8617,10,-1746,-4670,23,-45,-18,17
80,8643,-17,-1719,-4683,23,-44,-16,15
81,8636,3,-1724,-4681,23,-43,-19,16
82,8635,-4,-1671,-4680,23,-43,-20,19
83,8621,-3,-1742,-4682,23,-44,-20,15
84,8651,-9,-1711,-4677,23,-45,-20,16
85,8639,14,-1674,-4678,23,-43,-20,17
86,8632,-1,-1683,-4682,23,-44,-19,16
87,8649,12,-1670,-4671,23,-44,-19,17
88,8625,10,-1703,-4678,23,-43,-21,17
89,8639,-42,-1708,-4673,23,-46,-19,18
90,8636,18,-1689,-4679,23,-44,-19,16
91,8657,-18,-1668,-4683,23,-44,-20,16
92,8637,-4,-1702,-4671,23,-46,-21,18
93,8610,5,-1690,-4686,23,-45,-19,17
94,8635,19,-1707,-4675,23,-43,-19,17
95,8635,10,-1699,-4679,23,-45,-21,17
96,8618,31,-1675,-4672,23,-44,-18,17
97,8658,-15,-1675,-4680,23,-41,-20,17
98,8619,-15,-1655,-4665,23,-44,-19,16
99,8646,26,-1717,-4673,23,-44,-17,17
100,8649,9,-1696,-4660,23,-45,-18,17
101,8650,-14,-1638,-4672,23,-43,-20,16
102,8638,-14,-1667,-4681,23,-44,-19,17
103,8636,-5,-1700,-4668,23,-44,-19,17
104,8669,-22,-1705,-4680,23,-45,-21,16
105,8619,-17,-1708,-4672,23,-43,-19,16
106,8657,5,-1708,-4681,23,-44,-18,18
107,8658,21,-1668,-4673,23,-42,-18,17
108,8630,11,-1688,-4664,23,-44,-17,17
109,8602,11,-1695,-4674,23,-43,-20,16
110,8621,17,-1707,-4661,23,-43,-19,16
111,8640,35,-1662,-4675,23,-42,-20,16
112,8661,1,-1717,-4667,23,-44,-19,17
113,8646,-21,-1688,-4677,23,-44,-19,17
114,8648,9,-1742,-4679,23,-44,-19,16
115,8661,-12,-1704,-4672,23,-45,-19,17
116,8640,1,-1701,-4675,23,-43,-18,18
117,8637,15,-1689,-4669,23,-43,-19,18
118,8632,-1,-1701,-4670,23,-44,-21,17
119,8658,7,-1682,-4675,23,-44,-18,17
120,8669,8,-1686,-4673,23,-45,-21,17
121,8643,8,-1676,-4682,23,-43,-19,17
122,8642,4,-1662,-4668,23,-46,-22,17
123,8632,6,-1665,-4671,23,-44,-19,17
124,8653,5,-1723,-4677,23,-44,-18,17
125,8670,2,-1709,-4677,23,-42,-19,17
126,8619,8,-1692,-4672,23,-42,-19,17
127,8636,1,-1715,-4678,23,-44,-18,18
128,8612,23,-1719,-4685,23,-42,-19,18
129,8633,18,-1713,-4685,23,-44,-19,16
130,8638,-12,-1684,-4673,23,-43,-18,17
131,8651,-41,-1706,-4677,23,-44,-20,17
132,8636,68,-1726,-4673,23,-45,-19,17
133,8662,46,-1738,-4680,23,-46,-22,16
134,8626,11,-1718,-4680,23,-45,-20,17
135,8635,2,-1672,-4675,23,-43,-20,17
136,8653,-16,-1715,-4663,23,-44,-18,16
137,8662,7,-1648,-4667,23,-44,-18,16
138,8624,-22,-1682,-4669,23,-46,-19,16
139,8653,-37,-1689,-4669,23,-44,-18,17
140,8644,19,-1672,-4680,23,-44,-20,17
141,8603,-8,-1692,-4669,23,-45,-20,16
142,8646,-2,-1738,-4674,23,-43,-20,16
143,8602,-6,-1690,-4679,23,-44,-18,18
144,8636,21,-1775,-4670,23,-44,-19,17
145,8598,13,-1689,-4677,23,-43,-20,17
146,8627,20,-1751,-4669,23,-44,-18,17
147,8631,-19,-1686,-4677,23,-46,-20,16
148,8629,21,-1711,-4674,23,-42,-19,17
149,8668,17,-1736,-4675,23,-42,-20,17
150,8645,-15,-1701,-4671,23,-43,-19,17
151,8627,0,-1687,-4680,23,-45,-20,17
152,8634,-16,-1685,-4674,23,-44,-19,17
153,8643,21,-1729,-4689,23,-43,-18,17
154,8647,25,-1698,-4670,23,-43,-18,17
155,8653,-19,-1718,-4684,23,-45,-21,17
156,8615,7,-1695,-4676,23,-43,-18,17
157,8658,-7,-1697,-4677,23,-45,-19,17
158,8656,5,-1691,-4672,23,-44,-20,18
159,8659,16,-1693,-4679,23,-44,-18,19
160,8611,24,-1688,-4678,23,-45,-20,17
161,8642,27,-1682,-4668,23,-42,-19,17
162,8670,17,-1732,-4669,23,-43,-19,17
163,8636,13,-1675,-4674,23,-43,-19,15
164,8624,-17,-1699,-4673,23,-44,-18,16
165,8660,24,-1701,-4679,23,-43,-21,19
166,8636,-8,-1668,-4674,23,-44,-21,17
167,8664,-2,-1645,-4684,23,-43,-20,18
168,8646,-36,-1671,-4668,23,-44,-20,16
169,8623,-11,-1714,-4675,23,-45,-19,16
170,8675,-10,-1712,-4670,23,-44,-18,16
171,8613,16,-1711,-4672,23,-45,-19,18
172,8623,36,-1695,-4674,23,-44,-20,17
173,8618,-16,-1679,-4670,23,-43,-20,17
174,8627,16,-1712,-4675,23,-42,-19,17
175,8637,-17,-1695,-4694,23,-45,-19,17
176,8650,5,-1703,-4668,23,-45,-17,16
177,8613,9,-1697,-4678,23,-44,-21,17
178,8636,-34,-1716,-4671,23,-44,-17,17
179,8610,-20,-1699,-4677,23,-45,-19,15
180,8617,14,-1704,-4675,23,-43,-17,16
181,8628,11,-1634,-4678,23,-44,-19,18
182,8637,15,-1660,-4660,23,-43,-18,17
183,8636,27,-1666,-4681,23,-43,-18,18
184,8640,-18,-1734,-4683,23,-43,-18,18
185,8631,-16,-1690,-4677,23,-43,-19,18
186,8646,26,-1706,-4661,23,-44,-18,15
187,8641,10,-1674,-4677,23,-44,-19,15
188,8646,6,-1751,-4676,23,-43,-18,16
189,8647,-5,-1721,-4671,23,-44,-19,15
190,8608,-4,-1690,-4667,23,-43,-18,15
191,8635,-30,-1638,-4673,23,-43,-21,17
192,8625,39,-1638,-4666,23,-44,-18,18
193,8654,-9,-1676,-4664,23,-44,-18,17
194,8634,6,-1683,-4671,23,-44,-20,18
195,8625,-8,-1708,-4670,23,-44,-18,18
196,8647,-8,-1697,-4680,23,-44,-20,17
197,8654,-28,-1748,-4671,23,-43,-20,16
198,8642,-16,-1674,-4676,23,-43,-19,19
199,8624,48,-1754,-4678,23,-43,-19,17
200,8634,10,-1689,-4666,23,-43,-20,15
201,8633,6,-1674,-4669,23,-43,-20,16
202,8622,-8,-1716,-4685,23,-44,-18,17
203,8652,1,-1703,-4673,23,-43,-19,18
204,8637,3,-1738,-4674,23,-43,-17,17
205,8608,-17,-1724,-4681,23,-43,-19,15
206,8669,-20,-1661,-4672,23,-44,-18,18
207,8642,26,-1651,-4682,23,-43,-20,18
208,8657,-10,-1694,-4679,23,-43,-18,16
209,8663,-23,-1668,-4680,23,-42,-20,17
210,8628,-20,-1693,-4679,23,-44,-19,17
211,8626,-9,-1679,-4671,23,-44,-20,17
212,8637,-4,-1687,-4683,23,-44,-18,17
213,8651,-1,-1694,-4683,23,-42,-19,17
214,8638,4,-1686,-4676,23,-44,-18,16
215,8642,-10,-1677,-4674,23,-45,-19,16
216,8626,19,-1698,-4678,23,-42,-19,17
217,8660,-23,-1681,-4675,23,-43,-18,16
218,8651,9,-1705,-4666,23,-43,-20,17
219,8650,-2,-1687,-4671,23,-44,-18,17
220,8648,3,-1686,-4676,23,-43,-19,17
221,8619,-2,-1688,-4677,23,-44,-19,17
222,8643,8,-1673,-4668,23,-44,-18,17
223,8626,12,-1752,-4663,23,-45,-19,17
224,8653,27,-1723,-4666,23,-44,-19,17
225,8645,-6,-1670,-4673,23,-44,-18,15
226,8607,-4,-1665,-4676,23,-45,-20,18
227,8633,-6,-1703,-4679,23,-43,-19,16
228,8647,-7,-1690,-4670,23,-45,-20,17
229,8603,16,-1733,-4671,23,-43,-17,17
230,8602,7,-1704,-4671,23,-43,-19,16
231,8648,-6,-1715,-4676,23,-43,-19,17
232,8633,23,-1694,-4681,23,-46,-18,17
233,8637,-14,-1722,-4667,23,-44,-20,16
234,8654,-6,-1691,-4676,23,-44,-20,18
235,8616,0,-1663,-4676,23,-44,-19,16
236,8621,1,-1736,-4664,23,-44,-20,17
237,8637,-2,-1702,-4677,23,-43,-19,17
238,8626,-7,-1666,-4674,23,-43,-18,16
239,8631,-1,-1719,-4673,23,-44,-18,17
240,8657,3,-1678,-4682,23,-43,-18,17
241,8646,-10,-1681,-4666,23,-43,-18,17
242,8622,5,-1705,-4674,23,-43,-19,18
243,8665,-25,-1670,-4674,23,-42,-19,18
244,8638,-9,-1719,-4681,23,-43,-21,16
245,8656,-1,-1738,-4666,23,-46,-17,16
246,8649,2,-1651,-4674,23,-45,-19,17
247,8622,-5,-1719,-4669,23,-43,-20,17
248,8622,-9,-1729,-4666,23,-44,-18,18
249,8636,-24,-1755,-4667,23,-44,-19,17
250,8637,24,-1676,-4669,23,-44,-20,18
251,8629,-5,-1687,-4669,23,-44,-18,17
252,8619,-7,-1652,-4665,23,-44,-18,17
253,8649,6,-1714,-4678,23,-42,-18,17
254,8656,12,-1728,-4680,23,-44,-17,16
255,8666,-8,-1740,-4666,23,-44,-19,17
256,8641,26,-1667,-4673,23,-44,-20,18
257,8623,-8,-1702,-4655,23,-44,-21,18
258,8614,1,-1719,-4661,23,-43,-19,17
259,8607,17,-1668,-4674,23,-44,-19,17
260,8632,-24,-1658,-4682,23,-44,-19,19
261,8661,41,-1669,-4672,23,-45,-21,17
262,8638,6,-1697,-4670,23,-43,-18,17
263,8634,6,-1661,-4674,23,-45,-20,17
264,8625,26,-1675,-4680,23,-44,-20,17
265,8648,19,-1686,-4671,23,-43,-18,16
266,8638,-25,-1668,-4673,23,-44,-19,16
267,8648,20,-1714,-4684,23,-44,-21,18
268,8632,13,-1722,-4670,23,-43,-17,17
269,8644,-5,-1685,-4668,23,-45,-18,17
270,8636,-22,-1709,-4671,23,-42,-20,18
271,8649,17,-1681,-4665,23,-44,-20,18
272,8633,11,-1703,-4678,23,-44,-20,17
273,8610,-10,-1694,-4668,23,-45,-19,17
274,8637,-8,-1735,-4682,23,-42,-20,16
275,8648,-17,-1675,-4670,23,-43,-18,17
276,8619,-27,-1690,-4676,23,-42,-19,17
277,8627,15,-1641,-4668,23,-42,-22,18
278,8628,23,-1657,-4670,23,-45,-19,16
279,8635,-9,-1666,-4678,23,-43,-20,15
280,8646,-5,-1671,-4678,23,-44,-20,16
281,8644,-16,-1718,-4669,23,-44,-18,17
282,8647,-21,-1727,-4675,23,-45,-18,19
283,8600,18,-1693,-4657,23,-45,-19,17
284,8669,-6,-1677,-4682,23,-43,-17,17
285,8630,12,-1717,-4674,23,-42,-19,19
286,8652,13,-1685,-4672,23,-44,-19,19
287,8657,-20,-1726,-4667,23,-44,-19,16
288,8639,1,-1731,-4680,23,-43,-19,16
289,8647,47,-1702,-4669,23,-45,-22,18
290,8623,0,-1706,-4677,23,-44,-20,17
291,8630,-25,-1649,-4659,23,-44,-20,18
292,8644,27,-1694,-4682,23,-43,-20,17
293,8653,16,-1730,-4661,23,-45,-20,18
294,8616,-13,-1712,-4673,23,-44,-21,15
295,8639,-2,-1682,-4673,23,-46,-20,19
296,8640,1,-1722,-4672,23,-44,-19,17
297,8633,-19,-1713,-4669,23,-44,-19,16
298,8629,17,-1694,-4666,23,-45,-20,16
299,8606,50,-1688,-4669,23,-45,-19,16
300,8651,23,-1700,-4664,23,-46,-18,17
301,8665,-10,-1676,-4667,23,-44,-19,18
302,8621,17,-1758,-4671,23,-43,-19,19
303,8624,33,-1707,-4676,23,-43,-21,16
304,8649,-8,-1696,-4668,23,-43,-21,17
305,8614,19,-1695,-4675,23,-43,-18,18
306,8606,29,-1735,-4665,23,-43,-19,17
307,8669,-8,-1685,-4670,23,-43,-21,18
308,8624,21,-1740,-4674,23,-44,-18,17
309,8610,12,-1680,-4678,23,-44,-18,17
310,8624,-20,-1733,-4668,23,-44,-19,18
311,8628,11,-1720,-4671,23,-45,-19,16
312,8630,-30,-1704,-4669,23,-44,-18,18
313,8640,-19,-1673,-4662,23,-43,-20,18
314,8603,10,-1725,-4677,23,-44,-19,16
315,8654,20,-1698,-4667,23,-44,-17,17
316,8619,10,-1651,-4668,23,-44,-19,17
317,8635,45,-1683,-4665,23,-44,-19,15
318,8631,20,-1692,-4666,23,-44,-19,16
319,8622,19,-1706,-4671,23,-44,-18,16
320,8646,35,-1708,-4665,23,-43,-19,16
321,8650,-14,-1662,-4673,23,-44,-19,16
322,8648,5,-1674,-4678,23,-44,-20,18
323,8619,-14,-1672,-4675,23,-45,-17,17
324,8640,14,-1705,-4665,23,-43,-20,16
325,8641,12,-1720,-4670,23,-45,-18,15
326,8641,33,-1708,-4671,23,-43,-21,17
327,8632,-4,-1676,-4665,23,-45,-20,17
328,8648,-9,-1693,-4679,23,-43,-21,18
329,8616,-6,-1718,-4674,23,-45,-20,17
330,8619,-18,-1694,-4669,23,-45,-19,18
331,8635,3,-1756,-4670,23,-43,-18,15
332,8629,11,-1705,-4671,23,-43,-19,16
333,8640,0,-1679,-4670,23,-44,-18,18
334,8632,8,-1689,-4667,23,-42,-19,18
335,8652,19,-1660,-4671,23,-44,-20,17
336,8655,36,-1726,-4674,23,-45,-20,18
337,8657,10,-1680,-4671,23,-43,-18,18
338,8634,-21,-1727,-4671,23,-43,-18,18
339,8642,-4,-1674,-4673,23,-45,-20,18
340,8633,-7,-1700,-4666,23,-44,-19,17
341,8644,-1,-1696,-4673,23,-44,-19,15
342,8642,15,-1681,-4670,23,-44,-20,18
343,8622,22,-1699,-4657,23,-44,-18,15
344,8620,-4,-1671,-4683,23,-42,-20,17
345,8632,45,-1736,-4674,23,-45,-19,17
346,8627,19,-1618,-4659,23,-42,-17,17
347,8666,12,-1683,-4668,23,-45,-19,18
348,8611,25,-1673,-4655,23,-43,-19,16
349,8641,15,-1727,-4673,23,-45,-19,17
350,8631,-3,-1693,-4659,23,-44,-19,19
351,8627,1,-1706,-4659,23,-44,-20,18
352,8647,12,-1652,-4668,23,-44,-21,16
353,8665,7,-1684,-4669,23,-44,-20,18
354,8645,9,-1698,-4669,23,-43,-19,18
355,8620,23,-1683,-4680,23,-43,-16,17
356,8654,11,-1685,-4664,23,-44,-19,19
357,8643,35,-1698,-4662,23,-44,-20,17
358,8634,-3,-1654,-4670,23,-44,-19,17
359,8654,24,-1695,-4662,23,-45,-18,18
360,8651,22,-1700,-4668,23,-44,-20,15
361,8627,14,-1697,-4668,23,-43,-21,17
362,8652,-6,-1740,-4661,23,-44,-19,18
363,8661,-15,-1674,-4665,23,-43,-19,16
364,8615,3,-1724,-4669,23,-45,-18,19
365,8630,-17,-1706,-4666,23,-42,-20,17
366,8651,20,-1700,-4660,23,-44,-18,18
367,8628,5,-1700,-4677,23,-42,-20,17
368,8648,0,-1656,-4663,23,-44,-19,18
369,8662,-5,-1706,-4668,23,-45,-19,17
370,8631,-17,-1682,-4668,23,-44,-20,16
371,8655,25,-1708,-4667,23,-44,-21,16
372,8666,8,-1707,-4670,23,-45,-19,17
373,8614,25,-1664,-4659,23,-43,-18,17
374,8619,-42,-1707,-4676,23,-45,-19,16
375,8632,12,-1728,-4665,23,-43,-20,18
376,8642,8,-1710,-4671,23,-44,-19,17
377,8649,1,-1678,-4666,23,-44,-19,17
378,8634,10,-1692,-4659,23,-44,-19,16
379,8613,-5,-1685,-4664,23,-44,-20,16
380,8662,37,-1698,-4667,23,-44,-18,18
381,8599,27,-1695,-4673,23,-44,-20,17
382,8637,13,-1647,-4673,23,-43,-20,18
383,8643,35,-1689,-4669,23,-44,-18,15
384,8647,-2,-1698,-4657,23,-43,-18,16
385,8637,-16,-1657,-4668,23,-43,-19,17
386,8644,8,-1706,-4669,23,-43,-19,16
387,8621,-14,-1724,-4669,23,-43,-19,17
388,8631,23,-1691,-4665,23,-44,-19,17
389,8629,18,-1666,-4668,23,-44,-21,17
390,8661,13,-1663,-4674,23,-45,-21,15
391,8656,12,-1695,-4674,23,-44,-19,15
392,8619,-15,-1667,-4681,23,-44,-19,16
393,8631,-4,-1641,-4668,23,-44,-19,18
394,8631,6,-1687,-4672,23,-43,-20,18
395,8610,13,-1717,-4670,23,-45,-20,18
396,8636,-16,-1692,-4678,23,-43,-20,19
397,8617,26,-1765,-4665,23,-45,-19,17
398,8653,-3,-1718,-4660,23,-44,-18,19
399,8643,-6,-1660,-4677,23,-43,-20,17
400,8632,-26,-1701,-4666,23,-44,-19,17
401,8605,6,-1692,-4674,23,-44,-20,18
402,8669,-16,-1700,-4672,23,-44,-19,17
403,8646,4,-1686,-4674,23,-43,-19,16
404,8642,-12,-1692,-4672,23,-44,-20,18
405,8667,13,-1725,-4667,23,-45,-17,17
406,8659,20,-1737,-4667,23,-43,-19,16
407,8616,-9,-1668,-4672,23,-42,-19,17
408,8630,29,-1662,-4665,23,-44,-19,18
409,8666,14,-1706,-4677,23,-45,-20,17
410,8633,-10,-1705,-4667,23,-44,-19,16
411,8663,5,-1671,-4676,23,-43,-20,17
412,8647,5,-1710,-4669,23,-43,-18,17
413,8634,9,-1728,-4669,23,-42,-18,17
414,8651,5,-1705,-4667,23,-43,-19,18
415,8630,12,-1700,-4666,23,-44,-19,17
416,8641,2,-1723,-4673,23,-44,-19,17
417,8625,0,-1668,-4665,23,-44,-18,16
418,8640,32,-1672,-4659,23,-43,-19,16
419,8621,-8,-1654,-4683,23,-42,-19,18
420,8635,-7,-1719,-4672,23,-43,-19,17
421,8631,-7,-1710,-4665,23,-43,-20,17
422,8650,37,-1721,-4664,23,-44,-18,18
423,8644,-20,-1701,-4673,23,-46,-19,16
424,8636,47,-1672,-4664,23,-44,-21,17
425,8598,-14,-1677,-4675,23,-43,-18,18
426,8652,-2,-1677,-4682,23,-45,-18,17
427,8649,12,-1691,-4670,23,-45,-18,17
428,8642,9,-1673,-4662,23,-44,-17,17
429,8633,17,-1695,-4666,23,-43,-20,18
430,8641,-2,-1680,-4681,23,-44,-19,17
431,8627,-7,-1689,-4651,23,-43,-20,17
432,8603,-3,-1675,-4667,23,-45,-21,18
433,8655,-3,-1661,-4672,23,-44,-20,17
434,8635,-4,-1664,-4669,23,-43,-18,16
435,8632,-6,-1664,-4670,23,-43,-21,17
436,8631,-8,-1691,-4674,23,-44,-21,19
437,8645,25,-1714,-4669,23,-44,-20,17
438,8632,-7,-1643,-4673,23,-45,-21,16
439,8641,2,-1693,-4672,23,-43,-18,17
440,8647,9,-1737,-4670,23,-43,-20,16
441,8626,6,-1686,-4669,23,-43,-19,17
442,8638,6,-1741,-4667,23,-43,-19,17
443,8663,-25,-1707,-4666,23,-43,-19,17
444,8623,15,-1727,-4676,23,-45,-20,19
445,8614,18,-1682,-4669,23,-44,-18,17
446,8649,-13,-1686,-4661,23,-43,-19,17
447,8644,-33,-1697,-4658,23,-44,-19,16
448,8634,-6,-1737,-4673,23,-46,-18,17
449,8668,-2,-1699,-4670,23,-45,-19,16
450,8624,-1,-1723,-4669,23,-42,-18,18
451,8651,34,-1723,-4672,23,-43,-19,18
452,8630,4,-1688,-4670,23,-44,-19,16
453,8656,12,-1719,-4675,23,-43,-19,18
454,8639,-25,-1748,-4671,23,-45,-20,17
455,8667,16,-1662,-4672,23,-44,-21,17
456,8627,6,-1694,-4665,23,-44,-17,17
457,8619,23,-1666,-4666,23,-42,-19,15
458,8658,-1,-1678,-4669,23,-44,-20,18
459,8623,7,-1699,-4671,23,-43,-18,18
460,8644,30,-1727,-4672,23,-43,-21,16
461,8611,31,-1705,-4675,23,-43,-20,17
462,8638,14,-1672,-4655,23,-44,-21,18
463,8657,-9,-1702,-4667,23,-43,-20,18
464,8621,9,-1681,-4654,23,-44,-20,17
465,8649,14,-1679,-4662,23,-44,-20,18
466,8637,-8,-1714,-4662,23,-44,-19,15
467,8642,9,-1701,-4666,23,-43,-18,17
468,8643,16,-1689,-4665,23,-46,-17,17
469,8641,17,-1683,-4671,23,-44,-19,18
470,8644,-8,-1690,-4662,23,-43,-20,17
471,8632,11,-1696,-4676,23,-44,-21,17
472,8654,25,-1689,-4683,23,-43,-18,16
473,8637,-15,-1701,-4669,23,-43,-19,16
474,8641,-7,-1704,-4662,23,-43,-18,16
475,8613,40,-1678,-4676,23,-43,-19,16
476,8621,32,-1705,-4671,23,-43,-19,16
477,8658,11,-1646,-4670,23,-43,-19,17
478,8643,1,-1704,-4669,23,-45,-18,15
479,8668,22,-1653,-4654,23,-43,-18,17
480,8636,7,-1713,-4667,23,-45,-19,17
481,8649,5,-1668,-4672,23,-44,-19,17
482,8638,-7,-1731,-4666,23,-45,-19,15
483,8628,-8,-1693,-4671,23,-43,-19,18
484,8618,-1,-1699,-4671,23,-43,-18,16
485,8647,21,-1691,-4671,23,-44,-19,17
486,8611,-10,-1697,-4680,23,-44,-17,16
487,8647,-23,-1705,-4675,23,-44,-21,19
488,8619,21,-1691,-4668,23,-44,-18,18
489,8639,-33,-1691,-4669,23,-43,-19,18
490,8670,5,-1704,-4670,23,-44,-18,16
491,8634,20,-1693,-4667,23,-42,-20,18
492,8651,-5,-1718,-4667,23,-44,-19,16
493,8631,21,-1707,-4661,23,-43,-18,18
494,8616,6,-1683,-4672,23,-44,-19,15
495,8614,9,-1682,-4669,23,-44,-19,16
496,8675,-20,-1687,-4675,23,-43,-19,18
497,8633,0,-1681,-4673,23,-44,-20,16
498,8647,-20,-1738,-4668,23,-43,-20,17
499,8620,20,-1692,-4669,23,-44,-19,15
500,8622,-2,-1688,-4685,23,-43,-19,17
501,8615,-7,-1711,-4672,23,-43,-18,17
502,8595,6,-1697,-4672,23,-43,-20,17
503,8636,-22,-1682,-4676,23,-43,-18,18
504,8633,28,-1674,-4670,23,-46,-18,16
505,8646,23,-1676,-4667,23,-44,-19,17
506,8624,15,-1737,-4666,23,-43,-20,17
507,8640,9,-1724,-4674,23,-46,-22,18
508,8625,-6,-1727,-4665,23,-44,-18,17
509,8647,-15,-1751,-4666,23,-44,-19,18
510,8652,10,-1715,-4669,23,-44,-19,18
511,8634,2,-1686,-4668,23,-44,-17,19
512,8630,51,-1683,-4658,23,-44,-20,17
513,8619,23,-1717,-4667,23,-44,-20,18
514,8639,15,-1701,-4670,23,-42,-20,17
515,8680,6,-1737,-4670,23,-43,-18,17
516,8619,21,-1724,-4674,23,-44,-19,17
517,8640,18,-1654,-4673,23,-45,-21,17
518,8644,4,-1694,-4675,23,-44,-19,17
519,8654,-2,-1755,-4658,23,-44,-19,17
520,8632,27,-1684,-4669,23,-43,-19,15
521,8608,-11,-1700,-4668,23,-44,-20,17
522,8622,18,-1702,-4671,23,-44,-19,17
523,8639,-4,-1716,-4671,23,-43,-17,17
524,8637,-3,-1656,-4673,23,-44,-19,17
525,8636,6,-1704,-4662,23,-44,-19,17
526,8615,-13,-1687,-4677,23,-45,-18,16
527,8664,14,-1747,-4665,23,-45,-18,16
528,8646,7,-1681,-4669,23,-44,-18,17
529,8636,2,-1718,-4665,23,-44,-18,17
530,8625,28,-1695,-4667,23,-42,-18,16
531,8656,20,-1672,-4667,23,-43,-18,16
532,8654,3,-1716,-4670,23,-44,-22,19
533,8628,-22,-1729,-4672,23,-43,-19,16
534,8642,13,-1688,-4661,23,-45,-19,17
535,8654,-3,-1714,-4669,23,-43,-20,18
536,8606,7,-1643,-4676,23,-44,-20,17
537,8652,8,-1704,-4676,23,-45,-21,17
538,8655,23,-1698,-4673,23,-44,-18,16
539,8634,4,-1746,-4666,23,-43,-19,18
540,8643,-6,-1684,-4669,23,-44,-19,16
541,8628,11,-1716,-4664,23,-44,-20,15
542,8633,-9,-1725,-4677,23,-44,-17,17
543,8600,4,-1685,-4663,23,-44,-20,17
544,8655,20,-1708,-4673,23,-44,-18,18
545,8657,20,-1685,-4671,23,-44,-17,17
546,8609,-19,-1723,-4666,23,-44,-20,18
547,8653,-22,-1695,-4671,23,-42,-19,19
548,8634,35,-1729,-4669,23,-42,-20,16
549,8645,1,-1740,-4694,23,-44,-19,17
550,8663,24,-1661,-4661,23,-45,-18,17
551,8598,-2,-1669,-4661,23,-44,-18,16
552,8650,13,-1680,-4668,23,-44,-19,18
553,8635,1,-1678,-4675,23,-44,-18,17
554,8642,25,-1747,-4658,23,-45,-20,18
555,8644,0,-1696,-4681,23,-44,-18,18
556,8668,-19,-1662,-4665,23,-45,-20,16
557,8630,4,-1730,-4668,23,-43,-19,16
558,8611,-12,-1688,-4655,23,-43,-19,18
559,8631,5,-1700,-4667,23,-43,-19,18
560,8644,-25,-1715,-4673,23,-44,-18,16
561,8618,12,-1755,-4663,23,-43,-20,18
562,8661,-10,-1659,-4656,23,-44,-19,18
563,8653,13,-1722,-4656,23,-42,-19,18
564,8634,-11,-1730,-4668,23,-44,-17,17
565,8643,-5,-1707,-4671,23,-43,-18,18
566,8625,13,-1665,-4672,23,-42,-19,15
567,8631,27,-1704,-4672,23,-44,-20,17
568,8613,10,-1687,-4671,23,-44,-20,16
569,8644,15,-1698,-4664,23,-42,-20,19
570,8633,19,-1605,-4664,23,-44,-18,18
571,8646,21,-1653,-4669,23,-46,-20,18
572,8643,22,-1714,-4670,23,-43,-20,16
573,8599,7,-1713,-4672,23,-43,-18,16
574,8653,17,-1693,-4661,23,-43,-19,16
575,8640,9,-1685,-4672,23,-44,-20,18
576,8635,-5,-1740,-4670,23,-44,-21,16
577,8630,23,-1721,-4667,23,-44,-19,18
578,8628,8,-1693,-4669,23,-43,-20,15
579,8633,19,-1731,-4660,23,-45,-18,17
580,8641,15,-1708,-4673,23,-43,-17,16
581,8634,18,-1672,-4659,23,-45,-20,18
582,8646,1,-1684,-4674,23,-44,-17,17
583,8639,4,-1698,-4671,23,-43,-20,17
584,8637,-17,-1663,-4678,23,-44,-20,16
585,8642,-9,-1717,-4670,23,-46,-21,18
586,8636,-20,-1666,-4673,23,-43,-18,17
587,8606,-12,-1695,-4666,23,-44,-19,16
588,8618,3,-1685,-4659,23,-44,-19,17
589,8630,-8,-1717,-4667,23,-43,-21,16
590,8631,13,-1673,-4669,23,-44,-20,18
591,8640,35,-1746,-4661,23,-43,-21,18
592,8635,16,-1703,-4651,23,-44,-20,17
593,8640,3,-1753,-4665,23,-42,-20,17
594,8651,-2,-1726,-4674,23,-43,-19,18
595,8666,-7,-1653,-4658,23,-45,-20,19
596,8648,8,-1670,-4666,23,-43,-21,19
597,8641,18,-1686,-4663,23,-44,-19,17
598,8617,5,-1675,-4667,23,-44,-19,18
599,8619,11,-1689,-4654,23,-44,-20,17
600,8645,8,-1686,-4661,23,-43,-18,15
601,8633,9,-1724,-4662,23,-45,-19,19
602,8648,27,-1712,-4658,23,-44,-20,16
603,8645,5,-1683,-4651,23,-44,-18,18
604,8638,8,-1756,-4667,23,-44,-20,16
605,8659,-12,-1696,-4659,23,-45,-18,17
606,8631,-15,-1689,-4662,23,-43,-19,16
607,8619,-26,-1725,-4667,23,-45,-20,17
608,8628,21,-1728,-4667,23,-43,-18,18
609,8606,11,-1689,-4668,23,-42,-21,17
610,8634,18,-1672,-4661,23,-43,-19,16
611,8641,-16,-1701,-4666,23,-45,-19,15
612,8635,14,-1683,-4666,23,-44,-19,17
613,8659,51,-1677,-4661,23,-45,-18,17
614,8642,0,-1708,-4668,23,-44,-19,18
615,8644,-6,-1684,-4670,23,-42,-20,17
616,8635,-10,-1670,-4670,23,-42,-18,16
617,8642,11,-1645,-4663,23,-42,-21,18
618,8651,-9,-1724,-4659,23,-44,-18,16
619,8663,-21,-1704,-4660,23,-43,-19,17
620,8635,26,-1684,-4658,23,-43,-20,16
621,8648,-13,-1731,-4665,23,-43,-20,16
622,8637,-10,-1756,-4662,23,-44,-19,17
623,8629,-7,-1754,-4655,23,-45,-19,17
624,8651,7,-1717,-4661,23,-45,-20,16
625,8632,-17,-1691,-4664,23,-42,-19,16
626,8672,-32,-1689,-4665,23,-44,-22,17
627,8679,-7,-1723,-4670,23,-43,-20,17
628,8660,-6,-1699,-4676,23,-43,-19,17
629,8621,-4,-1669,-4661,23,-43,-20,18
630,8673,-2,-1730,-4657,23,-44,-18,18
631,8616,16,-1701,-4656,23,-45,-18,16
632,8647,1,-1718,-4666,23,-43,-19,19
633,8639,33,-1638,-4669,23,-44,-18,17
634,8639,-5,-1678,-4666,23,-45,-21,16
635,8667,2,-1724,-4659,23,-44,-20,17
636,8638,-9,-1700,-4662,23,-42,-20,18
637,8640,23,-1677,-4656,23,-43,-19,16
638,8640,-6,-1665,-4660,23,-45,-20,17
639,8640,0,-1708,-4661,23,-44,-19,16
640,8656,6,-1694,-4658,23,-43,-19,19
641,8658,13,-1691,-4659,23,-43,-18,16
642,8634,31,-1698,-4663,23,-43,-19,17
643,8636,20,-1688,-4663,23,-43,-19,16
644,8670,-10,-1651,-4672,23,-44,-20,15
645,8653,-20,-1661,-4673,23,-44,-19,17
646,8638,10,-1655,-4668,23,-44,-22,17
647,8599,-5,-1623,-4674,23,-43,-20,17
648,8626,9,-1725,-4658,23,-46,-18,17
649,8629,-9,-1685,-4667,23,-44,-21,16
650,8651,11,-1702,-4673,23,-44,-19,15
651,8622,13,-1695,-4660,23,-41,-17,17
652,8626,8,-1717,-4668,23,-45,-21,16
653,8643,26,-1729,-4663,23,-44,-18,18
654,8656,-10,-1715,-4666,23,-42,-21,16
655,8634,-1,-1715,-4673,23,-44,-21,17
656,8628,-3,-1700,-4666,23,-44,-18,17
657,8634,7,-1682,-4659,23,-45,-20,17
658,8635,28,-1697,-4671,23,-43,-19,17
659,8621,16,-1699,-4654,23,-44,-17,18
660,8663,5,-1688,-4656,23,-43,-20,16
661,8693,21,-1717,-4668,23,-44,-21,16
662,8634,-11,-1726,-4664,23,-43,-19,16
663,8627,10,-1668,-4664,23,-44,-21,17
664,8657,9,-1680,-4670,23,-45,-18,16
665,8631,16,-1672,-4668,23,-44,-20,15
666,8639,17,-1676,-4666,23,-45,-19,18
667,8657,26,-1725,-4665,23,-45,-21,17
668,8622,9,-1711,-4666,23,-45,-20,17
669,8613,6,-1729,-4674,23,-44,-20,18
670,8648,13,-1699,-4663,23,-43,-20,17
671,8639,38,-1695,-4658,23,-43,-20,16
672,8604,17,-1744,-4668,23,-42,-21,16
673,8639,31,-1711,-4672,23,-46,-19,19
674,8641,17,-1723,-4664,23,-44,-19,17
675,8622,-21,-1707,-4669,23,-44,-20,18
676,8619,-2,-1694,-4659,23,-44,-19,19
677,8626,10,-1684,-4667,23,-45,-20,16
678,8642,33,-1714,-4663,23,-44,-20,17
679,8681,30,-1686,-4661,23,-45,-18,17
680,8641,-14,-1719,-4662,23,-45,-21,17
681,8633,9,-1728,-4663,23,-44,-19,17
682,8620,24,-1738,-4662,23,-43,-19,17
683,8634,15,-1717,-4663,23,-44,-20,18
684,8643,-7,-1660,-4658,23,-43,-18,17
685,8635,2,-1719,-4666,23,-45,-16,17
686,8646,-5,-1700,-4658,23,-44,-18,18
687,8640,-6,-1715,-4672,23,-44,-19,17
688,8652,2,-1732,-4667,23,-44,-19,15
689,8622,0,-1682,-4665,23,-43,-19,19
690,8626,0,-1702,-4661,23,-44,-20,16
691,8644,0,-1659,-4674,23,-44,-19,17
692,8645,-8,-1691,-4669,23,-44,-20,16
693,8629,13,-1705,-4665,23,-46,-19,17
694,8635,-7,-1669,-4679,23,-43,-19,17
695,8640,9,-1736,-4658,23,-43,-21,16
696,8626,11,-1712,-4664,23,-44,-21,17
697,8625,-4,-1659,-4665,23,-45,-20,15
698,8627,-1,-1671,-4669,23,-45,-19,16
699,8621,-22,-1683,-4658,23,-43,-18,18
700,8594,4,-1676,-4667,23,-44,-19,17
701,8624,-6,-1742,-4662,23,-44,-19,18
702,8624,-6,-1688,-4673,23,-44,-19,16
703,8648,1,-1733,-4659,23,-44,-17,17
704,8679,8,-1747,-4659,23,-43,-18,16
705,8649,-2,-1658,-4660,23,-43,-19,17
706,8606,22,-1748,-4663,23,-44,-18,17
707,8659,-6,-1728,-4671,23,-43,-18,17
708,8614,13,-1656,-4659,23,-46,-19,17
709,8608,19,-1669,-4666,23,-42,-19,18
710,8651,34,-1667,-4673,23,-45,-18,16
711,8641,-6,-1713,-4664,23,-45,-17,17
712,8632,-6,-1741,-4672,23,-43,-19,17
713,8641,23,-1685,-4662,23,-45,-19,17
714,8621,-2,-1753,-4666,23,-45,-18,17
715,8652,-10,-1698,-4664,23,-43,-19,17
716,8650,9,-1712,-4664,23,-43,-20,16
717,8632,-2,-1669,-4667,23,-45,-20,18
718,8638,13,-1732,-4661,23,-44,-20,16
719,8651,-26,-1719,-4657,23,-43,-20,15
720,8641,-11,-1666,-4660,23,-44,-18,18
721,8630,4,-1668,-4670,23,-43,-19,16
722,8639,-18,-1675,-4668,23,-44,-20,16
723,8640,-3,-1645,-4657,23,-44,-19,16
724,8641,19,-1716,-4667,23,-43,-22,17
725,8650,34,-1703,-4668,23,-45,-18,17
726,8643,23,-1680,-4657,23,-44,-21,16
727,8642,-3,-1680,-4663,23,-45,-20,17
728,8645,-10,-1677,-4673,23,-44,-21,16
729,8660,19,-1676,-4662,23,-44,-19,17
730,8636,-11,-1693,-4671,23,-44,-20,17
731,8640,12,-1709,-4666,23,-44,-19,17
732,8640,14,-1705,-4663,23,-44,-21,19
733,8633,24,-1740,-4667,23,-42,-20,17
734,8635,8,-1739,-4666,23,-45,-19,19
735,8649,-24,-1732,-4666,23,-45,-20,17
736,8633,5,-1715,-4670,23,-42,-19,18
737,8633,17,-1658,-4655,23,-44,-19,17
738,8644,-15,-1714,-4658,23,-45,-20,18
739,8641,10,-1694,-4653,23,-44,-20,17
740,8642,4,-1713,-4662,23,-43,-20,18
741,8651,19,-1714,-4663,23,-45,-20,16
742,8599,14,-1676,-4656,23,-42,-19,19
743,8632,0,-1686,-4650,23,-43,-20,16
744,8625,42,-1737,-4670,23,-43,-19,18
745,8635,-12,-1733,-4665,23,-44,-19,17
746,8629,20,-1716,-4669,23,-44,-18,16
747,8625,16,-1742,-4657,23,-45,-18,15
748,8622,-5,-1693,-4657,23,-44,-19,16
749,8640,-20,-1691,-4670,23,-44,-19,17
750,8641,9,-1660,-4660,23,-43,-19,18
751,8644,23,-1729,-4664,23,-43,-18,17
752,8636,14,-1744,-4671,23,-45,-18,18
753,8647,-21,-1722,-4666,23,-44,-20,18
754,8642,29,-1742,-4659,23,-44,-21,17
755,8649,2,-1689,-4666,23,-43,-17,17
756,8632,2,-1725,-4666,23,-44,-19,16
757,8631,26,-1719,-4656,23,-45,-20,17
758,8639,-12,-1673,-4664,23,-45,-21,18
759,8655,-14,-1713,-4657,23,-44,-19,18
760,8633,21,-1735,-4659,23,-46,-19,16
761,8627,12,-1708,-4663,23,-45,-19,18
762,8649,-11,-1703,-4664,23,-45,-21,16
763,8628,-3,-1705,-4657,23,-44,-17,18
764,8638,-2,-1682,-4667,23,-44,-19,15
765,8667,15,-1721,-4660,23,-43,-19,18
766,8642,3,-1689,-4661,23,-45,-19,18
767,8633,38,-1687,-4651,23,-44,-18,17
768,8663,11,-1707,-4661,23,-44,-20,16
769,8613,-5,-1759,-4661,23,-44,-19,18
770,8637,-11,-1657,-4652,23,-45,-21,18
771,8642,-4,-1703,-4667,23,-45,-19,17
772,8655,4,-1691,-4657,23,-44,-19,18
773,8662,18,-1687,-4657,23,-45,-19,18
774,8648,6,-1683,-4666,23,-45,-18,18
775,8642,21,-1703,-4654,23,-46,-18,18
776,8621,2,-1713,-4664,23,-44,-21,17
777,8646,15,-1682,-4663,23,-43,-20,18
778,8630,-14,-1706,-4649,23,-43,-20,17
779,8642,-2,-1661,-4662,23,-44,-19,18
780,8631,-11,-1727,-4656,23,-42,-21,18
781,8609,12,-1714,-4669,23,-43,-21,16
782,8672,8,-1718,-4652,23,-43,-20,17
783,8657,-11,-1714,-4664,23,-43,-21,17
784,8618,-8,-1733,-4647,23,-43,-18,18
785,8617,50,-1681,-4664,23,-44,-18,19
786,8655,-5,-1676,-4665,23,-44,-17,16
787,8652,16,-1721,-4671,23,-44,-18,17
788,8684,30,-1657,-4665,23,-45,-19,16
789,8652,-16,-1728,-4652,23,-46,-19,17
790,8622,-7,-1708,-4667,23,-45,-20,16
791,8652,15,-1728,-4664,23,-46,-21,17
792,8634,-6,-1700,-4669,23,-44,-21,16
793,8645,2,-1682,-4654,23,-44,-19,18
794,8607,18,-1713,-4662,23,-44,-20,17
795,8671,-11,-1703,-4651,23,-45,-19,17
796,8632,0,-1696,-4661,23,-42,-18,17
797,8645,-4,-1704,-4661,23,-44,-18,17
798,8618,-16,-1685,-4661,23,-42,-20,17
799,8653,19,-1695,-4664,23,-43,-19,16
800,8658,11,-1715,-4655,23,-43,-17,17
801,8618,2,-1664,-4662,23,-43,-19,17
802,8669,2,-1719,-4654,23,-44,-20,16
803,8612,-16,-1678,-4654,23,-43,-20,16
804,8643,-7,-1715,-4663,23,-44,-19,16
805,8637,-1,-1683,-4659,23,-44,-20,17
806,8649,-14,-1721,-4658,23,-45,-20,17
807,8640,13,-1718,-4647,23,-43,-19,16
808,8623,9,-1686,-4659,23,-45,-20,17
809,8619,9,-1682,-4660,23,-43,-21,18
810,8652,-17,-1683,-4666,23,-42,-19,17
811,8634,-11,-1761,-4658,23,-45,-19,16
812,8640,-2,-1723,-4655,23,-43,-20,18
813,8633,14,-1721,-4660,23,-45,-18,17
814,8656,-4,-1640,-4657,23,-43,-20,16
815,8657,29,-1659,-4667,23,-45,-20,17
816,8650,15,-1676,-4654,23,-45,-19,18
817,8644,6,-1742,-4651,23,-44,-19,18
818,8639,2,-1728,-4657,23,-44,-18,16
819,8624,0,-1670,-4661,23,-43,-19,16
820,8626,-37,-1684,-4663,23,-43,-19,17
821,8655,-14,-1734,-4657,23,-43,-19,17
822,8638,-1,-1687,-4650,23,-43,-19,17
823,8615,-17,-1660,-4666,23,-44,-19,17
824,8605,19,-1682,-4662,23,-44,-19,17
825,8640,9,-1719,-4662,23,-44,-20,18
826,8639,3,-1690,-4662,23,-44,-20,18
827,8644,61,-1710,-4650,23,-43,-19,19
828,8668,-13,-1731,-4661,23,-44,-20,16
829,8651,-6,-1730,-4657,23,-45,-20,17
830,8655,3,-1641,-4652,23,-43,-19,18
831,8622,-20,-1694,-4658,23,-43,-19,17
832,8632,7,-1730,-4648,23,-44,-20,16
833,8625,16,-1716,-4657,23,-45,-18,18
834,8635,32,-1712,-4660,23,-45,-20,16
835,8642,26,-1688,-4653,23,-43,-19,17
836,8615,7,-1698,-4665,23,-44,-18,17
837,8619,13,-1682,-4662,23,-43,-21,16
838,8616,-8,-1721,-4659,23,-44,-20,17
839,8626,-12,-1720,-4650,23,-43,-18,16
840,8639,20,-1700,-4661,23,-44,-20,18
841,8666,2,-1749,-4662,23,-44,-18,17
842,8636,16,-1671,-4655,23,-45,-20,16
843,8667,26,-1725,-4652,23,-44,-17,17
844,8630,-2,-1666,-4669,23,-42,-18,17
845,8663,-18,-1719,-4663,23,-44,-19,18
846,8648,37,-1724,-4661,23,-44,-19,18
847,8639,10,-1704,-4662,23,-43,-21,18
848,8628,8,-1719,-4660,23,-44,-20,16
849,8632,-2,-1706,-4668,23,-44,-18,17
850,8651,14,-1710,-4664,23,-45,-18,18
851,8638,-5,-1713,-4656,23,-45,-19,17
852,8643,41,-1708,-4660,23,-44,-19,16
853,8629,8,-1720,-4663,23,-44,-19,18
854,8640,-15,-1699,-4660,23,-43,-20,19
855,8632,8,-1705,-4663,23,-43,-20,18
856,8645,1,-1710,-4663,23,-43,-19,18
857,8627,16,-1666,-4655,23,-45,-18,16
858,8617,33,-1734,-4655,23,-42,-19,16
859,8648,-19,-1709,-4660,23,-42,-18,17
860,8640,-18,-1728,-4654,23,-44,-20,18
861,8637,12,-1725,-4660,23,-43,-19,19
862,8657,-2,-1713,-4653,23,-46,-19,18
863,8627,-8,-1753,-4657,23,-43,-18,19
864,8638,28,-1716,-4654,23,-44,-18,17
865,8649,14,-1673,-4659,23,-42,-20,19
866,8640,5,-1711,-4659,23,-44,-19,17
867,8609,-22,-1675,-4660,23,-43,-17,17
868,8628,7,-1639,-4659,23,-46,-19,16
869,8658,-24,-1684,-4655,23,-46,-20,17
870,8636,18,-1631,-4656,23,-44,-20,18
871,8644,-27,-1703,-4647,23,-43,-19,16
872,8636,7,-1700,-4649,23,-44,-19,17
873,8640,21,-1687,-4665,23,-44,-20,16
874,8631,6,-1700,-4654,23,-43,-20,17
875,8629,5,-1675,-4659,23,-43,-21,17
876,8625,30,-1721,-4655,23,-43,-18,16
877,8662,15,-1666,-4657,23,-44,-21,18
878,8640,-22,-1711,-4661,23,-44,-20,18
879,8621,0,-1721,-4663,23,-45,-18,19
880,8646,-5,-1724,-4651,23,-43,-19,17
881,8659,21,-1687,-4658,23,-44,-18,17
882,8625,-6,-1728,-4656,23,-45,-18,15
883,8613,-33,-1724,-4652,23,-44,-20,17
884,8655,53,-1715,-4656,23,-44,-19,17
885,8641,-17,-1690,-4655,23,-41,-21,16
886,8635,3,-1682,-4659,23,-44,-19,17
887,8661,18,-1711,-4651,23,-43,-18,17
888,8621,11,-1706,-4666,23,-43,-20,17
889,8620,27,-1675,-4655,23,-43,-20,17
890,8645,9,-1687,-4656,23,-44,-19,17
891,8639,-29,-1674,-4660,23,-44,-20,16
892,8655,21,-1684,-4654,23,-44,-18,16
893,8647,-22,-1683,-4665,23,-44,-18,16
894,8625,10,-1671,-4660,23,-42,-18,17
895,8646,-3,-1680,-4662,23,-44,-18,16
896,8639,-23,-1665,-4654,23,-44,-20,17
897,8626,-22,-1690,-4661,23,-44,-18,17
898,8666,9,-1744,-4665,23,-44,-20,17
899,8678,-19,-1712,-4650,23,-42,-20,17
900,8648,-5,-1685,-4647,23,-44,-18,16
901,8653,1,-1664,-4662,23,-44,-19,17
902,8629,-8,-1701,-4661,23,-45,-20,16
903,8662,-12,-1694,-4661,23,-44,-19,17
904,8625,10,-1737,-4659,23,-44,-19,16
905,8641,-3,-1699,-4658,23,-44,-21,17
906,8639,2,-1700,-4655,23,-43,-19,16
907,8643,51,-1674,-4657,23,-43,-19,17
908,8654,15,-1659,-4655,23,-44,-19,17
909,8645,-12,-1697,-4654,23,-45,-19,17
910,8647,10,-1740,-4657,23,-43,-20,18
911,8622,35,-1730,-4653,23,-45,-19,17
912,8638,22,-1720,-4660,23,-43,-19,16
913,8636,34,-1715,-4660,23,-44,-19,16
914,8639,-8,-1704,-4648,23,-44,-18,18
915,8624,-2,-1754,-4651,23,-43,-20,17
916,8656,-12,-1706,-4660,23,-45,-21,16
917,8657,9,-1701,-4663,23,-43,-19,16
918,8646,-1,-1714,-4668,23,-44,-20,17
919,8638,22,-1713,-4661,23,-46,-19,17
920,8624,-22,-1701,-4655,23,-43,-19,18
921,8639,15,-1691,-4657,23,-44,-18,17
922,8648,-8,-1683,-4655,23,-43,-18,17
923,8658,2,-1708,-4664,23,-45,-18,19
924,8637,15,-1744,-4656,23,-44,-20,17
925,8624,12,-1714,-4653,23,-44,-18,17
926,8657,-12,-1737,-4658,23,-42,-19,17
927,8627,-4,-1663,-4658,23,-44,-18,18
928,8648,-12,-1701,-4661,23,-45,-20,16
929,8643,-9,-1703,-4656,23,-45,-20,17
930,8658,3,-1714,-4663,23,-43,-20,18
931,8627,1,-1713,-4655,23,-44,-21,16
932,8610,-12,-1715,-4655,23,-43,-22,16
933,8651,-2,-1690,-4652,23,-43,-21,17
934,8645,0,-1670,-4666,23,-44,-20,17
935,8632,12,-1729,-4657,23,-45,-18,16
936,8634,-10,-1702,-4658,23,-45,-19,16
937,8624,-10,-1739,-4657,23,-43,-18,16
938,8621,-16,-1720,-4665,23,-44,-20,18
939,8673,7,-1697,-4662,23,-44,-19,17
940,8655,-16,-1705,-4649,23,-44,-20,18
941,8646,-8,-1687,-4658,23,-44,-19,17
942,8650,-5,-1671,-4663,23,-45,-19,17
943,8652,-20,-1693,-4653,23,-43,-20,16
944,8636,14,-1717,-4649,23,-44,-20,16
945,8608,-1,-1710,-4663,23,-43,-20,18
946,8649,15,-1720,-4657,23,-45,-19,16
947,8633,-21,-1681,-4654,23,-44,-19,18
948,8636,41,-1696,-4659,23,-43,-19,18
949,8626,8,-1691,-4651,23,-44,-22,17
950,8625,-3,-1697,-4654,23,-44,-18,16
951,8616,15,-1723,-4646,23,-43,-18,17
952,8623,31,-1710,-4651,23,-43,-19,17
953,8599,11,-1734,-4656,23,-45,-18,17
954,8646,-14,-1724,-4655,23,-44,-18,17
955,8608,-20,-1688,-4669,23,-42,-18,18
956,8667,7,-1674,-4654,23,-45,-18,16
957,8639,14,-1687,-4658,23,-45,-20,15
958,8619,-29,-1713,-4662,23,-42,-18,18
959,8632,10,-1710,-4663,23,-43,-19,16
960,8639,17,-1672,-4657,23,-44,-18,16
961,8641,-9,-1710,-4659,23,-43,-20,16
962,8619,1,-1675,-4661,23,-43,-19,16
963,8646,-2,-1717,-4664,23,-43,-18,17
964,8655,16,-1689,-4660,23,-43,-20,17
965,8630,1,-1675,-4654,23,-44,-19,17
966,8625,-18,-1756,-4658,23,-44,-20,16
967,8663,27,-1723,-4649,23,-44,-19,17
968,8632,-33,-1706,-4649,23,-44,-18,17
969,8622,12,-1697,-4662,23,-45,-20,17
970,8637,26,-1697,-4658,23,-43,-20,17
971,8670,13,-1695,-4651,23,-44,-19,18
972,8655,10,-1679,-4653,23,-45,-18,18
973,8636,0,-1713,-4652,23,-45,-20,17
974,8607,10,-1673,-4650,23,-46,-19,17
975,8627,-7,-1667,-4659,23,-43,-19,17
976,8652,4,-1705,-4652,23,-44,-19,16
977,8635,11,-1691,-4648,23,-44,-21,17
978,8651,2,-1740,-4666,23,-44,-19,18
979,8629,23,-1708,-4659,23,-44,-17,16
980,8651,18,-1703,-4654,23,-41,-21,18
981,8662,-6,-1692,-4664,23,-44,-21,15
982,8643,-1,-1661,-4647,23,-44,-20,17
983,8639,-18,-1688,-4667,23,-45,-18,18
984,8657,36,-1705,-4663,23,-43,-20,15
985,8625,42,-1716,-4657,23,-43,-20,17
986,8657,7,-1686,-4663,23,-42,-18,17
987,8646,-15,-1664,-4656,23,-44,-18,15
988,8650,44,-1723,-4658,23,-43,-22,19
989,8648,-23,-1689,-4655,23,-45,-18,16
990,8631,3,-1695,-4662,23,-44,-19,17
991,8626,6,-1678,-4666,23,-43,-18,16
992,8639,-8,-1698,-4660,23,-45,-19,16
993,8618,-21,-1700,-4660,23,-46,-18,17
994,8646,15,-1679,-4669,23,-44,-19,17
995,8612,31,-1672,-4650,23,-45,-19,17
996,8664,10,-1737,-4657,23,-44,-20,16
997,8617,-5,-1690,-4651,23,-43,-18,18
998,8607,-11,-1717,-4648,23,-43,-19,17
