,acc_X,acc_Y,acc_Z,temp,tempC,gyr_X,gyr_Y,gyr_Z
0,8622,7,-1724,-4811,22,-43,-18,15
1,8627,8,-1699,-4812,22,-43,-18,16
2,8636,-1,-1663,-4808,22,-44,-19,16
3,8613,0,-1689,-4813,22,-43,-19,16
4,8645,-4,-1697,-4810,22,-43,-19,16
5,8625,-5,-1742,-4806,22,-42,-19,17
6,8644,5,-1704,-4810,22,-43,-20,18
7,8638,19,-1682,-4798,22,-45,-20,18
8,8638,-2,-1743,-4811,22,-45,-20,17
9,8631,16,-1720,-4807,22,-44,-19,16
10,8649,5,-1713,-4806,22,-43,-19,16
11,8635,11,-1701,-4804,22,-44,-18,17
12,8643,3,-1710,-4813,22,-42,-19,17
13,8651,-30,-1712,-4810,22,-43,-19,17
14,8634,8,-1737,-4804,22,-43,-19,16
15,8619,12,-1728,-4805,22,-43,-19,16
16,8648,25,-1712,-4805,22,-45,-18,18
17,8625,-6,-1661,-4813,22,-44,-18,16
18,8625,-5,-1687,-4809,22,-44,-21,17
19,8630,8,-1713,-4804,22,-43,-20,17
20,8647,6,-1678,-4809,22,-43,-19,18
21,8645,5,-1690,-4810,22,-44,-18,16
22,8634,1,-1685,-4804,22,-43,-20,16
23,8660,7,-1681,-4813,22,-44,-19,16
24,8638,-4,-1680,-4801,22,-44,-20,16
25,8641,-5,-1685,-4801,22,-44,-19,16
26,8636,4,-1725,-4801,22,-43,-19,16
27,8639,6,-1714,-4809,22,-44,-20,17
28,8637,-9,-1690,-4807,22,-42,-19,17
29,8625,-2,-1723,-4800,22,-43,-19,16
30,8629,12,-1700,-4805,22,-45,-19,17
31,8632,5,-1725,-4799,22,-43,-18,17
32,8621,-5,-1697,-4799,22,-44,-18,16
33,8629,1,-1717,-4807,22,-44,-19,17
34,8620,22,-1706,-4796,22,-43,-19,17
35,8632,-4,-1708,-4802,22,-42,-20,18
36,8627,0,-1724,-4803,22,-44,-20,17
37,8632,16,-1670,-4802,22,-44,-21,16
38,8640,-6,-1721,-4797,22,-44,-20,18
39,8647,-12,-1665,-4797,22,-43,-20,17
40,8623,-2,-1686,-4793,22,-43,-19,15
41,8639,6,-1675,-4796,22,-44,-18,17
42,8629,-8,-1690,-4804,22,-45,-19,16
43,8627,8,-1688,-4793,22,-44,-19,18
44,8639,8,-1705,-4795,22,-43,-20,17
45,8633,3,-1678,-4798,22,-43,-18,17
46,8646,-20,-1697,-4796,22,-43,-19,17
47,8632,7,-1683,-4794,22,-44,-18,17
48,8632,-5,-1714,-4785,22,-43,-19,17
49,8643,20,-1734,-4793,22,-43,-17,16
50,8627,13,-1691,-4802,22,-44,-19,19
51,8653,10,-1706,-4800,22,-43,-19,17
52,8630,16,-1670,-4798,22,-42,-18,16
53,8634,-1,-1708,-4796,22,-44,-19,17
54,8658,11,-1699,-4803,22,-43,-18,17
55,8635,9,-1700,-4800,22,-44,-19,17
56,8640,-15,-1708,-4791,22,-44,-20,16
57,8647,-19,-1690,-4799,22,-43,-20,17
58,8636,12,-1700,-4790,22,-44,-20,15
59,8633,22,-1693,-4794,22,-44,-20,17
60,8633,12,-1698,-4798,22,-43,-18,18
61,8640,-4,-1702,-4793,22,-43,-20,17
62,8632,-26,-1718,-4798,22,-42,-19,17
63,8640,-14,-1700,-4796,22,-44,-19,16
64,8643,-26,-1726,-4791,22,-43,-18,17
65,8625,6,-1727,-4789,22,-44,-19,16
66,8626,-45,-1710,-4791,22,-43,-20,17
67,8638,4,-1696,-4793,22,-44,-18,17
68,8639,4,-1714,-4787,22,-43,-18,16
69,8637,8,-1707,-4788,22,-45,-19,16
70,8625,-2,-1738,-4791,22,-43,-20,17
71,8627,7,-1689,-4785,22,-43,-19,17
72,8642,-10,-1714,-4783,22,-44,-19,16
73,8624,-16,-1713,-4794,22,-43,-18,17
74,8613,9,-1706,-4789,22,-44,-19,18
75,8637,6,-1718,-4793,22,-45,-20,18
76,8634,1,-1707,-4788,22,-43,-19,17
77,8635,8,-1726,-4788,22,-44,-19,17
78,8629,13,-1733,-4787,22,-43,-19,16
79,8627,27,-1706,-4778,22,-44,-19,16
80,8626,-11,-1702,-4791,22,-43,-19,17
81,8615,-20,-1711,-4789,22,-45,-19,17
82,8637,7,-1700,-4787,22,-44,-19,17
83,8657,16,-1694,-4790,22,-44,-18,16
84,8615,23,-1729,-4793,22,-44,-19,16
85,8632,0,-1682,-4784,22,-44,-18,17
86,8654,20,-1696,-4795,22,-43,-19,18
87,8637,-17,-1736,-4783,22,-45,-20,17
88,8655,-4,-1730,-4788,22,-44,-19,16
89,8656,-9,-1742,-4788,22,-43,-18,17
90,8645,-11,-1703,-4775,22,-44,-20,18
91,8631,-3,-1704,-4780,22,-43,-19,17
92,8639,-4,-1717,-4778,22,-44,-18,17
93,8646,4,-1714,-4775,22,-43,-19,18
94,8625,3,-1705,-4782,22,-43,-19,17
95,8627,-11,-1722,-4783,22,-44,-21,17
96,8647,-21,-1719,-4786,22,-43,-19,18
97,8638,13,-1729,-4786,22,-43,-21,17
98,8629,4,-1712,-4787,22,-43,-18,16
99,8636,-11,-1703,-4782,22,-43,-20,17
100,8651,22,-1722,-4784,22,-43,-20,16
101,8646,-11,-1726,-4792,22,-44,-19,17
102,8663,-4,-1735,-4784,22,-43,-20,18
103,8646,5,-1723,-4782,22,-43,-19,17
104,8622,27,-1729,-4781,22,-44,-20,16
105,8651,-1,-1713,-4777,22,-43,-19,17
106,8634,18,-1699,-4780,22,-44,-19,17
107,8628,11,-1693,-4787,22,-44,-19,17
108,8641,1,-1713,-4788,22,-43,-19,16
109,8657,-16,-1718,-4786,22,-43,-19,17
110,8644,18,-1695,-4786,22,-43,-19,16
111,8639,14,-1720,-4785,22,-44,-21,17
112,8639,-3,-1697,-4788,22,-44,-20,17
113,8642,7,-1701,-4783,22,-42,-19,18
114,8656,16,-1719,-4778,22,-42,-20,18
115,8630,-11,-1723,-4780,22,-43,-19,17
116,8640,-17,-1718,-4789,22,-43,-18,17
117,8640,-5,-1732,-4783,22,-44,-21,17
118,8656,-3,-1720,-4781,22,-43,-19,17
119,8638,13,-1696,-4777,22,-43,-19,16
120,8631,4,-1725,-4785,22,-44,-19,18
121,8634,18,-1721,-4785,22,-44,-18,16
122,8640,13,-1714,-4779,22,-44,-18,17
123,8626,-1,-1673,-4783,22,-43,-18,17
124,8612,-8,-1706,-4778,22,-44,-19,17
125,8659,-3,-1737,-4789,22,-44,-19,17
126,8628,19,-1704,-4784,22,-44,-20,17
127,8644,5,-1705,-4785,22,-42,-19,16
128,8650,11,-1683,-4782,22,-43,-20,17
129,8640,-6,-1709,-4786,22,-43,-20,17
130,8622,-25,-1681,-4779,22,-43,-19,17
131,8623,13,-1687,-4776,22,-44,-19,17
132,8620,-16,-1698,-4787,22,-44,-17,18
133,8632,-7,-1725,-4774,22,-43,-20,17
134,8628,2,-1709,-4781,22,-44,-20,17
135,8654,9,-1739,-4771,22,-43,-19,18
136,8628,11,-1680,-4772,22,-43,-19,17
137,8635,-3,-1682,-4776,22,-44,-19,17
138,8638,-8,-1714,-4781,22,-42,-20,17
139,8637,-3,-1709,-4768,22,-42,-20,18
140,8639,11,-1756,-4779,22,-43,-18,18
141,8642,-7,-1760,-4774,22,-45,-20,17
142,8631,-7,-1689,-4771,22,-44,-19,16
143,8612,-2,-1712,-4776,22,-44,-19,17
144,8650,-21,-1699,-4778,22,-44,-18,16
145,8627,21,-1709,-4781,22,-44,-20,18
146,8638,25,-1692,-4779,22,-44,-19,17
147,8642,1,-1700,-4780,22,-42,-19,17
148,8647,6,-1687,-4783,22,-43,-20,17
149,8645,-8,-1688,-4785,22,-44,-19,18
150,8633,20,-1732,-4774,22,-44,-21,17
151,8638,11,-1732,-4777,22,-44,-19,17
152,8642,-1,-1702,-4778,22,-44,-18,17
153,8617,5,-1717,-4781,22,-43,-19,17
154,8639,-15,-1680,-4775,22,-43,-19,15
155,8633,31,-1703,-4780,22,-45,-18,17
156,8634,-8,-1690,-4775,22,-43,-19,16
157,8653,14,-1730,-4771,22,-43,-20,16
158,8621,-7,-1708,-4777,22,-43,-19,17
159,8627,-23,-1715,-4775,22,-43,-19,16
160,8652,2,-1701,-4778,22,-43,-20,17
161,8648,26,-1725,-4777,22,-44,-19,17
162,8630,1,-1685,-4770,22,-44,-20,17
163,8633,-4,-1678,-4767,22,-44,-19,17
164,8625,14,-1691,-4776,22,-45,-19,18
165,8633,1,-1691,-4771,22,-44,-20,17
166,8643,4,-1695,-4779,22,-45,-21,17
167,8638,10,-1703,-4771,22,-44,-20,16
168,8648,2,-1704,-4773,22,-43,-19,15
169,8636,-5,-1725,-4766,22,-43,-19,17
170,8666,11,-1747,-4773,22,-43,-19,16
171,8639,3,-1717,-4773,22,-43,-18,16
172,8635,-17,-1715,-4767,22,-43,-18,17
173,8650,-3,-1706,-4773,22,-43,-20,16
174,8620,4,-1716,-4770,22,-44,-20,17
175,8642,-3,-1685,-4782,22,-44,-20,17
176,8629,-5,-1720,-4777,22,-43,-19,17
177,8629,-10,-1704,-4772,22,-44,-19,18
178,8618,0,-1731,-4773,22,-44,-19,17
179,8636,-6,-1725,-4768,22,-43,-19,17
180,8635,-14,-1719,-4768,22,-43,-19,18
181,8628,0,-1742,-4776,22,-42,-19,17
182,8647,-20,-1723,-4777,22,-44,-19,16
183,8620,5,-1698,-4774,22,-43,-19,17
184,8615,0,-1721,-4774,22,-43,-18,17
185,8626,4,-1726,-4771,22,-44,-21,18
186,8654,7,-1678,-4770,22,-42,-20,18
187,8687,-14,-1690,-4761,22,-44,-19,17
188,8652,0,-1723,-4772,22,-43,-20,16
189,8686,-11,-1710,-4766,22,-44,-20,17
190,8634,25,-1707,-4773,22,-44,-20,18
191,8621,6,-1701,-4773,22,-43,-19,17
192,8623,-11,-1699,-4768,22,-44,-19,18
193,8639,-12,-1683,-4770,22,-43,-18,17
194,8631,6,-1698,-4772,22,-43,-18,15
195,8653,11,-1702,-4764,22,-44,-18,16
196,8649,-9,-1705,-4774,22,-43,-19,18
197,8642,-6,-1682,-4769,22,-43,-19,18
198,8601,6,-1721,-4778,22,-43,-18,17
199,8657,-4,-1732,-4767,22,-43,-20,17
200,8631,-3,-1701,-4770,22,-44,-19,18
201,8617,18,-1720,-4777,22,-43,-20,18
202,8630,0,-1732,-4777,22,-43,-20,17
203,8611,-15,-1721,-4767,22,-44,-20,17
204,8632,-11,-1717,-4770,22,-44,-19,17
205,8628,5,-1714,-4775,22,-43,-19,17
206,8632,-10,-1721,-4768,22,-43,-19,17
207,8627,-1,-1724,-4765,22,-43,-18,17
208,8629,-5,-1682,-4769,22,-44,-20,17
209,8646,11,-1722,-4771,22,-44,-20,16
210,8624,21,-1721,-4777,22,-43,-20,16
211,8639,17,-1721,-4767,22,-44,-19,16
212,8624,5,-1715,-4774,22,-42,-20,17
213,8613,7,-1748,-4774,22,-44,-20,17
214,8651,-6,-1728,-4769,22,-43,-19,17
215,8652,25,-1718,-4762,22,-43,-18,17
216,8640,17,-1721,-4766,22,-43,-18,17
217,8633,-18,-1708,-4765,22,-43,-18,17
218,8642,10,-1712,-4763,22,-45,-20,16
219,8625,5,-1720,-4767,22,-42,-19,17
220,8650,7,-1713,-4762,22,-43,-18,17
221,8646,-15,-1714,-4759,23,-42,-18,17
222,8630,-11,-1740,-4756,23,-43,-20,17
223,8641,-10,-1693,-4764,22,-43,-19,17
224,8644,-18,-1664,-4764,22,-42,-19,17
225,8647,-7,-1710,-4763,22,-42,-19,17
226,8637,-3,-1693,-4768,22,-43,-19,18
227,8609,-7,-1721,-4772,22,-43,-19,16
228,8639,15,-1680,-4766,22,-45,-20,18
229,8653,6,-1695,-4761,22,-43,-21,16
230,8638,-13,-1673,-4765,22,-46,-19,17
231,8649,11,-1731,-4765,22,-46,-19,16
232,8633,-4,-1719,-4768,22,-43,-19,17
233,8638,8,-1692,-4764,22,-44,-20,18
234,8648,13,-1726,-4769,22,-44,-21,18
235,8650,-3,-1691,-4770,22,-43,-20,17
236,8631,4,-1672,-4770,22,-43,-21,17
237,8643,5,-1721,-4766,22,-44,-20,17
238,8637,0,-1692,-4762,22,-44,-19,17
239,8640,6,-1698,-4763,22,-43,-19,17
240,8632,-2,-1736,-4764,22,-43,-20,15
241,8644,7,-1716,-4753,23,-44,-18,17
242,8628,-3,-1697,-4762,22,-45,-19,17
243,8629,12,-1691,-4768,22,-43,-18,16
244,8622,-4,-1705,-4770,22,-42,-20,18
245,8640,5,-1720,-4761,22,-42,-19,17
246,8639,-15,-1719,-4761,22,-44,-19,16
247,8637,-8,-1695,-4761,22,-44,-20,16
248,8650,-13,-1692,-4763,22,-43,-19,17
249,8627,7,-1734,-4760,22,-44,-18,18
250,8631,-15,-1702,-4753,23,-43,-19,18
251,8655,7,-1719,-4760,22,-45,-19,18
252,8612,4,-1724,-4763,22,-44,-20,16
253,8641,-15,-1736,-4770,22,-45,-19,17
254,8653,4,-1728,-4767,22,-43,-19,17
255,8639,12,-1700,-4767,22,-44,-21,18
256,8639,-4,-1695,-4766,22,-43,-19,17
257,8630,9,-1735,-4766,22,-43,-19,17
258,8637,9,-1727,-4760,22,-44,-19,17
259,8657,11,-1697,-4761,22,-43,-19,17
260,8636,10,-1707,-4763,22,-43,-19,17
261,8640,0,-1719,-4769,22,-43,-20,16
262,8615,27,-1705,-4770,22,-45,-20,17
263,8641,-1,-1698,-4765,22,-44,-20,16
264,8640,11,-1673,-4764,22,-44,-19,17
265,8623,17,-1678,-4761,22,-43,-20,18
266,8644,28,-1713,-4761,22,-44,-19,18
267,8650,15,-1721,-4765,22,-44,-19,19
268,8621,11,-1688,-4762,22,-44,-19,17
269,8615,28,-1685,-4753,23,-44,-19,17
270,8654,10,-1691,-4760,22,-44,-19,16
271,8622,-2,-1734,-4758,23,-42,-19,16
272,8630,10,-1719,-4757,23,-42,-19,16
273,8638,-7,-1710,-4759,23,-43,-18,16
274,8649,17,-1709,-4754,23,-42,-20,17
275,8641,-19,-1710,-4763,22,-43,-18,17
276,8634,-7,-1689,-4766,22,-44,-18,15
277,8639,-14,-1697,-4759,23,-44,-19,17
278,8623,5,-1735,-4758,23,-44,-19,18
279,8627,-3,-1723,-4757,23,-45,-19,18
280,8651,-6,-1692,-4758,23,-45,-19,18
281,8654,-8,-1694,-4765,22,-44,-19,17
282,8667,-19,-1649,-4760,22,-45,-20,17
283,8627,-1,-1700,-4762,22,-43,-20,18
284,8632,-5,-1700,-4760,22,-42,-20,16
285,8629,13,-1700,-4761,22,-44,-20,16
286,8624,6,-1693,-4756,23,-43,-20,18
287,8619,9,-1686,-4758,23,-44,-20,16
288,8637,-18,-1687,-4753,23,-44,-18,16
289,8643,-9,-1720,-4759,23,-44,-19,16
290,8636,13,-1722,-4758,23,-43,-19,17
291,8621,26,-1740,-4751,23,-43,-19,17
292,8639,-3,-1712,-4751,23,-42,-19,17
293,8624,4,-1687,-4755,23,-43,-19,17
294,8637,3,-1685,-4752,23,-44,-19,16
295,8630,6,-1695,-4751,23,-43,-19,17
296,8649,-17,-1687,-4761,22,-43,-18,17
297,8653,-5,-1712,-4755,23,-46,-19,18
298,8633,-18,-1738,-4761,22,-44,-18,18
299,8642,1,-1696,-4765,22,-42,-19,17
300,8640,14,-1718,-4748,23,-44,-20,17
301,8640,-2,-1699,-4760,22,-45,-19,17
302,8622,-8,-1711,-4759,23,-44,-20,18
303,8651,-1,-1711,-4757,23,-43,-19,17
304,8641,-11,-1729,-4756,23,-44,-18,16
305,8644,11,-1707,-4760,22,-44,-18,17
306,8640,-8,-1722,-4756,23,-43,-19,17
307,8635,-13,-1689,-4755,23,-44,-19,17
308,8626,10,-1673,-4754,23,-43,-18,17
309,8621,-1,-1677,-4752,23,-42,-19,17
310,8647,10,-1729,-4760,22,-44,-20,17
311,8644,11,-1704,-4761,22,-44,-18,16
312,8627,17,-1735,-4762,22,-44,-18,17
313,8662,17,-1755,-4754,23,-45,-18,16
314,8629,-23,-1735,-4756,23,-43,-19,18
315,8664,-7,-1712,-4756,23,-44,-20,16
316,8638,-2,-1713,-4756,23,-42,-20,18
317,8637,-20,-1676,-4755,23,-43,-19,16
318,8623,0,-1727,-4756,23,-43,-19,17
319,8643,-12,-1707,-4760,22,-43,-19,18
320,8645,13,-1733,-4762,22,-43,-21,18
321,8646,5,-1722,-4753,23,-42,-18,17
322,8653,5,-1709,-4758,23,-43,-19,17
323,8633,-13,-1666,-4758,23,-45,-19,17
324,8629,-15,-1694,-4752,23,-43,-18,17
325,8639,0,-1688,-4758,23,-44,-18,17
326,8649,-1,-1725,-4753,23,-43,-19,16
327,8646,-10,-1736,-4751,23,-44,-19,15
328,8623,-14,-1719,-4753,23,-44,-19,17
329,8652,-1,-1714,-4753,23,-43,-19,18
330,8642,5,-1710,-4757,23,-44,-20,17
331,8637,5,-1696,-4752,23,-45,-20,18
332,8627,16,-1706,-4749,23,-43,-19,17
333,8650,6,-1698,-4754,23,-43,-19,17
334,8655,-8,-1702,-4751,23,-43,-18,17
335,8647,-3,-1693,-4756,23,-43,-19,17
336,8632,-10,-1682,-4755,23,-43,-18,17
337,8631,-11,-1695,-4757,23,-45,-19,17
338,8650,-9,-1699,-4757,23,-44,-20,17
339,8634,4,-1717,-4759,23,-45,-20,17
340,8631,-5,-1706,-4756,23,-45,-19,16
341,8618,14,-1674,-4755,23,-43,-20,17
342,8634,-2,-1704,-4747,23,-43,-20,18
343,8651,-23,-1741,-4754,23,-44,-19,18
344,8644,-8,-1717,-4752,23,-44,-19,16
345,8629,7,-1721,-4753,23,-44,-19,17
346,8617,-18,-1718,-4747,23,-43,-19,16
347,8641,7,-1691,-4753,23,-43,-20,16
348,8625,7,-1704,-4752,23,-43,-20,17
349,8629,10,-1709,-4759,23,-42,-19,16
350,8653,-8,-1692,-4754,23,-43,-18,17
351,8654,8,-1692,-4749,23,-44,-19,16
352,8641,11,-1707,-4759,23,-44,-19,16
353,8640,-2,-1703,-4762,22,-44,-20,16
354,8645,8,-1710,-4757,23,-43,-19,17
355,8648,-7,-1683,-4754,23,-44,-19,16
356,8646,20,-1683,-4752,23,-43,-19,17
357,8657,-10,-1713,-4747,23,-44,-19,16
358,8637,14,-1705,-4750,23,-43,-19,17
359,8623,0,-1704,-4758,23,-45,-18,17
360,8626,8,-1726,-4746,23,-43,-19,16
361,8624,-2,-1704,-4752,23,-44,-20,16
362,8627,14,-1721,-4747,23,-43,-20,17
363,8651,32,-1739,-4753,23,-45,-18,18
364,8623,4,-1708,-4747,23,-44,-20,17
365,8643,15,-1702,-4748,23,-44,-21,17
366,8654,-6,-1714,-4750,23,-44,-19,17
367,8623,-1,-1718,-4749,23,-42,-19,16
368,8634,-6,-1687,-4757,23,-43,-19,16
369,8654,4,-1681,-4750,23,-43,-20,16
370,8640,2,-1715,-4748,23,-43,-19,19
371,8632,8,-1697,-4755,23,-45,-20,17
372,8625,3,-1683,-4752,23,-43,-19,18
373,8628,3,-1702,-4746,23,-44,-19,16
374,8618,-5,-1677,-4750,23,-45,-20,16
375,8609,-11,-1691,-4752,23,-43,-19,17
376,8650,5,-1683,-4752,23,-44,-19,17
377,8624,-11,-1691,-4748,23,-43,-19,16
378,8624,-6,-1688,-4745,23,-44,-19,16
379,8655,14,-1741,-4751,23,-44,-19,16
380,8648,11,-1717,-4752,23,-44,-19,16
381,8652,5,-1748,-4742,23,-44,-18,17
382,8635,4,-1729,-4743,23,-43,-19,17
383,8629,14,-1723,-4744,23,-42,-19,17
384,8623,17,-1729,-4748,23,-44,-20,17
385,8623,10,-1728,-4746,23,-43,-19,17
386,8630,-9,-1711,-4748,23,-44,-18,17
387,8613,-30,-1685,-4752,23,-44,-19,16
388,8630,1,-1717,-4753,23,-44,-19,17
389,8627,24,-1693,-4748,23,-44,-19,16
390,8650,14,-1704,-4749,23,-44,-18,17
391,8656,-2,-1672,-4747,23,-42,-19,17
392,8612,-17,-1702,-4734,23,-43,-19,17
393,8603,1,-1685,-4738,23,-44,-19,16
394,8623,11,-1690,-4745,23,-43,-20,16
395,8627,22,-1690,-4738,23,-43,-20,16
396,8627,-32,-1717,-4747,23,-44,-18,16
397,8632,-5,-1698,-4752,23,-44,-19,16
398,8638,-6,-1708,-4744,23,-44,-21,16
399,8650,-9,-1687,-4744,23,-42,-20,17
400,8626,13,-1718,-4749,23,-42,-18,17
401,8644,9,-1710,-4743,23,-44,-20,16
402,8658,-15,-1718,-4745,23,-44,-20,17
403,8632,-28,-1728,-4749,23,-43,-19,18
404,8630,4,-1717,-4740,23,-44,-19,18
405,8644,-12,-1706,-4741,23,-44,-19,18
406,8628,-2,-1682,-4740,23,-42,-19,16
407,8647,-22,-1689,-4740,23,-43,-18,17
408,8652,5,-1680,-4744,23,-43,-17,16
409,8627,14,-1705,-4747,23,-43,-17,17
410,8634,-2,-1704,-4744,23,-42,-20,17
411,8640,15,-1719,-4739,23,-43,-18,17
412,8628,10,-1685,-4747,23,-43,-19,16
413,8645,1,-1737,-4746,23,-43,-20,17
414,8635,3,-1671,-4749,23,-42,-19,16
415,8629,-9,-1684,-4750,23,-44,-19,17
416,8634,-14,-1735,-4746,23,-43,-19,17
417,8646,-25,-1720,-4744,23,-44,-18,17
418,8641,-2,-1729,-4747,23,-43,-18,17
419,8628,-12,-1700,-4739,23,-43,-19,18
420,8658,14,-1683,-4746,23,-44,-18,18
421,8633,7,-1715,-4742,23,-44,-19,17
422,8628,19,-1733,-4748,23,-44,-20,16
423,8636,8,-1718,-4746,23,-45,-19,18
424,8630,7,-1715,-4747,23,-44,-18,18
425,8624,-7,-1692,-4744,23,-44,-18,17
426,8643,6,-1703,-4742,23,-45,-20,16
427,8646,23,-1712,-4750,23,-43,-19,18
428,8639,-7,-1692,-4745,23,-42,-19,17
429,8644,-1,-1683,-4748,23,-45,-19,16
430,8662,10,-1685,-4753,23,-43,-19,17
431,8637,12,-1705,-4744,23,-44,-19,16
432,8637,-10,-1684,-4751,23,-44,-19,18
433,8637,16,-1690,-4746,23,-43,-19,17
434,8628,20,-1694,-4752,23,-43,-19,17
435,8640,-9,-1710,-4756,23,-43,-19,17
436,8612,19,-1711,-4741,23,-44,-20,18
437,8624,-3,-1699,-4743,23,-43,-19,18
438,8624,-12,-1704,-4746,23,-45,-19,17
439,8629,10,-1699,-4745,23,-43,-20,17
440,8664,13,-1686,-4747,23,-44,-18,17
441,8642,4,-1715,-4747,23,-43,-20,17
442,8634,-3,-1719,-4741,23,-43,-20,17
443,8637,-17,-1682,-4743,23,-44,-19,16
444,8657,18,-1715,-4739,23,-43,-19,16
445,8632,2,-1751,-4738,23,-44,-19,17
446,8625,-6,-1708,-4737,23,-42,-20,17
447,8638,22,-1718,-4740,23,-44,-19,16
448,8665,8,-1687,-4744,23,-43,-18,17
449,8641,-1,-1686,-4746,23,-44,-18,16
450,8638,1,-1678,-4745,23,-43,-19,17
451,8660,8,-1693,-4741,23,-43,-20,16
452,8653,9,-1715,-4741,23,-43,-19,16
453,8647,10,-1706,-4735,23,-45,-19,17
454,8635,0,-1717,-4743,23,-44,-20,17
455,8626,-2,-1715,-4743,23,-43,-20,16
456,8634,-7,-1701,-4748,23,-45,-19,16
457,8653,21,-1717,-4740,23,-44,-19,17
458,8639,20,-1696,-4743,23,-44,-19,17
459,8620,-9,-1693,-4748,23,-43,-18,16
460,8631,12,-1687,-4737,23,-45,-19,17
461,8643,10,-1735,-4739,23,-43,-19,18
462,8639,7,-1711,-4741,23,-44,-19,17
463,8633,13,-1716,-4741,23,-44,-18,17
464,8635,0,-1697,-4734,23,-43,-19,17
465,8634,-7,-1692,-4741,23,-43,-19,16
466,8631,-9,-1669,-4743,23,-43,-17,17
467,8656,-2,-1695,-4747,23,-43,-19,16
468,8624,17,-1697,-4742,23,-43,-19,17
469,8652,15,-1688,-4746,23,-44,-21,17
470,8643,5,-1688,-4739,23,-44,-20,16
471,8635,-5,-1705,-4740,23,-43,-19,18
472,8619,13,-1729,-4741,23,-43,-20,18
473,8625,-3,-1694,-4748,23,-44,-20,16
474,8635,-11,-1725,-4739,23,-43,-18,16
475,8653,31,-1746,-4745,23,-43,-19,17
476,8654,-4,-1732,-4739,23,-44,-18,17
477,8641,16,-1704,-4738,23,-44,-18,18
478,8651,-9,-1739,-4745,23,-43,-18,17
479,8634,8,-1721,-4744,23,-44,-18,16
480,8657,23,-1714,-4738,23,-42,-19,17
481,8629,-4,-1696,-4739,23,-43,-20,16
482,8652,-4,-1707,-4749,23,-44,-20,18
483,8647,11,-1716,-4743,23,-42,-19,17
484,8641,-13,-1725,-4743,23,-43,-19,18
485,8647,-14,-1696,-4738,23,-43,-19,17
486,8646,3,-1691,-4743,23,-44,-20,17
487,8619,6,-1712,-4743,23,-43,-19,17
488,8636,2,-1721,-4733,23,-43,-19,16
489,8646,24,-1722,-4736,23,-44,-21,18
490,8646,18,-1717,-4739,23,-45,-19,17
491,8636,1,-1717,-4747,23,-44,-20,18
492,8625,-21,-1701,-4747,23,-43,-19,18
493,8647,12,-1680,-4740,23,-43,-20,16
494,8659,10,-1703,-4735,23,-43,-19,17
495,8632,-6,-1722,-4737,23,-44,-20,17
496,8630,-33,-1728,-4744,23,-42,-19,18
497,8632,17,-1699,-4742,23,-43,-17,17
498,8605,-23,-1712,-4739,23,-44,-19,17
499,8637,-24,-1712,-4732,23,-43,-19,17
500,8621,-17,-1720,-4734,23,-45,-19,17
501,8648,7,-1735,-4737,23,-43,-20,18
502,8636,-3,-1703,-4734,23,-43,-18,16
503,8633,-16,-1722,-4742,23,-44,-18,16
504,8634,15,-1671,-4736,23,-44,-18,17
505,8654,-21,-1710,-4741,23,-44,-17,17
506,8631,24,-1680,-4745,23,-43,-20,17
507,8643,-6,-1674,-4739,23,-43,-20,16
508,8628,-4,-1707,-4736,23,-44,-19,18
509,8633,7,-1705,-4746,23,-44,-19,17
510,8640,3,-1693,-4740,23,-43,-21,17
511,8641,16,-1718,-4732,23,-44,-20,17
512,8636,13,-1738,-4747,23,-44,-19,17
513,8638,-8,-1717,-4747,23,-44,-19,16
514,8636,8,-1709,-4741,23,-44,-19,16
515,8640,4,-1714,-4743,23,-43,-18,17
516,8629,-13,-1726,-4741,23,-44,-20,18
517,8638,-18,-1719,-4739,23,-44,-18,17
518,8633,-4,-1689,-4742,23,-43,-19,17
519,8642,4,-1719,-4741,23,-43,-18,16
520,8657,8,-1745,-4733,23,-45,-19,17
521,8616,-3,-1699,-4734,23,-44,-18,17
522,8636,-2,-1707,-4736,23,-44,-19,17
523,8631,-3,-1708,-4743,23,-43,-19,16
524,8628,17,-1719,-4743,23,-43,-18,17
525,8637,7,-1691,-4739,23,-44,-19,17
526,8634,-20,-1707,-4740,23,-42,-21,18
527,8642,15,-1717,-4739,23,-43,-18,17
528,8633,-10,-1710,-4741,23,-43,-20,17
529,8613,-2,-1715,-4741,23,-45,-20,17
530,8659,-14,-1675,-4738,23,-44,-19,16
531,8626,-12,-1727,-4735,23,-45,-19,16
532,8611,-9,-1698,-4741,23,-44,-19,16
533,8638,2,-1736,-4742,23,-44,-20,17
534,8631,1,-1717,-4739,23,-44,-19,17
535,8627,9,-1745,-4741,23,-44,-20,17
536,8604,-7,-1720,-4738,23,-43,-21,17
537,8625,30,-1733,-4741,23,-44,-19,17
538,8628,10,-1726,-4738,23,-43,-19,18
539,8637,14,-1720,-4731,23,-43,-19,17
540,8633,10,-1704,-4730,23,-44,-19,16
541,8648,2,-1710,-4738,23,-44,-18,18
542,8632,9,-1694,-4735,23,-45,-20,17
543,8650,15,-1687,-4736,23,-45,-19,17
544,8626,13,-1717,-4736,23,-44,-20,17
545,8633,-4,-1703,-4740,23,-44,-20,18
546,8647,-6,-1701,-4739,23,-44,-19,17
547,8629,-2,-1692,-4742,23,-43,-19,18
548,8625,-16,-1718,-4737,23,-44,-19,16
549,8639,7,-1733,-4742,23,-43,-19,17
550,8639,4,-1707,-4740,23,-43,-19,17
551,8647,4,-1716,-4738,23,-44,-18,16
552,8637,-8,-1706,-4745,23,-44,-19,17
553,8652,17,-1704,-4740,23,-43,-19,18
554,8635,-9,-1715,-4735,23,-44,-18,17
555,8627,-23,-1740,-4732,23,-45,-18,17
556,8633,-12,-1679,-4738,23,-45,-19,17
557,8624,18,-1708,-4743,23,-44,-20,17
558,8621,-2,-1720,-4736,23,-44,-18,17
559,8647,20,-1694,-4734,23,-44,-19,16
560,8656,7,-1685,-4742,23,-44,-21,16
561,8637,19,-1705,-4733,23,-43,-19,16
562,8630,-22,-1688,-4730,23,-43,-18,17
563,8623,-24,-1698,-4730,23,-44,-19,17
564,8645,-25,-1741,-4731,23,-42,-20,18
565,8658,10,-1726,-4741,23,-43,-18,16
566,8633,9,-1711,-4740,23,-44,-19,17
567,8633,5,-1708,-4742,23,-46,-18,17
568,8661,-9,-1721,-4737,23,-44,-19,17
569,8632,12,-1746,-4737,23,-42,-20,17
570,8652,-4,-1724,-4735,23,-44,-18,16
571,8640,-2,-1721,-4744,23,-44,-19,17
572,8645,11,-1734,-4737,23,-43,-19,18
573,8626,1,-1676,-4740,23,-43,-19,18
574,8642,-3,-1721,-4739,23,-43,-18,18
575,8643,10,-1726,-4731,23,-45,-18,17
576,8673,9,-1733,-4727,23,-45,-19,17
577,8653,-13,-1731,-4731,23,-43,-18,17
578,8629,-10,-1693,-4737,23,-44,-19,18
579,8631,-8,-1711,-4731,23,-44,-19,17
580,8649,-9,-1706,-4735,23,-43,-20,17
581,8630,-7,-1723,-4728,23,-45,-19,16
582,8626,-9,-1684,-4734,23,-44,-19,16
583,8641,-12,-1711,-4741,23,-44,-18,17
584,8644,-7,-1710,-4737,23,-43,-19,17
585,8653,-3,-1720,-4732,23,-44,-18,16
586,8635,-35,-1699,-4733,23,-44,-18,16
587,8649,6,-1674,-4730,23,-45,-19,18
588,8664,4,-1698,-4732,23,-44,-19,18
589,8618,29,-1741,-4737,23,-42,-18,17
590,8641,-15,-1707,-4736,23,-43,-19,17
591,8630,7,-1697,-4736,23,-44,-18,16
592,8641,3,-1708,-4736,23,-44,-19,16
593,8656,1,-1689,-4731,23,-44,-19,16
594,8658,3,-1719,-4741,23,-45,-19,16
595,8647,0,-1690,-4734,23,-44,-20,17
596,8644,5,-1709,-4733,23,-44,-19,18
597,8643,-16,-1717,-4740,23,-45,-18,18
598,8619,2,-1694,-4734,23,-44,-19,17
599,8636,8,-1703,-4739,23,-43,-18,16
600,8610,-1,-1705,-4727,23,-44,-19,16
601,8622,9,-1704,-4731,23,-44,-20,17
602,8631,8,-1670,-4739,23,-44,-20,17
603,8646,9,-1681,-4725,23,-43,-21,17
604,8630,-9,-1715,-4736,23,-44,-19,17
605,8633,13,-1732,-4729,23,-44,-20,17
606,8630,-9,-1705,-4728,23,-44,-18,17
607,8645,14,-1740,-4731,23,-43,-18,16
608,8644,17,-1711,-4735,23,-43,-20,17
609,8638,5,-1702,-4742,23,-44,-19,17
610,8648,3,-1732,-4734,23,-45,-18,17
611,8653,-3,-1700,-4732,23,-44,-18,17
612,8613,-7,-1699,-4732,23,-43,-19,17
613,8647,-9,-1696,-4732,23,-43,-20,17
614,8634,6,-1706,-4732,23,-44,-19,17
615,8627,-12,-1710,-4735,23,-43,-19,18
616,8651,-3,-1687,-4736,23,-45,-19,16
617,8652,12,-1697,-4736,23,-44,-18,16
618,8646,8,-1725,-4737,23,-43,-18,18
619,8645,10,-1692,-4733,23,-45,-18,17
620,8635,3,-1705,-4741,23,-43,-20,17
621,8633,12,-1727,-4737,23,-42,-18,17
622,8640,-5,-1708,-4728,23,-44,-20,17
623,8617,7,-1695,-4730,23,-44,-20,17
624,8635,10,-1702,-4728,23,-44,-20,17
625,8630,4,-1688,-4728,23,-44,-19,17
626,8645,0,-1715,-4735,23,-44,-19,18
627,8633,2,-1693,-4728,23,-45,-19,17
628,8611,12,-1707,-4729,23,-43,-19,17
629,8628,28,-1719,-4736,23,-44,-19,17
630,8621,17,-1721,-4736,23,-44,-19,17
631,8649,2,-1731,-4730,23,-44,-18,17
632,8633,4,-1694,-4728,23,-44,-19,17
633,8637,-3,-1714,-4734,23,-44,-19,18
634,8659,-1,-1720,-4735,23,-43,-18,17
635,8646,18,-1722,-4733,23,-44,-18,17
636,8648,5,-1700,-4727,23,-44,-19,17
637,8638,0,-1727,-4738,23,-44,-19,16
638,8637,-2,-1696,-4743,23,-44,-19,17
639,8657,4,-1724,-4740,23,-44,-19,18
640,8653,-8,-1685,-4729,23,-43,-18,17
641,8643,-7,-1703,-4733,23,-43,-19,17
642,8640,-7,-1726,-4731,23,-43,-18,16
643,8644,0,-1709,-4729,23,-43,-19,17
644,8642,7,-1692,-4732,23,-43,-18,17
645,8632,2,-1742,-4730,23,-44,-19,19
646,8649,2,-1704,-4733,23,-44,-19,18
647,8649,-3,-1675,-4730,23,-44,-18,17
648,8626,-1,-1689,-4730,23,-45,-19,17
649,8631,11,-1700,-4730,23,-44,-18,18
650,8628,4,-1670,-4736,23,-44,-19,17
651,8639,6,-1736,-4735,23,-44,-19,18
652,8646,-5,-1678,-4726,23,-44,-19,16
653,8625,9,-1691,-4728,23,-44,-19,17
654,8608,4,-1702,-4734,23,-43,-18,17
655,8635,-12,-1686,-4732,23,-43,-18,16
656,8663,-19,-1680,-4726,23,-44,-20,17
657,8646,0,-1723,-4732,23,-44,-19,17
658,8641,14,-1718,-4733,23,-44,-20,17
659,8643,-14,-1704,-4728,23,-44,-20,16
660,8625,-11,-1702,-4739,23,-44,-20,17
661,8647,8,-1718,-4741,23,-44,-18,17
662,8630,6,-1724,-4735,23,-43,-19,18
663,8659,21,-1706,-4735,23,-43,-19,17
664,8644,10,-1729,-4732,23,-44,-20,17
665,8633,15,-1692,-4740,23,-44,-17,17
666,8632,-23,-1681,-4732,23,-44,-18,16
667,8636,-13,-1716,-4737,23,-44,-20,17
668,8635,8,-1706,-4733,23,-43,-19,18
669,8638,26,-1704,-4731,23,-43,-19,17
670,8623,-25,-1698,-4737,23,-44,-20,18
671,8638,-5,-1684,-4727,23,-44,-20,17
672,8611,-7,-1702,-4738,23,-44,-20,16
673,8647,1,-1709,-4735,23,-42,-19,16
674,8651,20,-1706,-4730,23,-44,-19,17
675,8647,-9,-1693,-4728,23,-44,-19,17
676,8664,-22,-1704,-4733,23,-44,-20,17
677,8659,-2,-1712,-4732,23,-44,-20,17
678,8642,-5,-1720,-4735,23,-44,-18,17
679,8637,-7,-1694,-4725,23,-44,-19,16
680,8626,-3,-1692,-4727,23,-43,-19,18
681,8622,-1,-1724,-4733,23,-44,-19,18
682,8651,25,-1725,-4736,23,-43,-19,16
683,8644,9,-1718,-4734,23,-44,-18,17
684,8641,10,-1740,-4736,23,-44,-18,17
685,8635,-3,-1701,-4729,23,-44,-19,17
686,8643,-11,-1703,-4729,23,-44,-20,18
687,8647,3,-1737,-4729,23,-44,-19,17
688,8637,16,-1709,-4727,23,-44,-19,17
689,8646,-16,-1700,-4729,23,-43,-20,17
690,8632,-18,-1692,-4729,23,-44,-20,17
691,8642,3,-1708,-4737,23,-44,-19,17
692,8645,-15,-1703,-4730,23,-43,-19,18
693,8636,20,-1723,-4731,23,-43,-19,17
694,8643,-5,-1721,-4734,23,-44,-19,17
695,8640,12,-1699,-4739,23,-44,-19,17
696,8636,-4,-1697,-4745,23,-43,-19,17
697,8658,1,-1698,-4729,23,-42,-20,17
698,8628,8,-1696,-4728,23,-42,-21,16
699,8621,25,-1700,-4729,23,-45,-19,17
700,8657,8,-1705,-4731,23,-44,-19,18
701,8657,-14,-1708,-4725,23,-44,-19,18
702,8651,-3,-1696,-4732,23,-43,-18,15
703,8644,-13,-1680,-4732,23,-44,-19,17
704,8631,13,-1691,-4737,23,-44,-18,16
705,8626,11,-1721,-4736,23,-44,-19,17
706,8629,-6,-1683,-4736,23,-44,-18,16
707,8630,20,-1706,-4742,23,-44,-18,18
708,8647,4,-1723,-4730,23,-44,-18,18
709,8654,16,-1738,-4737,23,-44,-19,17
710,8630,-9,-1732,-4735,23,-44,-18,17
711,8623,7,-1711,-4734,23,-43,-19,17
712,8654,1,-1682,-4737,23,-43,-19,16
713,8638,6,-1708,-4733,23,-44,-19,16
714,8645,7,-1714,-4731,23,-43,-19,17
715,8623,1,-1711,-4726,23,-44,-20,17
716,8632,5,-1690,-4732,23,-43,-20,17
717,8652,12,-1693,-4738,23,-43,-19,17
718,8644,0,-1704,-4733,23,-44,-19,17
719,8622,4,-1664,-4731,23,-44,-19,17
720,8632,25,-1706,-4729,23,-44,-19,16
721,8634,15,-1705,-4736,23,-44,-20,16
722,8614,16,-1703,-4730,23,-44,-19,17
723,8641,31,-1729,-4736,23,-44,-21,16
724,8643,25,-1723,-4727,23,-45,-19,16
725,8626,11,-1715,-4733,23,-44,-20,16
726,8650,3,-1732,-4740,23,-42,-18,17
727,8654,-3,-1706,-4732,23,-44,-19,17
728,8634,-4,-1690,-4733,23,-43,-17,19
729,8649,-6,-1705,-4728,23,-44,-19,17
730,8649,1,-1706,-4736,23,-43,-19,17
731,8650,16,-1703,-4728,23,-44,-20,16
732,8633,-8,-1711,-4734,23,-44,-20,16
733,8649,-10,-1682,-4732,23,-43,-19,16
734,8626,-3,-1729,-4730,23,-42,-20,16
735,8627,2,-1684,-4734,23,-45,-19,16
736,8645,-3,-1735,-4736,23,-43,-19,16
737,8641,6,-1723,-4732,23,-43,-19,17
738,8641,13,-1676,-4732,23,-44,-20,16
739,8654,3,-1669,-4731,23,-43,-20,16
740,8658,13,-1713,-4734,23,-45,-18,18
741,8631,-8,-1740,-4738,23,-43,-21,19
742,8646,2,-1701,-4732,23,-44,-19,16
743,8629,-22,-1708,-4730,23,-44,-19,17
744,8630,-14,-1747,-4735,23,-44,-18,17
745,8624,3,-1718,-4730,23,-44,-19,18
746,8637,5,-1729,-4735,23,-44,-19,18
747,8637,1,-1710,-4721,23,-44,-19,18
748,8660,-12,-1695,-4735,23,-44,-19,17
749,8653,10,-1703,-4734,23,-44,-20,17
750,8648,13,-1702,-4723,23,-45,-19,17
751,8637,19,-1727,-4734,23,-46,-20,17
752,8629,14,-1700,-4725,23,-43,-20,17
753,8618,-13,-1691,-4727,23,-44,-20,17
754,8644,-2,-1691,-4726,23,-43,-20,17
755,8615,0,-1753,-4728,23,-43,-18,17
756,8616,7,-1688,-4730,23,-43,-19,17
757,8644,8,-1714,-4727,23,-43,-21,16
758,8627,-3,-1694,-4730,23,-44,-20,16
759,8652,7,-1704,-4728,23,-45,-19,17
760,8626,31,-1746,-4731,23,-43,-19,17
761,8627,-2,-1717,-4729,23,-42,-19,17
762,8645,12,-1700,-4724,23,-45,-19,17
763,8634,1,-1704,-4727,23,-44,-19,17
764,8637,2,-1711,-4723,23,-45,-20,17
765,8652,12,-1716,-4724,23,-43,-19,18
766,8634,6,-1693,-4726,23,-44,-20,17
767,8624,1,-1680,-4730,23,-44,-20,18
768,8622,-1,-1699,-4722,23,-45,-20,17
769,8623,30,-1731,-4730,23,-42,-19,17
770,8646,12,-1682,-4732,23,-43,-19,17
771,8660,-6,-1709,-4728,23,-43,-18,17
772,8639,6,-1685,-4727,23,-43,-19,17
773,8623,13,-1723,-4720,23,-43,-19,16
774,8645,6,-1718,-4718,23,-44,-19,16
775,8629,23,-1713,-4724,23,-43,-19,17
776,8628,14,-1716,-4721,23,-43,-18,16
777,8640,2,-1702,-4718,23,-43,-19,16
778,8641,-14,-1686,-4727,23,-44,-18,16
779,8630,5,-1712,-4728,23,-44,-19,16
780,8648,-3,-1704,-4713,23,-44,-20,16
781,8649,2,-1711,-4723,23,-44,-19,17
782,8636,19,-1726,-4731,23,-44,-18,16
783,8633,16,-1727,-4729,23,-45,-19,17
784,8635,-3,-1693,-4726,23,-45,-20,17
785,8636,-4,-1704,-4714,23,-43,-19,18
786,8649,25,-1710,-4718,23,-44,-17,17
787,8657,-10,-1718,-4729,23,-43,-19,17
788,8641,7,-1747,-4725,23,-43,-21,17
789,8626,14,-1731,-4726,23,-44,-19,18
790,8603,-2,-1695,-4731,23,-44,-20,18
791,8642,7,-1703,-4723,23,-43,-19,17
792,8639,2,-1696,-4723,23,-44,-20,17
793,8644,-5,-1703,-4730,23,-44,-18,17
794,8621,20,-1710,-4733,23,-45,-18,16
795,8649,18,-1719,-4731,23,-43,-19,17
796,8642,-7,-1705,-4728,23,-44,-20,16
797,8608,33,-1670,-4731,23,-43,-20,15
798,8638,-6,-1718,-4729,23,-43,-20,16
799,8637,-5,-1701,-4720,23,-45,-19,16
800,8632,8,-1684,-4721,23,-45,-19,16
801,8660,-13,-1695,-4731,23,-45,-21,17
802,8623,10,-1692,-4717,23,-44,-19,17
803,8637,14,-1723,-4724,23,-43,-19,17
804,8644,3,-1711,-4724,23,-45,-20,17
805,8593,13,-1688,-4719,23,-44,-18,17
806,8626,-11,-1711,-4721,23,-43,-19,17
807,8658,-3,-1714,-4723,23,-43,-19,18
808,8651,-2,-1694,-4720,23,-44,-19,16
809,8635,2,-1671,-4723,23,-43,-19,17
810,8643,10,-1695,-4729,23,-43,-19,17
811,8652,11,-1705,-4718,23,-44,-18,17
812,8632,2,-1696,-4733,23,-44,-19,17
813,8650,26,-1707,-4722,23,-44,-18,18
814,8644,-10,-1686,-4719,23,-45,-19,18
815,8650,11,-1738,-4721,23,-43,-19,17
816,8656,7,-1712,-4724,23,-44,-20,17
817,8657,-24,-1709,-4724,23,-44,-18,17
818,8649,-5,-1717,-4722,23,-44,-19,17
819,8634,-9,-1719,-4729,23,-43,-19,17
820,8640,16,-1684,-4723,23,-44,-19,16
821,8623,19,-1701,-4724,23,-43,-19,16
822,8624,11,-1730,-4722,23,-43,-17,17
823,8665,0,-1722,-4715,23,-44,-18,17
824,8621,-21,-1715,-4725,23,-42,-18,16
825,8652,-9,-1716,-4723,23,-43,-19,18
826,8627,22,-1715,-4722,23,-44,-18,17
827,8631,23,-1669,-4726,23,-43,-20,17
828,8635,13,-1719,-4718,23,-43,-19,18
829,8635,-4,-1720,-4722,23,-44,-19,17
830,8651,0,-1714,-4715,23,-44,-20,17
831,8632,-6,-1690,-4723,23,-44,-19,18
832,8639,6,-1708,-4723,23,-44,-19,17
833,8645,-8,-1702,-4728,23,-43,-20,18
834,8640,11,-1682,-4730,23,-44,-20,17
835,8627,21,-1732,-4731,23,-44,-19,16
836,8651,22,-1698,-4733,23,-44,-20,16
837,8655,20,-1726,-4724,23,-44,-20,17
838,8658,11,-1748,-4721,23,-43,-20,17
839,8647,9,-1715,-4716,23,-44,-19,17
840,8645,5,-1735,-4728,23,-44,-19,18
841,8635,9,-1713,-4725,23,-43,-19,17
842,8661,-13,-1673,-4721,23,-44,-18,16
843,8640,18,-1672,-4725,23,-44,-18,18
844,8651,6,-1722,-4728,23,-45,-19,18
845,8651,-12,-1749,-4724,23,-43,-18,19
846,8636,5,-1694,-4728,23,-43,-19,17
847,8646,11,-1689,-4733,23,-45,-18,18
848,8638,14,-1678,-4717,23,-45,-18,17
849,8617,4,-1682,-4722,23,-43,-19,17
850,8658,6,-1748,-4724,23,-43,-19,17
851,8618,13,-1711,-4723,23,-43,-19,17
852,8621,8,-1765,-4728,23,-44,-18,18
853,8622,-1,-1707,-4727,23,-43,-19,17
854,8638,11,-1709,-4727,23,-44,-20,17
855,8629,3,-1697,-4720,23,-44,-19,16
856,8642,9,-1714,-4721,23,-43,-19,17
857,8644,-5,-1699,-4726,23,-43,-18,17
858,8670,20,-1724,-4720,23,-44,-20,16
859,8644,-3,-1677,-4727,23,-44,-18,16
860,8622,-21,-1708,-4720,23,-43,-18,17
861,8647,-2,-1709,-4721,23,-43,-19,17
862,8645,10,-1710,-4719,23,-44,-20,17
863,8662,3,-1738,-4725,23,-43,-19,17
864,8636,-11,-1708,-4720,23,-43,-18,17
865,8655,29,-1696,-4723,23,-43,-19,17
866,8641,26,-1694,-4724,23,-44,-20,16
867,8616,10,-1684,-4719,23,-44,-19,16
868,8656,11,-1707,-4726,23,-45,-19,15
869,8621,-17,-1709,-4721,23,-45,-19,17
870,8658,10,-1709,-4715,23,-43,-19,18
871,8638,-3,-1682,-4719,23,-44,-20,17
872,8649,-15,-1712,-4719,23,-44,-19,17
873,8639,-32,-1704,-4724,23,-44,-19,16
874,8652,2,-1696,-4719,23,-44,-19,17
875,8640,-11,-1760,-4722,23,-44,-18,18
876,8661,13,-1736,-4724,23,-44,-20,16
877,8627,2,-1696,-4725,23,-44,-20,17
878,8649,-22,-1741,-4722,23,-43,-19,17
879,8657,-4,-1698,-4714,23,-43,-20,16
880,8632,-3,-1701,-4721,23,-44,-19,17
881,8656,-1,-1688,-4717,23,-44,-20,17
882,8646,16,-1711,-4717,23,-43,-19,18
883,8632,3,-1700,-4721,23,-43,-19,18
884,8637,4,-1726,-4724,23,-44,-18,17
885,8652,19,-1720,-4718,23,-43,-19,17
886,8626,21,-1716,-4719,23,-44,-20,18
887,8616,0,-1669,-4723,23,-44,-20,17
888,8639,-7,-1693,-4726,23,-42,-19,18
889,8644,-5,-1733,-4717,23,-43,-20,17
890,8649,-3,-1676,-4717,23,-43,-19,16
891,8648,11,-1705,-4727,23,-44,-18,16
892,8614,28,-1662,-4725,23,-43,-19,15
893,8637,13,-1696,-4716,23,-45,-19,17
894,8645,5,-1692,-4715,23,-44,-20,16
895,8651,-17,-1705,-4719,23,-43,-18,17
896,8634,5,-1745,-4716,23,-44,-19,17
897,8632,0,-1699,-4713,23,-42,-20,18
898,8635,17,-1678,-4713,23,-44,-19,17
899,8634,-21,-1749,-4719,23,-42,-20,17
900,8651,-9,-1704,-4722,23,-44,-19,16
901,8653,7,-1705,-4719,23,-43,-19,17
902,8642,-17,-1687,-4723,23,-44,-19,17
903,8645,23,-1715,-4731,23,-44,-19,17
904,8619,4,-1706,-4720,23,-45,-20,17
905,8668,-3,-1718,-4725,23,-43,-18,17
906,8618,-9,-1721,-4722,23,-44,-19,16
907,8626,-2,-1704,-4713,23,-44,-20,17
908,8617,3,-1702,-4722,23,-43,-20,17
909,8623,11,-1694,-4716,23,-44,-18,17
910,8656,10,-1709,-4719,23,-44,-22,17
911,8628,14,-1704,-4725,23,-43,-19,18
912,8633,-1,-1720,-4725,23,-43,-19,18
913,8653,4,-1710,-4714,23,-44,-19,16
914,8653,-9,-1730,-4718,23,-45,-19,18
915,8639,-10,-1702,-4725,23,-42,-19,18
916,8642,14,-1717,-4713,23,-43,-20,17
917,8641,-1,-1709,-4719,23,-43,-19,18
918,8645,-12,-1726,-4715,23,-44,-19,17
919,8636,-5,-1718,-4722,23,-44,-19,15
920,8628,6,-1709,-4720,23,-43,-20,17
921,8637,6,-1706,-4718,23,-44,-19,17
922,8639,4,-1735,-4719,23,-44,-18,18
923,8620,-3,-1682,-4716,23,-44,-19,17
924,8638,9,-1722,-4729,23,-44,-18,17
925,8657,-7,-1697,-4718,23,-44,-18,17
926,8649,-11,-1651,-4711,23,-44,-19,17
927,8655,-9,-1702,-4718,23,-44,-19,17
928,8651,0,-1711,-4719,23,-43,-20,18
929,8629,6,-1725,-4713,23,-44,-19,17
930,8643,19,-1706,-4713,23,-44,-19,17
931,8637,-12,-1690,-4711,23,-43,-18,17
932,8633,-15,-1731,-4715,23,-43,-19,18
933,8629,10,-1693,-4718,23,-44,-18,17
934,8649,16,-1771,-4723,23,-44,-18,17
935,8644,-7,-1708,-4717,23,-44,-19,17
936,8628,8,-1714,-4723,23,-44,-18,16
937,8640,-3,-1713,-4724,23,-44,-21,15
938,8631,8,-1710,-4719,23,-43,-21,19
939,8675,19,-1740,-4708,23,-45,-19,18
940,8630,-13,-1717,-4716,23,-44,-20,17
941,8630,22,-1671,-4717,23,-43,-19,17
942,8645,9,-1721,-4717,23,-43,-19,18
943,8646,-9,-1691,-4721,23,-44,-19,17
944,8648,12,-1720,-4719,23,-43,-18,17
945,8645,1,-1728,-4718,23,-44,-19,18
946,8621,-4,-1737,-4713,23,-44,-18,16
947,8657,6,-1714,-4715,23,-44,-19,17
948,8626,-7,-1717,-4714,23,-43,-20,17
949,8650,-10,-1724,-4718,23,-44,-19,17
950,8632,3,-1722,-4718,23,-43,-20,16
951,8635,14,-1708,-4713,23,-43,-19,17
952,8657,19,-1708,-4718,23,-43,-18,17
953,8635,-8,-1717,-4718,23,-44,-19,16
954,8641,3,-1727,-4715,23,-43,-19,18
955,8634,-6,-1686,-4723,23,-45,-19,16
956,8642,2,-1694,-4718,23,-44,-18,16
957,8625,-7,-1717,-4720,23,-44,-19,17
958,8630,12,-1724,-4724,23,-44,-19,16
959,8658,0,-1711,-4716,23,-43,-20,17
960,8635,33,-1711,-4719,23,-43,-18,16
961,8664,24,-1678,-4718,23,-44,-18,16
962,8641,-1,-1696,-4710,23,-45,-18,18
963,8646,-11,-1713,-4714,23,-44,-18,17
964,8622,2,-1731,-4717,23,-45,-19,17
965,8642,-7,-1664,-4719,23,-42,-19,16
966,8624,-17,-1662,-4713,23,-44,-19,17
967,8637,0,-1698,-4706,23,-43,-19,16
968,8625,-3,-1728,-4714,23,-44,-20,17
969,8622,9,-1710,-4712,23,-43,-18,17
970,8650,-6,-1700,-4724,23,-43,-20,18
971,8649,-6,-1712,-4715,23,-44,-19,17
972,8648,-2,-1719,-4714,23,-43,-19,16
973,8638,-5,-1726,-4719,23,-43,-19,16
974,8640,-3,-1700,-4718,23,-43,-20,17
975,8637,38,-1726,-4716,23,-43,-19,17
976,8608,6,-1701,-4717,23,-44,-19,17
977,8619,4,-1696,-4724,23,-44,-18,16
978,8666,5,-1704,-4719,23,-43,-19,17
979,8655,24,-1693,-4716,23,-44,-19,17
980,8670,-8,-1712,-4710,23,-43,-19,16
981,8621,-16,-1715,-4712,23,-44,-18,17
982,8647,-31,-1705,-4716,23,-44,-20,17
983,8646,-10,-1688,-4720,23,-43,-20,16
984,8663,6,-1690,-4720,23,-45,-19,17
985,8631,-3,-1724,-4718,23,-43,-20,17
986,8645,-10,-1714,-4717,23,-44,-20,17
987,8654,-4,-1724,-4723,23,-45,-19,17
988,8631,-7,-1732,-4713,23,-43,-18,17
989,8645,24,-1710,-4711,23,-42,-19,17
990,8639,5,-1724,-4713,23,-42,-19,16
991,8640,6,-1716,-4721,23,-43,-19,17
992,8617,-16,-1719,-4718,23,-44,-19,17
993,8619,-1,-1708,-4712,23,-44,-18,16
994,8630,0,-1717,-4713,23,-44,-19,17
995,8617,5,-1740,-4721,23,-44,-20,16
