,acc_X,acc_Y,acc_Z,temp,tempC,gyr_X,gyr_Y,gyr_Z
0,8633,8,-1706,-4714,23,-44,-19,17
1,8628,5,-1707,-4714,23,-44,-19,17
2,8627,6,-1713,-4715,23,-44,-19,17
3,8628,6,-1710,-4715,23,-44,-19,17
4,8631,5,-1710,-4715,23,-44,-19,17
5,8634,7,-1715,-4714,23,-44,-19,17
6,8633,4,-1712,-4714,23,-44,-19,17
7,8632,2,-1708,-4713,23,-44,-19,17
8,8635,4,-1706,-4712,23,-44,-19,17
9,8634,9,-1708,-4712,23,-44,-19,17
10,8637,2,-1718,-4711,23,-43,-20,17
11,8638,6,-1705,-4710,23,-43,-19,17
12,8639,6,-1706,-4711,23,-43,-20,17
13,8636,7,-1710,-4712,23,-43,-20,17
14,8634,7,-1709,-4713,23,-43,-20,17
15,8632,4,-1706,-4715,23,-44,-20,17
16,8632,6,-1701,-4716,23,-44,-20,17
17,8633,4,-1709,-4713,23,-43,-20,17
18,8635,9,-1714,-4712,23,-43,-19,17
19,8637,7,-1714,-4712,23,-43,-19,17
20,8637,7,-1710,-4712,23,-43,-19,17
21,8636,4,-1712,-4711,23,-43,-19,17
22,8637,4,-1717,-4712,23,-43,-20,17
23,8633,5,-1712,-4711,23,-44,-20,17
24,8637,6,-1706,-4709,23,-44,-20,17
25,8640,4,-1702,-4708,23,-44,-20,17
26,8643,6,-1702,-4710,23,-44,-20,17
27,8640,3,-1701,-4711,23,-44,-20,17
28,8642,0,-1700,-4712,23,-44,-20,17
29,8634,6,-1701,-4711,23,-44,-19,17
30,8636,5,-1705,-4712,23,-44,-19,17
31,8638,5,-1702,-4711,23,-44,-19,17
32,8636,3,-1708,-4712,23,-44,-19,17
33,8636,2,-1713,-4713,23,-43,-19,17
34,8638,2,-1712,-4714,23,-43,-19,17
35,8637,-1,-1713,-4714,23,-43,-19,17
36,8640,2,-1709,-4714,23,-44,-19,17
37,8641,6,-1707,-4715,23,-43,-19,17
38,8641,1,-1715,-4715,23,-44,-19,17
39,8642,0,-1717,-4714,23,-44,-19,17
40,8638,-2,-1722,-4714,23,-43,-19,17
41,8638,0,-1718,-4714,23,-43,-19,17
42,8638,1,-1713,-4713,23,-43,-19,17
43,8636,6,-1713,-4715,23,-43,-19,17
44,8635,6,-1713,-4713,23,-43,-19,17
45,8637,7,-1706,-4713,23,-43,-19,17
46,8639,5,-1702,-4713,23,-43,-19,17
47,8639,6,-1699,-4712,23,-43,-19,17
48,8639,5,-1711,-4712,23,-43,-19,17
49,8644,1,-1718,-4710,23,-43,-19,17
50,8642,-4,-1717,-4711,23,-43,-19,17
51,8637,0,-1716,-4712,23,-43,-19,17
52,8640,-4,-1716,-4713,23,-43,-19,17
53,8637,-4,-1713,-4712,23,-43,-19,17
54,8634,0,-1718,-4714,23,-43,-19,17
55,8635,-2,-1719,-4716,23,-43,-19,17
56,8631,-1,-1717,-4716,23,-43,-19,17
57,8637,0,-1712,-4715,23,-43,-19,17
58,8634,4,-1716,-4715,23,-43,-19,17
59,8637,2,-1715,-4715,23,-43,-19,17
60,8641,4,-1714,-4713,23,-43,-19,17
61,8636,1,-1711,-4712,23,-43,-19,17
62,8635,0,-1712,-4714,23,-43,-19,17
63,8632,5,-1720,-4711,23,-43,-20,17
64,8633,7,-1713,-4714,23,-44,-19,17
65,8634,5,-1716,-4714,23,-44,-19,17
66,8632,0,-1720,-4715,23,-43,-19,17
67,8635,-1,-1714,-4717,23,-44,-19,17
68,8628,1,-1712,-4717,23,-43,-19,17
69,8625,-1,-1714,-4717,23,-44,-19,17
70,8626,1,-1710,-4717,23,-44,-19,18
71,8626,2,-1704,-4717,23,-44,-19,17
72,8629,4,-1698,-4717,23,-44,-19,17
73,8629,4,-1699,-4716,23,-44,-19,17
74,8632,1,-1707,-4718,23,-44,-19,17
75,8636,1,-1704,-4718,23,-44,-19,17
76,8635,-4,-1710,-4718,23,-43,-19,17
77,8641,-6,-1711,-4716,23,-44,-19,17
78,8645,1,-1705,-4715,23,-44,-19,17
79,8643,8,-1705,-4716,23,-43,-19,17
80,8635,8,-1702,-4716,23,-43,-19,17
81,8638,7,-1708,-4715,23,-44,-19,17
82,8637,2,-1710,-4715,23,-43,-20,17
83,8639,5,-1712,-4712,23,-43,-19,17
84,8637,4,-1707,-4712,23,-43,-19,17
85,8634,8,-1708,-4712,23,-44,-19,17
86,8630,6,-1712,-4713,23,-44,-19,17
87,8627,6,-1705,-4714,23,-43,-19,17
88,8628,7,-1707,-4713,23,-44,-19,17
89,8629,5,-1712,-4712,23,-44,-19,17
90,8631,7,-1716,-4713,23,-44,-19,17
91,8628,11,-1721,-4715,23,-43,-19,17
92,8628,10,-1722,-4716,23,-43,-19,17
93,8626,3,-1718,-4717,23,-43,-19,17
94,8630,6,-1721,-4716,23,-43,-19,17
95,8631,2,-1733,-4717,23,-44,-20,17
96,8632,3,-1733,-4718,23,-44,-20,17
97,8634,1,-1730,-4718,23,-44,-19,17
98,8641,3,-1725,-4718,23,-43,-19,17
99,8639,0,-1720,-4718,23,-43,-19,17
100,8636,2,-1716,-4717,23,-43,-19,17
101,8638,5,-1711,-4716,23,-43,-20,17
102,8636,4,-1706,-4715,23,-43,-20,17
103,8637,4,-1696,-4718,23,-43,-20,17
104,8639,5,-1696,-4718,23,-43,-20,17
105,8641,7,-1702,-4717,23,-43,-20,17
106,8637,10,-1702,-4715,23,-43,-19,17
107,8638,10,-1702,-4716,23,-44,-19,17
108,8637,14,-1703,-4715,23,-43,-19,17
109,8638,8,-1701,-4715,23,-43,-20,17
110,8640,12,-1706,-4714,23,-43,-20,16
111,8639,14,-1707,-4714,23,-43,-20,17
112,8636,15,-1707,-4715,23,-43,-19,17
113,8635,17,-1710,-4715,23,-43,-20,16
114,8636,15,-1712,-4713,23,-43,-19,16
115,8632,9,-1712,-4715,23,-43,-19,17
116,8630,6,-1708,-4716,23,-43,-19,17
117,8634,10,-1698,-4716,23,-44,-19,17
118,8633,8,-1699,-4715,23,-43,-19,17
119,8635,9,-1706,-4715,23,-43,-20,17
120,8632,5,-1717,-4714,23,-43,-19,17
121,8631,4,-1715,-4715,23,-44,-19,17
122,8629,6,-1724,-4715,23,-44,-19,17
123,8631,9,-1716,-4715,23,-44,-19,17
124,8630,11,-1716,-4714,23,-44,-19,17
125,8631,13,-1715,-4714,23,-43,-19,17
126,8630,11,-1711,-4714,23,-44,-19,17
127,8625,13,-1711,-4716,23,-44,-19,17
128,8630,7,-1712,-4715,23,-44,-19,17
129,8632,5,-1712,-4713,23,-43,-19,17
130,8638,8,-1710,-4713,23,-43,-19,17
131,8638,8,-1709,-4714,23,-43,-19,17
132,8638,9,-1709,-4715,23,-43,-19,17
133,8641,8,-1707,-4715,23,-43,-19,17
134,8639,6,-1709,-4714,23,-43,-19,17
135,8637,7,-1717,-4714,23,-43,-19,17
136,8638,1,-1716,-4712,23,-44,-19,17
137,8637,6,-1707,-4712,23,-44,-19,17
138,8632,3,-1708,-4713,23,-44,-19,17
139,8637,6,-1708,-4713,23,-44,-19,17
140,8639,5,-1705,-4713,23,-43,-19,17
141,8644,4,-1708,-4713,23,-44,-19,17
142,8645,7,-1710,-4714,23,-44,-19,17
143,8647,8,-1715,-4714,23,-44,-19,17
144,8640,8,-1716,-4713,23,-44,-20,17
145,8645,10,-1718,-4713,23,-44,-20,17
146,8643,10,-1720,-4712,23,-44,-20,17
147,8637,12,-1725,-4712,23,-44,-20,17
148,8634,9,-1717,-4712,23,-44,-20,17
149,8636,8,-1717,-4712,23,-43,-19,17
150,8630,7,-1723,-4712,23,-43,-19,17
151,8633,4,-1716,-4713,23,-43,-19,17
152,8631,-4,-1720,-4711,23,-43,-19,17
153,8637,-3,-1723,-4713,23,-43,-19,17
154,8635,0,-1717,-4713,23,-43,-19,17
155,8636,2,-1721,-4714,23,-43,-19,17
156,8639,-1,-1720,-4713,23,-44,-19,17
157,8640,-1,-1717,-4716,23,-44,-19,17
158,8643,3,-1710,-4717,23,-44,-19,17
159,8644,2,-1710,-4717,23,-43,-19,17
160,8645,0,-1708,-4717,23,-43,-19,17
161,8651,-2,-1715,-4718,23,-43,-19,17
162,8649,0,-1712,-4718,23,-43,-19,17
163,8649,4,-1709,-4716,23,-44,-19,17
164,8639,7,-1717,-4716,23,-44,-19,17
165,8641,6,-1716,-4716,23,-44,-19,17
166,8645,6,-1715,-4717,23,-44,-19,17
167,8638,9,-1711,-4716,23,-44,-19,17
168,8634,7,-1709,-4717,23,-44,-19,17
169,8633,5,-1710,-4716,23,-44,-19,17
170,8631,3,-1713,-4715,23,-43,-19,17
171,8635,1,-1707,-4717,23,-44,-19,17
172,8637,3,-1713,-4717,23,-44,-19,17
173,8634,6,-1713,-4716,23,-44,-19,17
174,8637,3,-1712,-4714,23,-44,-19,17
175,8640,-1,-1709,-4714,23,-44,-19,17
176,8638,-5,-1713,-4713,23,-44,-19,17
177,8639,-2,-1713,-4712,23,-43,-19,17
178,8643,4,-1714,-4714,23,-43,-19,17
179,8644,6,-1716,-4716,23,-43,-19,17
180,8642,0,-1712,-4716,23,-43,-19,17
181,8642,0,-1713,-4716,23,-43,-19,17
182,8642,2,-1713,-4717,23,-44,-19,17
183,8643,2,-1722,-4717,23,-44,-19,17
184,8642,4,-1712,-4716,23,-44,-19,17
185,8641,-1,-1711,-4718,23,-44,-19,17
186,8638,4,-1713,-4716,23,-44,-19,17
187,8633,4,-1707,-4716,23,-43,-19,17
188,8632,1,-1707,-4716,23,-43,-19,17
189,8633,0,-1713,-4714,23,-43,-19,17
190,8633,2,-1719,-4713,23,-43,-19,17
191,8632,6,-1724,-4713,23,-43,-20,17
192,8639,10,-1725,-4715,23,-43,-20,17
193,8637,5,-1721,-4714,23,-43,-20,17
194,8637,4,-1712,-4714,23,-44,-19,17
195,8633,3,-1711,-4715,23,-43,-19,17
196,8630,2,-1712,-4715,23,-44,-20,17
197,8631,9,-1709,-4714,23,-44,-19,17
198,8634,8,-1713,-4715,23,-43,-19,17
199,8636,5,-1712,-4714,23,-44,-20,17
200,8644,10,-1706,-4714,23,-44,-19,17
201,8636,9,-1712,-4713,23,-43,-19,17
202,8636,6,-1717,-4713,23,-44,-19,17
203,8638,6,-1715,-4713,23,-44,-19,17
204,8639,8,-1717,-4713,23,-44,-19,17
205,8635,7,-1717,-4714,23,-43,-19,17
206,8637,10,-1720,-4715,23,-43,-19,17
207,8635,3,-1723,-4717,23,-43,-19,17
208,8633,5,-1720,-4715,23,-44,-19,17
209,8630,3,-1721,-4715,23,-43,-19,17
210,8634,9,-1715,-4716,23,-43,-19,17
211,8632,8,-1708,-4717,23,-43,-19,17
212,8634,12,-1709,-4717,23,-43,-19,17
213,8638,13,-1709,-4716,23,-43,-19,17
214,8636,10,-1717,-4714,23,-44,-19,17
215,8635,9,-1719,-4714,23,-44,-19,17
216,8637,6,-1718,-4714,23,-44,-19,17
217,8636,4,-1719,-4714,23,-44,-19,17
218,8630,4,-1722,-4715,23,-44,-19,17
219,8626,3,-1728,-4716,23,-44,-20,17
220,8637,1,-1731,-4716,23,-44,-19,17
221,8635,2,-1730,-4716,23,-44,-20,17
222,8636,6,-1722,-4714,23,-44,-20,17
223,8635,8,-1723,-4715,23,-44,-19,17
224,8636,7,-1726,-4713,23,-44,-19,17
225,8641,9,-1724,-4715,23,-44,-19,17
226,8645,7,-1715,-4714,23,-44,-19,18
227,8649,7,-1712,-4714,23,-44,-19,18
228,8643,2,-1707,-4714,23,-43,-19,17
229,8640,6,-1707,-4714,23,-43,-19,17
230,8643,2,-1710,-4712,23,-44,-19,17
231,8646,6,-1708,-4712,23,-44,-19,17
232,8643,3,-1707,-4712,23,-44,-19,17
233,8641,4,-1709,-4712,23,-44,-19,17
234,8632,2,-1715,-4713,23,-44,-19,17
235,8628,-1,-1709,-4712,23,-44,-19,17
236,8626,-4,-1708,-4713,23,-44,-19,17
237,8624,-8,-1705,-4714,23,-44,-19,17
238,8625,-5,-1710,-4714,23,-44,-19,17
239,8629,-5,-1702,-4714,23,-44,-19,17
240,8630,2,-1706,-4711,23,-44,-19,17
241,8628,2,-1713,-4710,23,-44,-19,17
242,8630,2,-1716,-4711,23,-44,-19,17
243,8630,2,-1713,-4712,23,-43,-19,17
244,8629,6,-1712,-4712,23,-43,-19,17
245,8634,7,-1708,-4713,23,-44,-19,17
246,8632,7,-1713,-4713,23,-43,-19,17
247,8629,8,-1710,-4711,23,-43,-19,17
248,8632,10,-1714,-4710,23,-43,-19,17
249,8634,10,-1725,-4711,23,-43,-19,17
250,8630,2,-1721,-4713,23,-43,-19,18
251,8626,5,-1716,-4713,23,-43,-19,17
252,8629,5,-1711,-4713,23,-43,-19,18
253,8633,6,-1710,-4713,23,-44,-19,18
254,8634,7,-1713,-4712,23,-44,-19,18
255,8638,2,-1713,-4713,23,-43,-19,17
256,8638,2,-1717,-4713,23,-43,-19,18
257,8634,0,-1714,-4711,23,-43,-19,18
258,8630,3,-1712,-4709,23,-43,-19,17
259,8633,6,-1711,-4709,23,-43,-19,17
260,8639,8,-1709,-4711,23,-43,-19,17
261,8637,8,-1712,-4713,23,-43,-20,17
262,8633,8,-1705,-4712,23,-43,-20,17
263,8635,10,-1705,-4712,23,-43,-19,17
264,8631,10,-1710,-4711,23,-44,-19,17
265,8633,9,-1704,-4710,23,-44,-19,17
266,8634,11,-1710,-4712,23,-44,-19,17
267,8634,11,-1709,-4711,23,-43,-19,17
268,8635,11,-1703,-4711,23,-43,-19,17
269,8633,8,-1705,-4711,23,-43,-19,17
270,8631,8,-1700,-4711,23,-43,-19,17
271,8629,4,-1704,-4711,23,-43,-19,17
272,8633,3,-1707,-4712,23,-43,-19,17
273,8632,6,-1712,-4712,23,-43,-19,17
274,8631,7,-1720,-4714,23,-43,-19,17
275,8634,9,-1720,-4714,23,-44,-19,17
276,8633,7,-1717,-4714,23,-44,-19,17
277,8629,7,-1722,-4712,23,-44,-19,17
278,8631,7,-1727,-4713,23,-44,-19,17
279,8635,6,-1725,-4712,23,-44,-20,17
280,8635,8,-1717,-4713,23,-44,-19,17
281,8638,6,-1715,-4712,23,-44,-19,17
282,8634,1,-1715,-4713,23,-44,-19,17
283,8635,1,-1716,-4713,23,-44,-19,17
284,8632,4,-1716,-4713,23,-43,-19,17
285,8631,2,-1719,-4711,23,-44,-19,17
286,8633,5,-1722,-4712,23,-44,-19,17
287,8634,7,-1726,-4712,23,-44,-19,17
288,8632,9,-1722,-4710,23,-44,-20,17
289,8630,7,-1709,-4710,23,-43,-20,17
290,8632,7,-1709,-4711,23,-44,-20,17
291,8631,4,-1711,-4711,23,-44,-20,17
292,8631,7,-1707,-4711,23,-43,-19,17
293,8632,10,-1709,-4712,23,-43,-19,17
294,8635,11,-1712,-4711,23,-43,-19,17
295,8638,13,-1714,-4712,23,-43,-20,17
296,8639,11,-1722,-4712,23,-43,-20,17
297,8643,10,-1722,-4713,23,-44,-20,17
298,8644,10,-1719,-4710,23,-43,-19,17
299,8641,12,-1714,-4711,23,-43,-19,17
300,8639,13,-1700,-4712,23,-43,-19,17
301,8638,13,-1700,-4710,23,-44,-19,17
302,8640,11,-1695,-4711,23,-44,-19,17
303,8638,6,-1693,-4711,23,-44,-19,17
304,8639,5,-1696,-4710,23,-44,-19,17
305,8640,1,-1704,-4710,23,-44,-19,17
306,8634,4,-1714,-4712,23,-44,-19,17
307,8636,2,-1716,-4712,23,-44,-19,17
308,8632,8,-1713,-4711,23,-43,-19,17
309,8631,16,-1713,-4711,23,-44,-19,17
310,8635,17,-1716,-4710,23,-43,-19,17
311,8641,12,-1707,-4710,23,-43,-19,17
312,8637,8,-1712,-4711,23,-44,-19,17
313,8635,10,-1720,-4711,23,-44,-19,17
314,8639,8,-1717,-4712,23,-43,-19,17
315,8639,9,-1718,-4714,23,-44,-19,17
316,8642,8,-1714,-4714,23,-44,-19,17
317,8644,8,-1716,-4714,23,-44,-19,17
318,8640,7,-1719,-4714,23,-43,-19,17
319,8638,13,-1715,-4713,23,-44,-20,17
320,8638,17,-1719,-4716,23,-44,-20,16
321,8638,13,-1721,-4714,23,-44,-19,16
322,8635,9,-1719,-4712,23,-44,-19,17
323,8632,6,-1716,-4712,23,-44,-19,17
324,8635,3,-1720,-4713,23,-44,-20,17
325,8631,-1,-1718,-4713,23,-44,-19,17
326,8634,-2,-1718,-4714,23,-43,-19,17
327,8632,-2,-1722,-4713,23,-44,-19,17
328,8632,3,-1718,-4713,23,-44,-19,17
329,8632,7,-1719,-4713,23,-44,-19,17
330,8629,7,-1718,-4712,23,-44,-19,17
331,8636,6,-1712,-4712,23,-44,-19,17
332,8637,8,-1710,-4714,23,-44,-19,17
333,8636,7,-1707,-4714,23,-44,-19,17
334,8638,4,-1701,-4716,23,-44,-19,17
335,8637,8,-1701,-4716,23,-44,-19,17
336,8639,7,-1708,-4715,23,-44,-19,17
337,8640,7,-1714,-4716,23,-44,-19,17
338,8643,9,-1712,-4714,23,-44,-19,17
339,8646,11,-1716,-4713,23,-43,-20,17
340,8638,11,-1715,-4713,23,-43,-19,17
341,8642,10,-1715,-4712,23,-43,-19,17
342,8635,7,-1714,-4712,23,-43,-20,17
343,8638,6,-1717,-4712,23,-43,-20,17
344,8640,8,-1708,-4712,23,-43,-20,17
345,8641,8,-1708,-4711,23,-43,-20,17
346,8636,8,-1703,-4710,23,-43,-20,17
347,8635,10,-1709,-4712,23,-43,-19,17
348,8632,13,-1706,-4711,23,-43,-19,17
349,8636,11,-1710,-4712,23,-43,-19,17
350,8635,10,-1714,-4712,23,-43,-19,17
351,8634,10,-1713,-4712,23,-43,-19,17
352,8635,7,-1712,-4712,23,-43,-19,17
353,8635,10,-1707,-4713,23,-43,-20,17
354,8636,10,-1714,-4712,23,-44,-20,17
355,8630,10,-1711,-4714,23,-44,-20,17
356,8631,2,-1711,-4712,23,-44,-20,17
357,8634,0,-1710,-4710,23,-44,-19,17
358,8632,1,-1708,-4711,23,-43,-19,17
359,8633,3,-1715,-4710,23,-43,-19,17
360,8637,6,-1719,-4710,23,-43,-19,17
361,8637,3,-1721,-4711,23,-43,-19,17
362,8636,6,-1726,-4710,23,-44,-19,17
363,8636,6,-1727,-4709,23,-44,-19,17
364,8636,7,-1727,-4707,23,-44,-19,17
365,8634,2,-1726,-4707,23,-43,-19,17
366,8635,5,-1720,-4709,23,-43,-19,17
367,8637,1,-1721,-4707,23,-43,-19,17
368,8636,7,-1717,-4707,23,-44,-19,17
369,8638,8,-1716,-4707,23,-44,-19,17
370,8637,2,-1712,-4708,23,-44,-19,17
371,8639,2,-1707,-4708,23,-44,-19,17
372,8638,2,-1711,-4709,23,-44,-19,17
373,8637,2,-1711,-4707,23,-43,-19,17
374,8639,1,-1714,-4708,23,-44,-19,18
375,8638,4,-1718,-4708,23,-43,-19,17
376,8639,6,-1719,-4709,23,-43,-19,17
377,8639,7,-1712,-4709,23,-43,-20,17
378,8637,8,-1714,-4710,23,-44,-19,17
379,8634,9,-1712,-4709,23,-44,-19,17
380,8634,11,-1707,-4709,23,-44,-19,17
381,8635,8,-1709,-4708,23,-44,-19,17
382,8638,11,-1716,-4710,23,-44,-19,17
383,8636,5,-1718,-4709,23,-44,-19,17
384,8638,3,-1719,-4709,23,-44,-19,17
385,8636,5,-1720,-4709,23,-44,-19,17
386,8635,4,-1723,-4710,23,-44,-19,17
387,8631,2,-1719,-4710,23,-44,-19,17
388,8634,5,-1722,-4709,23,-44,-19,17
389,8638,10,-1728,-4709,23,-44,-19,17
390,8638,10,-1719,-4709,23,-44,-19,17
391,8634,12,-1717,-4709,23,-44,-19,17
392,8637,11,-1712,-4708,23,-44,-19,17
393,8642,9,-1709,-4706,23,-44,-20,17
394,8640,10,-1709,-4706,23,-44,-19,17
395,8638,6,-1719,-4707,23,-44,-19,17
396,8636,5,-1722,-4708,23,-43,-19,17
397,8636,9,-1726,-4710,23,-43,-19,17
398,8637,9,-1723,-4711,23,-44,-19,17
399,8641,7,-1724,-4710,23,-43,-19,17
400,8641,4,-1722,-4710,23,-43,-20,17
401,8644,1,-1722,-4709,23,-44,-20,17
402,8639,-1,-1727,-4708,23,-44,-20,17
403,8636,-2,-1717,-4707,23,-44,-20,17
404,8637,2,-1716,-4707,23,-44,-20,17
405,8637,-1,-1721,-4707,23,-44,-20,17
406,8633,-2,-1726,-4707,23,-44,-20,17
407,8636,-2,-1724,-4708,23,-44,-20,18
408,8637,1,-1720,-4706,23,-44,-19,17
409,8641,4,-1720,-4706,23,-44,-19,17
410,8643,4,-1721,-4706,23,-44,-19,17
411,8639,6,-1715,-4708,23,-44,-20,17
412,8639,9,-1712,-4709,23,-44,-19,17
413,8641,11,-1716,-4708,23,-44,-19,17
414,8636,10,-1715,-4707,23,-44,-19,17
415,8637,3,-1710,-4707,23,-43,-20,17
416,8638,3,-1707,-4708,23,-43,-20,17
417,8637,8,-1703,-4707,23,-44,-20,17
418,8641,12,-1704,-4706,23,-44,-20,17
419,8637,8,-1704,-4706,23,-44,-20,17
420,8634,8,-1703,-4706,23,-44,-19,17
421,8634,5,-1706,-4707,23,-44,-19,17
422,8632,0,-1710,-4708,23,-44,-19,17
423,8632,3,-1710,-4707,23,-44,-19,17
424,8629,3,-1712,-4707,23,-44,-19,17
425,8634,2,-1707,-4707,23,-44,-19,17
426,8633,-1,-1716,-4706,23,-44,-19,17
427,8631,-1,-1720,-4707,23,-44,-19,17
428,8629,0,-1722,-4707,23,-44,-19,17
429,8633,-1,-1722,-4709,23,-44,-19,17
430,8636,1,-1722,-4709,23,-44,-19,17
431,8639,0,-1713,-4707,23,-44,-19,17
432,8642,1,-1711,-4708,23,-44,-20,17
433,8636,-2,-1719,-4709,23,-44,-20,17
434,8635,-4,-1711,-4708,23,-43,-20,17
435,8638,-5,-1707,-4707,23,-44,-20,17
436,8638,-10,-1708,-4707,23,-44,-20,17
437,8638,-8,-1706,-4708,23,-44,-20,17
438,8642,-3,-1713,-4707,23,-44,-20,17
439,8645,-3,-1716,-4708,23,-44,-20,17
440,8640,-3,-1717,-4707,23,-44,-20,17
441,8639,-1,-1714,-4708,23,-44,-20,17
442,8644,4,-1709,-4708,23,-44,-19,17
443,8639,2,-1707,-4708,23,-44,-19,17
444,8638,0,-1712,-4710,23,-44,-19,17
445,8638,-2,-1712,-4711,23,-44,-20,17
446,8633,0,-1716,-4710,23,-44,-20,17
447,8633,3,-1712,-4709,23,-44,-19,17
448,8636,0,-1719,-4707,23,-44,-19,17
449,8634,2,-1722,-4709,23,-44,-20,17
450,8636,-1,-1723,-4708,23,-43,-19,17
451,8634,-1,-1717,-4709,23,-44,-19,17
452,8631,-1,-1726,-4709,23,-43,-19,17
453,8631,-2,-1727,-4710,23,-43,-19,17
454,8637,-3,-1719,-4710,23,-43,-20,17
455,8635,-1,-1718,-4709,23,-43,-20,17
456,8633,1,-1714,-4710,23,-44,-20,17
457,8627,4,-1714,-4709,23,-44,-20,17
458,8629,7,-1715,-4709,23,-44,-20,17
459,8633,5,-1722,-4707,23,-44,-19,17
460,8636,8,-1716,-4708,23,-44,-19,17
461,8634,12,-1718,-4709,23,-43,-20,17
462,8636,9,-1714,-4708,23,-43,-20,17
463,8639,8,-1719,-4708,23,-44,-19,17
464,8638,9,-1718,-4708,23,-44,-19,17
465,8637,8,-1720,-4709,23,-44,-19,17
466,8637,5,-1721,-4710,23,-44,-19,17
467,8638,7,-1712,-4711,23,-44,-19,17
468,8633,12,-1709,-4711,23,-44,-19,17
469,8638,4,-1708,-4710,23,-44,-19,17
470,8641,0,-1708,-4711,23,-44,-19,17
471,8641,1,-1712,-4710,23,-43,-19,17
472,8640,3,-1709,-4709,23,-44,-19,17
473,8636,2,-1710,-4709,23,-44,-19,17
474,8639,4,-1704,-4709,23,-44,-19,17
475,8636,5,-1705,-4710,23,-43,-19,17
476,8636,1,-1708,-4708,23,-43,-19,17
477,8636,1,-1706,-4708,23,-43,-20,17
478,8634,2,-1711,-4708,23,-43,-20,17
479,8634,-1,-1716,-4706,23,-43,-20,17
480,8642,2,-1720,-4708,23,-43,-20,17
481,8639,8,-1722,-4708,23,-44,-19,17
482,8638,7,-1722,-4709,23,-43,-19,17
483,8638,4,-1720,-4708,23,-43,-19,17
484,8636,10,-1719,-4710,23,-44,-19,17
485,8635,11,-1718,-4708,23,-44,-19,17
486,8636,9,-1717,-4710,23,-44,-19,17
487,8638,6,-1709,-4709,23,-43,-19,17
488,8641,5,-1714,-4710,23,-44,-19,17
489,8640,7,-1713,-4709,23,-44,-19,17
490,8639,9,-1715,-4710,23,-44,-19,17
491,8639,6,-1711,-4708,23,-44,-19,17
492,8640,3,-1713,-4709,23,-44,-19,17
493,8639,2,-1714,-4711,23,-44,-19,17
494,8638,2,-1716,-4710,23,-44,-19,17
495,8641,5,-1712,-4711,23,-44,-19,17
496,8635,5,-1713,-4711,23,-44,-19,17
497,8633,7,-1721,-4709,23,-44,-19,17
498,8635,6,-1717,-4711,23,-44,-19,17
499,8638,-1,-1718,-4709,23,-44,-19,17
500,8641,-1,-1715,-4710,23,-43,-19,17
501,8637,1,-1720,-4709,23,-44,-19,17
502,8637,4,-1725,-4709,23,-44,-19,17
503,8637,-1,-1727,-4710,23,-43,-20,17
504,8639,3,-1728,-4711,23,-44,-19,16
505,8640,2,-1728,-4711,23,-44,-20,17
506,8638,4,-1723,-4711,23,-44,-20,17
507,8639,-2,-1720,-4711,23,-44,-20,17
508,8637,4,-1720,-4708,23,-44,-19,17
509,8637,4,-1716,-4710,23,-44,-19,17
510,8633,7,-1717,-4711,23,-44,-19,17
511,8633,7,-1718,-4711,23,-44,-19,17
512,8630,9,-1718,-4709,23,-44,-19,17
513,8630,9,-1723,-4709,23,-43,-19,17
514,8629,9,-1719,-4710,23,-43,-19,17
515,8627,10,-1718,-4711,23,-43,-20,17
516,8631,14,-1707,-4712,23,-44,-19,17
517,8630,13,-1709,-4713,23,-43,-19,17
518,8631,11,-1706,-4712,23,-43,-19,17
519,8630,4,-1710,-4710,23,-43,-19,17
520,8633,5,-1710,-4710,23,-43,-19,17
521,8635,9,-1708,-4711,23,-43,-19,17
522,8635,8,-1708,-4712,23,-44,-19,17
523,8640,11,-1713,-4711,23,-44,-19,17
524,8637,10,-1712,-4709,23,-44,-19,17
525,8634,5,-1711,-4708,23,-44,-19,17
526,8632,3,-1707,-4709,23,-43,-19,17
527,8635,2,-1711,-4709,23,-43,-19,17
528,8638,6,-1718,-4709,23,-43,-20,17
529,8630,8,-1715,-4709,23,-43,-19,17
530,8633,8,-1713,-4707,23,-43,-19,17
531,8634,9,-1714,-4707,23,-43,-19,17
532,8637,6,-1714,-4707,23,-43,-19,17
533,8638,4,-1714,-4708,23,-43,-19,17
534,8640,5,-1724,-4707,23,-43,-19,17
535,8636,5,-1726,-4707,23,-43,-19,17
536,8638,6,-1722,-4707,23,-44,-19,17
537,8641,0,-1718,-4706,23,-44,-19,17
538,8642,4,-1712,-4705,23,-44,-20,17
539,8639,7,-1710,-4703,23,-44,-19,17
540,8635,3,-1710,-4703,23,-43,-19,17
541,8632,3,-1712,-4703,23,-43,-19,17
542,8633,5,-1711,-4705,23,-43,-19,17
543,8633,6,-1720,-4705,23,-43,-19,17
544,8635,8,-1721,-4705,23,-43,-20,17
545,8632,4,-1717,-4704,23,-43,-19,17
546,8633,5,-1723,-4705,23,-44,-19,17
547,8636,10,-1723,-4706,23,-44,-20,17
548,8639,17,-1727,-4706,23,-44,-20,17
549,8642,19,-1724,-4707,23,-44,-20,17
550,8641,14,-1723,-4706,23,-44,-20,17
551,8644,9,-1717,-4707,23,-44,-20,16
552,8642,4,-1722,-4706,23,-44,-20,17
553,8638,2,-1724,-4707,23,-44,-20,16
554,8631,3,-1724,-4705,23,-44,-20,16
555,8634,7,-1714,-4705,23,-44,-20,16
556,8633,3,-1712,-4704,23,-44,-20,16
557,8628,1,-1711,-4705,23,-43,-19,17
558,8630,7,-1718,-4705,23,-43,-19,17
559,8631,5,-1725,-4706,23,-43,-19,17
560,8632,4,-1730,-4706,23,-43,-19,17
561,8633,7,-1730,-4703,23,-43,-20,17
562,8635,1,-1723,-4704,23,-43,-19,17
563,8633,2,-1713,-4704,23,-44,-19,17
564,8633,-2,-1718,-4704,23,-44,-19,17
565,8637,5,-1713,-4706,23,-44,-19,17
566,8635,7,-1712,-4705,23,-43,-19,17
567,8638,6,-1713,-4706,23,-44,-19,17
568,8639,8,-1712,-4706,23,-44,-19,17
569,8635,11,-1718,-4704,23,-43,-19,17
570,8634,8,-1714,-4703,23,-44,-19,17
571,8630,3,-1716,-4704,23,-43,-19,17
572,8631,1,-1711,-4704,23,-43,-19,17
573,8636,-2,-1707,-4706,23,-44,-19,16
574,8636,-7,-1706,-4705,23,-44,-19,17
575,8637,3,-1711,-4705,23,-43,-19,17
576,8635,3,-1713,-4705,23,-44,-19,17
577,8632,6,-1712,-4706,23,-44,-19,17
578,8635,6,-1717,-4704,23,-44,-19,17
579,8637,5,-1713,-4706,23,-44,-19,17
580,8636,9,-1713,-4708,23,-44,-19,17
581,8636,11,-1714,-4709,23,-44,-19,17
582,8631,13,-1719,-4711,23,-44,-19,17
583,8632,12,-1728,-4709,23,-44,-19,17
584,8632,11,-1733,-4710,23,-44,-19,17
585,8638,9,-1735,-4708,23,-44,-19,17
586,8636,10,-1727,-4706,23,-44,-19,17
587,8636,9,-1722,-4706,23,-44,-19,17
588,8633,11,-1720,-4705,23,-44,-19,17
589,8632,9,-1712,-4704,23,-44,-19,17
590,8631,9,-1714,-4706,23,-44,-20,17
591,8631,7,-1714,-4706,23,-43,-20,17
592,8628,0,-1712,-4703,23,-44,-20,17
593,8628,1,-1715,-4702,23,-44,-20,17
594,8628,2,-1718,-4703,23,-44,-19,17
595,8625,3,-1712,-4702,23,-44,-19,17
596,8624,1,-1720,-4703,23,-44,-19,17
597,8626,2,-1721,-4708,23,-44,-19,17
598,8633,3,-1722,-4707,23,-43,-19,17
599,8636,4,-1717,-4706,23,-43,-19,17
600,8633,0,-1714,-4705,23,-43,-19,17
601,8631,3,-1716,-4704,23,-43,-19,17
602,8636,10,-1722,-4705,23,-43,-19,17
603,8635,5,-1724,-4706,23,-43,-20,17
604,8630,4,-1727,-4706,23,-43,-20,17
605,8630,3,-1727,-4706,23,-44,-20,17
606,8637,0,-1724,-4705,23,-44,-19,17
607,8639,4,-1725,-4704,23,-44,-19,17
608,8637,4,-1722,-4704,23,-44,-20,17
609,8636,4,-1713,-4704,23,-44,-20,17
610,8637,6,-1707,-4706,23,-44,-20,17
611,8637,7,-1701,-4707,23,-44,-19,17
612,8635,3,-1695,-4707,23,-44,-19,17
613,8634,1,-1692,-4707,23,-44,-19,17
614,8632,-1,-1703,-4706,23,-44,-20,17
615,8630,-1,-1709,-4707,23,-44,-20,17
616,8630,0,-1706,-4707,23,-44,-19,17
617,8628,4,-1711,-4707,23,-44,-19,17
618,8629,4,-1713,-4707,23,-44,-19,17
619,8633,1,-1713,-4706,23,-44,-20,17
620,8633,-1,-1708,-4706,23,-44,-19,17
621,8634,-2,-1711,-4707,23,-44,-19,17
622,8632,-4,-1713,-4704,23,-44,-19,17
623,8631,-1,-1714,-4704,23,-44,-19,16
624,8632,0,-1715,-4704,23,-44,-19,17
625,8634,0,-1719,-4704,23,-44,-20,17
626,8637,-5,-1714,-4704,23,-44,-19,17
627,8639,-4,-1710,-4704,23,-44,-19,17
628,8639,1,-1714,-4706,23,-44,-19,17
629,8642,1,-1714,-4706,23,-44,-19,17
630,8639,0,-1711,-4705,23,-44,-19,17
631,8643,2,-1716,-4705,23,-44,-19,17
632,8644,0,-1713,-4705,23,-44,-19,17
633,8641,2,-1714,-4705,23,-44,-20,17
634,8642,8,-1713,-4706,23,-44,-20,17
635,8638,7,-1715,-4704,23,-44,-20,17
636,8631,9,-1712,-4703,23,-44,-20,17
637,8635,8,-1713,-4703,23,-44,-20,17
638,8635,10,-1714,-4704,23,-44,-19,17
639,8635,10,-1719,-4705,23,-43,-19,17
640,8632,7,-1722,-4706,23,-44,-19,17
641,8635,2,-1713,-4705,23,-44,-19,17
642,8632,1,-1716,-4705,23,-44,-19,17
643,8633,5,-1708,-4705,23,-44,-19,17
644,8635,5,-1701,-4706,23,-44,-19,17
645,8637,0,-1699,-4706,23,-44,-19,17
646,8636,2,-1708,-4707,23,-44,-19,17
647,8631,2,-1710,-4705,23,-43,-19,17
648,8634,4,-1705,-4707,23,-44,-19,17
649,8633,-3,-1701,-4706,23,-44,-20,17
650,8638,-4,-1707,-4705,23,-44,-20,17
651,8642,-1,-1713,-4705,23,-44,-20,17
652,8640,1,-1718,-4703,23,-43,-19,17
653,8639,4,-1721,-4703,23,-44,-20,17
654,8640,6,-1715,-4702,23,-44,-20,17
655,8640,3,-1715,-4702,23,-44,-19,17
656,8640,5,-1711,-4701,23,-44,-19,17
657,8637,4,-1706,-4701,23,-44,-19,17
658,8636,7,-1712,-4702,23,-43,-20,17
659,8636,4,-1708,-4703,23,-44,-20,17
660,8633,0,-1712,-4704,23,-44,-20,17
661,8634,3,-1710,-4704,23,-44,-20,17
662,8632,4,-1712,-4705,23,-44,-20,17
663,8628,4,-1705,-4705,23,-44,-20,17
664,8626,2,-1710,-4704,23,-44,-19,17
665,8628,1,-1714,-4701,23,-43,-19,17
666,8628,6,-1711,-4702,23,-43,-20,17
667,8629,4,-1708,-4702,23,-43,-19,17
668,8630,6,-1714,-4703,23,-43,-19,17
669,8627,7,-1720,-4703,23,-44,-19,17
670,8627,8,-1719,-4704,23,-43,-19,17
671,8633,5,-1715,-4704,23,-43,-19,17
672,8632,2,-1713,-4705,23,-44,-19,17
673,8631,0,-1713,-4705,23,-43,-19,17
674,8629,-1,-1718,-4705,23,-44,-19,17
675,8627,2,-1713,-4705,23,-43,-19,17
676,8628,4,-1716,-4705,23,-43,-19,17
677,8631,5,-1717,-4705,23,-44,-19,16
678,8627,0,-1713,-4705,23,-44,-19,17
679,8626,-2,-1710,-4704,23,-44,-19,16
680,8630,-1,-1706,-4705,23,-44,-19,16
681,8633,-1,-1710,-4704,23,-44,-19,17
682,8632,1,-1714,-4703,23,-44,-19,17
683,8633,1,-1714,-4704,23,-43,-19,16
684,8627,3,-1717,-4704,23,-43,-19,16
685,8624,3,-1720,-4703,23,-44,-19,16
686,8626,3,-1719,-4702,23,-44,-19,16
687,8631,1,-1722,-4704,23,-43,-19,17
688,8628,-1,-1722,-4703,23,-44,-19,17
689,8628,2,-1716,-4703,23,-43,-19,17
690,8633,1,-1712,-4702,23,-43,-19,17
691,8634,2,-1710,-4702,23,-43,-19,17
692,8631,-1,-1710,-4702,23,-43,-19,17
693,8627,-5,-1710,-4704,23,-43,-19,17
694,8630,-2,-1714,-4705,23,-44,-20,17
695,8634,-1,-1708,-4705,23,-44,-19,17
696,8632,3,-1713,-4704,23,-44,-20,17
697,8630,3,-1716,-4705,23,-44,-20,17
698,8635,2,-1712,-4704,23,-44,-20,17
699,8635,6,-1705,-4705,23,-44,-19,17
700,8634,7,-1710,-4704,23,-44,-19,17
701,8638,6,-1717,-4703,23,-44,-19,17
702,8642,8,-1716,-4703,23,-44,-19,17
703,8644,8,-1712,-4704,23,-44,-19,17
704,8641,5,-1714,-4704,23,-44,-19,17
705,8637,0,-1710,-4703,23,-44,-19,17
706,8641,7,-1713,-4702,23,-44,-19,17
707,8643,9,-1717,-4703,23,-44,-20,17
708,8641,11,-1708,-4703,23,-44,-19,17
709,8642,7,-1710,-4705,23,-44,-19,17
710,8636,13,-1710,-4703,23,-44,-19,17
711,8637,10,-1713,-4702,23,-44,-19,17
712,8633,9,-1706,-4704,23,-43,-19,17
713,8640,9,-1710,-4701,23,-43,-19,17
714,8635,7,-1711,-4701,23,-43,-19,17
715,8636,9,-1712,-4701,23,-44,-19,17
716,8633,8,-1712,-4700,23,-44,-19,17
717,8632,2,-1718,-4702,23,-44,-20,17
718,8634,4,-1720,-4703,23,-43,-20,17
719,8637,6,-1716,-4703,23,-44,-20,17
720,8638,3,-1724,-4702,23,-43,-19,17
721,8637,2,-1721,-4702,23,-44,-19,17
722,8636,4,-1718,-4704,23,-44,-19,17
723,8633,4,-1718,-4704,23,-44,-19,17
724,8632,5,-1717,-4706,23,-44,-19,17
725,8634,4,-1721,-4705,23,-44,-19,17
726,8633,7,-1726,-4705,23,-43,-19,17
727,8634,4,-1721,-4704,23,-43,-19,17
728,8639,2,-1717,-4704,23,-43,-19,17
729,8638,4,-1709,-4705,23,-44,-19,17
730,8637,4,-1706,-4706,23,-44,-19,17
731,8635,5,-1707,-4705,23,-44,-19,17
732,8637,3,-1711,-4706,23,-44,-19,17
733,8639,5,-1713,-4704,23,-44,-19,17
734,8636,4,-1714,-4705,23,-44,-19,17
735,8632,-1,-1717,-4705,23,-43,-19,17
736,8631,-2,-1714,-4704,23,-43,-19,17
737,8630,2,-1708,-4704,23,-44,-19,17
738,8632,3,-1709,-4705,23,-43,-19,17
739,8629,3,-1707,-4704,23,-43,-19,17
740,8634,-1,-1707,-4705,23,-43,-19,17
741,8633,5,-1707,-4706,23,-44,-19,17
742,8631,4,-1706,-4707,23,-43,-19,17
743,8633,1,-1712,-4703,23,-43,-19,17
744,8634,3,-1717,-4703,23,-43,-19,17
745,8634,7,-1709,-4702,23,-44,-19,17
746,8626,8,-1705,-4701,23,-44,-19,17
747,8629,11,-1709,-4701,23,-44,-19,17
748,8626,8,-1709,-4698,23,-44,-19,17
749,8634,1,-1717,-4698,23,-44,-19,17
750,8636,5,-1720,-4699,23,-44,-19,17
751,8636,4,-1720,-4700,23,-44,-19,18
752,8637,5,-1719,-4700,23,-44,-19,17
753,8634,3,-1719,-4701,23,-44,-20,17
754,8631,0,-1720,-4701,23,-44,-19,17
755,8631,4,-1720,-4702,23,-44,-19,17
756,8635,4,-1725,-4703,23,-43,-19,17
757,8635,5,-1723,-4703,23,-43,-19,17
758,8633,4,-1716,-4703,23,-44,-19,17
759,8638,4,-1715,-4703,23,-44,-19,17
760,8635,0,-1718,-4702,23,-44,-19,17
761,8638,2,-1719,-4703,23,-44,-19,17
762,8638,7,-1717,-4705,23,-44,-19,17
763,8641,6,-1714,-4703,23,-44,-19,17
764,8638,4,-1718,-4700,23,-44,-19,17
765,8637,0,-1715,-4701,23,-44,-19,18
766,8637,-5,-1709,-4702,23,-43,-19,18
767,8636,0,-1711,-4704,23,-43,-19,18
768,8644,0,-1722,-4704,23,-43,-19,17
769,8641,2,-1717,-4703,23,-43,-19,17
770,8644,0,-1722,-4704,23,-43,-19,18
771,8641,6,-1721,-4703,23,-43,-19,18
772,8637,6,-1718,-4705,23,-44,-19,18
773,8638,3,-1715,-4702,23,-43,-19,18
774,8635,0,-1715,-4704,23,-43,-19,18
775,8639,-1,-1718,-4702,23,-44,-19,17
776,8636,2,-1719,-4700,23,-43,-19,17
777,8637,2,-1717,-4699,23,-43,-19,17
778,8641,2,-1722,-4698,23,-44,-19,17
779,8637,7,-1716,-4700,23,-43,-19,17
780,8631,13,-1717,-4702,23,-43,-19,17
781,8625,14,-1714,-4702,23,-43,-19,17
782,8625,9,-1713,-4701,23,-44,-19,17
783,8626,12,-1712,-4702,23,-44,-19,17
784,8627,10,-1711,-4703,23,-44,-19,17
785,8630,13,-1710,-4703,23,-44,-19,17
786,8634,11,-1718,-4704,23,-44,-19,17
787,8636,9,-1715,-4703,23,-44,-19,17
788,8637,9,-1711,-4703,23,-44,-19,17
789,8634,10,-1707,-4704,23,-43,-19,17
790,8634,10,-1709,-4704,23,-43,-19,17
791,8635,9,-1706,-4704,23,-43,-19,17
792,8640,10,-1705,-4704,23,-43,-19,17
793,8641,8,-1709,-4704,23,-43,-19,17
794,8639,4,-1706,-4705,23,-43,-19,17
795,8635,3,-1703,-4706,23,-44,-19,17
796,8631,7,-1709,-4707,23,-44,-19,17
797,8632,5,-1713,-4707,23,-43,-19,17
798,8638,4,-1712,-4706,23,-43,-19,17
799,8639,6,-1718,-4704,23,-43,-19,17
800,8640,2,-1708,-4703,23,-43,-20,17
801,8642,-2,-1709,-4703,23,-43,-19,17
802,8646,-3,-1713,-4703,23,-43,-19,17
803,8641,2,-1714,-4703,23,-43,-19,17
804,8639,-3,-1712,-4702,23,-43,-19,17
805,8637,-5,-1712,-4701,23,-43,-19,17
806,8640,-6,-1711,-4701,23,-43,-19,17
807,8641,-3,-1720,-4703,23,-44,-19,17
808,8638,-2,-1716,-4703,23,-44,-19,17
809,8635,4,-1722,-4702,23,-44,-19,17
810,8639,10,-1719,-4704,23,-43,-19,17
811,8635,7,-1714,-4704,23,-44,-20,17
812,8635,9,-1712,-4702,23,-44,-20,17
813,8635,12,-1710,-4702,23,-43,-19,17
814,8636,8,-1721,-4702,23,-43,-19,17
815,8634,8,-1717,-4702,23,-43,-20,17
816,8638,6,-1716,-4703,23,-43,-20,17
817,8639,5,-1711,-4703,23,-43,-19,17
818,8637,6,-1710,-4705,23,-43,-19,17
819,8634,4,-1715,-4703,23,-44,-19,17
820,8633,3,-1711,-4703,23,-44,-19,17
821,8633,7,-1710,-4702,23,-44,-19,17
822,8631,6,-1713,-4701,23,-44,-19,17
823,8634,13,-1717,-4701,23,-44,-19,17
824,8635,10,-1723,-4701,23,-44,-19,17
825,8639,6,-1714,-4700,23,-44,-19,17
826,8635,5,-1707,-4701,23,-44,-19,17
827,8638,6,-1706,-4703,23,-44,-19,17
828,8639,4,-1708,-4703,23,-44,-19,17
829,8639,6,-1706,-4704,23,-44,-19,17
830,8640,8,-1706,-4704,23,-44,-19,17
831,8643,12,-1711,-4703,23,-43,-19,17
832,8642,11,-1713,-4703,23,-43,-19,17
833,8640,10,-1717,-4704,23,-43,-19,16
834,8639,10,-1708,-4705,23,-44,-19,17
835,8635,6,-1710,-4706,23,-44,-19,17
836,8637,5,-1716,-4705,23,-44,-19,17
837,8637,2,-1715,-4705,23,-43,-19,17
838,8636,3,-1706,-4705,23,-43,-19,17
839,8644,6,-1709,-4702,23,-43,-19,17
840,8641,3,-1710,-4702,23,-43,-19,17
841,8640,1,-1705,-4701,23,-44,-19,17
842,8642,4,-1708,-4703,23,-43,-19,17
843,8646,5,-1711,-4705,23,-43,-19,17
844,8643,5,-1710,-4704,23,-43,-19,17
845,8636,9,-1714,-4706,23,-43,-19,17
846,8636,4,-1709,-4705,23,-43,-19,17
847,8635,7,-1717,-4704,23,-43,-19,17
848,8634,5,-1716,-4705,23,-43,-19,17
849,8632,4,-1716,-4703,23,-43,-19,17
850,8636,9,-1712,-4705,23,-44,-19,17
851,8635,11,-1715,-4705,23,-43,-19,17
852,8634,11,-1714,-4704,23,-43,-19,17
853,8637,11,-1712,-4704,23,-44,-19,17
854,8637,11,-1708,-4704,23,-43,-20,17
855,8638,7,-1702,-4703,23,-44,-20,17
856,8642,4,-1706,-4703,23,-44,-20,17
857,8641,6,-1697,-4702,23,-44,-20,17
858,8642,8,-1701,-4703,23,-44,-20,17
859,8645,10,-1708,-4701,23,-44,-20,17
860,8639,9,-1707,-4702,23,-44,-20,17
861,8639,10,-1707,-4701,23,-44,-20,17
862,8638,13,-1698,-4701,23,-43,-20,17
863,8634,16,-1707,-4701,23,-43,-19,17
864,8636,12,-1701,-4700,23,-44,-19,17
865,8637,13,-1706,-4700,23,-43,-19,17
866,8637,13,-1706,-4702,23,-43,-19,17
867,8640,11,-1702,-4700,23,-43,-19,17
868,8644,8,-1703,-4699,23,-43,-19,17
869,8641,8,-1700,-4699,23,-43,-19,17
870,8634,6,-1700,-4700,23,-43,-20,17
871,8634,7,-1701,-4700,23,-44,-19,17
872,8635,2,-1703,-4701,23,-44,-19,17
873,8634,0,-1702,-4702,23,-43,-20,17
874,8633,6,-1695,-4702,23,-43,-20,17
875,8631,3,-1703,-4703,23,-43,-19,17
876,8633,3,-1709,-4703,23,-43,-20,17
877,8634,6,-1704,-4702,23,-43,-20,17
878,8634,1,-1712,-4700,23,-43,-20,17
879,8635,3,-1712,-4701,23,-43,-20,17
880,8632,3,-1712,-4699,23,-43,-20,17
881,8629,4,-1708,-4699,23,-43,-20,17
882,8636,-2,-1706,-4699,23,-44,-20,17
883,8641,0,-1708,-4699,23,-44,-20,17
884,8646,1,-1703,-4698,23,-44,-20,17
885,8646,7,-1702,-4698,23,-44,-20,17
886,8650,6,-1708,-4698,23,-43,-20,17
887,8647,6,-1711,-4697,23,-44,-20,17
888,8643,5,-1711,-4697,23,-44,-20,17
889,8645,6,-1714,-4697,23,-44,-20,17
890,8642,-1,-1714,-4699,23,-44,-20,17
891,8639,0,-1716,-4701,23,-44,-19,17
892,8636,3,-1717,-4700,23,-43,-19,17
893,8640,8,-1714,-4702,23,-44,-19,17
894,8639,5,-1715,-4702,23,-44,-19,17
895,8637,4,-1712,-4701,23,-44,-19,17
896,8637,2,-1714,-4700,23,-43,-19,17
897,8638,1,-1721,-4702,23,-44,-19,17
898,8640,4,-1719,-4702,23,-44,-19,17
899,8642,7,-1717,-4703,23,-44,-19,17
900,8639,5,-1722,-4702,23,-43,-19,17
901,8636,5,-1727,-4702,23,-43,-19,17
902,8639,2,-1726,-4703,23,-43,-19,17
903,8647,1,-1725,-4702,23,-43,-19,17
904,8642,5,-1717,-4702,23,-43,-19,17
905,8640,6,-1716,-4701,23,-43,-20,17
906,8637,7,-1709,-4702,23,-43,-20,17
907,8639,10,-1712,-4701,23,-44,-20,17
908,8640,5,-1710,-4703,23,-44,-20,17
909,8639,1,-1709,-4703,23,-44,-19,17
910,8638,0,-1706,-4702,23,-44,-19,17
911,8637,-1,-1705,-4701,23,-44,-19,17
912,8635,3,-1711,-4702,23,-44,-19,17
913,8635,5,-1705,-4702,23,-44,-19,17
914,8636,3,-1713,-4703,23,-44,-19,17
915,8639,2,-1714,-4704,23,-43,-19,17
916,8635,1,-1713,-4704,23,-43,-19,17
917,8638,3,-1710,-4704,23,-44,-19,17
918,8641,3,-1713,-4703,23,-44,-20,17
919,8636,5,-1717,-4704,23,-44,-19,17
920,8632,10,-1717,-4701,23,-44,-20,17
921,8631,9,-1711,-4700,23,-44,-20,17
922,8633,9,-1707,-4700,23,-44,-20,17
923,8634,5,-1715,-4702,23,-44,-20,17
924,8632,8,-1713,-4702,23,-44,-20,17
925,8630,5,-1712,-4702,23,-44,-20,17
926,8635,10,-1711,-4701,23,-43,-20,17
927,8637,7,-1707,-4700,23,-43,-20,17
928,8635,4,-1705,-4701,23,-43,-20,17
929,8634,3,-1708,-4700,23,-43,-20,17
930,8633,0,-1711,-4701,23,-43,-20,17
931,8637,-4,-1709,-4699,23,-43,-20,17
932,8641,3,-1711,-4699,23,-44,-19,17
933,8640,3,-1706,-4699,23,-44,-19,17
934,8638,2,-1711,-4700,23,-44,-19,17
935,8636,4,-1711,-4700,23,-44,-19,17
936,8635,7,-1715,-4701,23,-44,-19,17
937,8640,9,-1711,-4703,23,-44,-19,17
938,8640,5,-1713,-4702,23,-44,-19,17
939,8643,2,-1714,-4703,23,-44,-19,17
940,8644,2,-1714,-4704,23,-44,-19,17
941,8642,1,-1716,-4706,23,-44,-19,17
942,8642,2,-1722,-4704,23,-44,-20,17
943,8643,5,-1718,-4704,23,-44,-20,17
944,8640,2,-1714,-4703,23,-44,-19,17
945,8639,3,-1713,-4703,23,-44,-19,17
946,8636,0,-1711,-4701,23,-44,-20,17
947,8638,4,-1713,-4701,23,-44,-20,17
948,8637,4,-1710,-4701,23,-44,-20,17
949,8636,10,-1716,-4701,23,-43,-20,17
950,8637,5,-1713,-4703,23,-43,-20,17
951,8638,4,-1715,-4704,23,-44,-20,17
952,8636,7,-1719,-4704,23,-43,-20,17
953,8640,8,-1714,-4703,23,-43,-20,17
954,8638,6,-1709,-4704,23,-43,-20,17
955,8638,7,-1707,-4704,23,-43,-20,17
956,8636,7,-1704,-4704,23,-43,-20,17
957,8637,5,-1704,-4702,23,-43,-20,17
958,8641,12,-1703,-4702,23,-44,-20,17
959,8635,10,-1701,-4704,23,-43,-20,17
960,8632,7,-1698,-4701,23,-44,-20,17
961,8631,6,-1696,-4703,23,-44,-20,17
962,8628,10,-1694,-4703,23,-43,-19,17
963,8629,8,-1700,-4703,23,-44,-20,17
964,8630,7,-1707,-4704,23,-44,-20,17
965,8633,5,-1708,-4704,23,-44,-20,17
966,8628,9,-1705,-4703,23,-44,-20,17
967,8633,8,-1708,-4703,23,-44,-20,17
968,8636,9,-1702,-4703,23,-44,-20,17
969,8637,11,-1701,-4703,23,-44,-20,17
970,8632,14,-1700,-4703,23,-44,-20,17
971,8633,14,-1704,-4704,23,-44,-20,17
972,8629,6,-1704,-4703,23,-44,-19,17
973,8631,3,-1707,-4704,23,-44,-19,17
974,8633,7,-1702,-4704,23,-44,-19,17
975,8636,9,-1704,-4705,23,-43,-19,17
976,8637,5,-1711,-4705,23,-43,-19,17
977,8639,6,-1712,-4704,23,-44,-19,17
978,8645,2,-1708,-4701,23,-44,-19,17
979,8642,2,-1706,-4700,23,-44,-20,17
980,8640,5,-1711,-4700,23,-43,-19,17
981,8639,4,-1713,-4701,23,-44,-19,17
982,8636,4,-1709,-4700,23,-44,-19,17
983,8639,-1,-1712,-4702,23,-44,-19,17
984,8636,3,-1716,-4703,23,-44,-19,17
985,8633,4,-1716,-4703,23,-44,-19,17
986,8634,6,-1725,-4704,23,-44,-19,17
987,8640,6,-1722,-4705,23,-43,-19,17
988,8637,10,-1725,-4705,23,-43,-19,17
989,8633,6,-1719,-4706,23,-43,-19,17
990,8632,4,-1723,-4706,23,-43,-19,17
991,8627,3,-1721,-4706,23,-43,-19,17
992,8629,3,-1715,-4705,23,-43,-19,17
993,8634,7,-1713,-4703,23,-43,-19,17
994,8634,9,-1715,-4704,23,-43,-19,17
995,8635,7,-1713,-4705,23,-44,-19,17
996,8634,5,-1708,-4706,23,-43,-19,17
997,8633,11,-1711,-4704,23,-43,-19,17
998,8632,11,-1714,-4703,23,-44,-19,17
