,acc_X,acc_Y,acc_Z,temp,tempC,gyr_X,gyr_Y,gyr_Z
0,8636,9,-1702,-4811,22,-43,-20,17
1,8638,9,-1703,-4811,22,-43,-20,17
2,8640,11,-1703,-4811,22,-43,-20,17
3,8641,12,-1700,-4811,22,-43,-20,17
4,8638,9,-1698,-4809,22,-43,-20,16
5,8640,9,-1690,-4810,22,-43,-20,16
6,8640,6,-1693,-4810,22,-43,-20,17
7,8642,6,-1688,-4809,22,-44,-20,17
8,8644,6,-1695,-4809,22,-44,-19,17
9,8641,10,-1701,-4807,22,-43,-19,17
10,8637,13,-1700,-4806,22,-44,-19,17
11,8635,17,-1702,-4804,22,-44,-19,17
12,8640,18,-1698,-4805,22,-44,-19,17
13,8641,12,-1700,-4806,22,-44,-19,17
14,8641,14,-1697,-4806,22,-44,-19,17
15,8642,12,-1703,-4803,22,-44,-19,17
16,8646,14,-1705,-4802,22,-44,-19,17
17,8641,11,-1708,-4802,22,-44,-19,16
18,8641,8,-1712,-4802,22,-44,-19,17
19,8644,9,-1701,-4801,22,-44,-19,17
20,8640,7,-1699,-4801,22,-43,-19,17
21,8641,3,-1696,-4801,22,-44,-19,17
22,8643,1,-1698,-4801,22,-44,-19,17
23,8640,-1,-1698,-4800,22,-44,-19,17
24,8642,-3,-1699,-4801,22,-44,-19,17
25,8644,-5,-1699,-4802,22,-44,-19,17
26,8638,-1,-1705,-4801,22,-44,-19,17
27,8642,-1,-1708,-4800,22,-43,-19,17
28,8640,1,-1706,-4800,22,-44,-19,17
29,8641,-1,-1702,-4801,22,-44,-19,16
30,8639,1,-1710,-4800,22,-43,-19,16
31,8641,4,-1711,-4798,22,-44,-19,16
32,8641,5,-1704,-4800,22,-44,-19,16
33,8643,6,-1706,-4799,22,-44,-19,16
34,8645,2,-1700,-4797,22,-44,-19,17
35,8643,5,-1692,-4798,22,-44,-19,17
36,8643,4,-1693,-4797,22,-44,-19,17
37,8643,9,-1696,-4796,22,-44,-19,17
38,8641,11,-1698,-4796,22,-44,-19,17
39,8640,13,-1702,-4796,22,-44,-19,17
40,8636,14,-1698,-4797,22,-44,-19,17
41,8637,4,-1693,-4797,22,-44,-19,17
42,8637,4,-1694,-4797,22,-44,-19,17
43,8633,6,-1686,-4795,22,-43,-19,16
44,8636,9,-1687,-4792,22,-44,-19,16
45,8636,13,-1693,-4792,22,-43,-19,17
46,8633,11,-1698,-4792,22,-43,-19,16
47,8637,9,-1696,-4793,22,-43,-19,17
48,8640,9,-1694,-4791,22,-43,-19,17
49,8641,10,-1688,-4792,22,-43,-19,17
50,8642,9,-1688,-4790,22,-44,-19,17
51,8640,12,-1690,-4791,22,-43,-19,17
52,8639,14,-1693,-4792,22,-43,-19,17
53,8644,10,-1694,-4793,22,-43,-19,17
54,8643,10,-1693,-4792,22,-43,-19,17
55,8637,10,-1700,-4792,22,-43,-19,17
56,8640,8,-1707,-4791,22,-43,-19,17
57,8639,8,-1704,-4791,22,-43,-19,17
58,8642,5,-1701,-4793,22,-43,-19,17
59,8641,8,-1694,-4789,22,-43,-19,17
60,8640,7,-1695,-4788,22,-43,-19,17
61,8639,4,-1702,-4787,22,-44,-20,17
62,8640,7,-1697,-4787,22,-43,-19,17
63,8644,10,-1703,-4789,22,-43,-19,17
64,8641,7,-1696,-4790,22,-43,-19,17
65,8640,9,-1696,-4790,22,-43,-19,17
66,8636,8,-1696,-4788,22,-43,-19,17
67,8638,4,-1702,-4787,22,-44,-19,17
68,8635,3,-1710,-4789,22,-43,-19,17
69,8637,1,-1711,-4789,22,-44,-19,17
70,8636,5,-1708,-4790,22,-43,-19,17
71,8637,7,-1716,-4791,22,-44,-19,17
72,8634,9,-1710,-4791,22,-44,-19,17
73,8637,5,-1711,-4790,22,-43,-19,17
74,8635,4,-1709,-4790,22,-44,-19,17
75,8637,3,-1701,-4789,22,-44,-19,17
76,8636,5,-1696,-4787,22,-44,-19,17
77,8635,1,-1700,-4788,22,-44,-19,17
78,8635,2,-1697,-4789,22,-44,-19,17
79,8638,6,-1700,-4788,22,-44,-19,17
80,8637,7,-1699,-4789,22,-44,-19,17
81,8638,7,-1698,-4788,22,-44,-19,17
82,8635,6,-1702,-4785,22,-44,-19,17
83,8637,8,-1705,-4785,22,-44,-19,17
84,8634,9,-1705,-4785,22,-43,-19,17
85,8634,9,-1706,-4785,22,-43,-19,17
86,8635,13,-1703,-4783,22,-43,-19,17
87,8637,12,-1701,-4781,22,-44,-19,17
88,8635,14,-1708,-4782,22,-43,-19,17
89,8634,14,-1709,-4780,22,-43,-19,17
90,8636,14,-1711,-4781,22,-43,-19,17
91,8640,9,-1702,-4781,22,-43,-19,17
92,8641,6,-1704,-4781,22,-43,-19,17
93,8637,9,-1708,-4780,22,-43,-19,17
94,8641,9,-1704,-4779,22,-43,-19,17
95,8643,6,-1705,-4780,22,-43,-19,17
96,8646,2,-1703,-4782,22,-43,-19,17
97,8646,5,-1704,-4780,22,-43,-19,17
98,8641,3,-1701,-4780,22,-43,-19,17
99,8638,7,-1707,-4782,22,-43,-19,17
100,8640,9,-1707,-4783,22,-43,-19,17
101,8638,12,-1700,-4783,22,-44,-19,17
102,8635,12,-1698,-4782,22,-43,-19,16
103,8635,14,-1697,-4779,22,-44,-19,17
104,8642,10,-1697,-4779,22,-44,-19,17
105,8639,10,-1692,-4777,22,-43,-19,16
106,8636,12,-1689,-4777,22,-44,-19,16
107,8639,9,-1691,-4777,22,-44,-19,16
108,8640,13,-1687,-4777,22,-44,-19,16
109,8640,12,-1688,-4777,22,-44,-19,16
110,8639,11,-1700,-4776,22,-44,-19,16
111,8638,12,-1704,-4778,22,-44,-19,16
112,8641,9,-1697,-4778,22,-44,-19,16
113,8640,7,-1698,-4776,22,-44,-19,17
114,8638,10,-1696,-4778,22,-44,-19,17
115,8637,9,-1692,-4779,22,-44,-19,17
116,8634,9,-1700,-4781,22,-44,-19,17
117,8636,10,-1695,-4780,22,-44,-19,17
118,8634,8,-1694,-4781,22,-44,-19,17
119,8636,8,-1693,-4780,22,-44,-19,17
120,8634,7,-1689,-4780,22,-44,-19,17
121,8637,1,-1681,-4780,22,-44,-19,17
122,8644,6,-1690,-4780,22,-44,-19,17
123,8641,7,-1694,-4779,22,-44,-19,17
124,8639,8,-1692,-4779,22,-44,-19,17
125,8636,6,-1696,-4779,22,-43,-19,17
126,8635,1,-1698,-4778,22,-44,-19,17
127,8635,8,-1698,-4777,22,-44,-19,17
128,8633,12,-1693,-4777,22,-44,-19,17
129,8636,14,-1696,-4776,22,-44,-19,17
130,8634,10,-1699,-4777,22,-44,-19,17
131,8633,9,-1700,-4775,22,-44,-19,17
132,8642,9,-1699,-4774,22,-44,-20,17
133,8639,9,-1703,-4774,22,-44,-19,17
134,8633,10,-1701,-4774,22,-44,-19,17
135,8636,8,-1708,-4775,22,-44,-19,17
136,8636,9,-1708,-4776,22,-44,-19,17
137,8638,5,-1698,-4775,22,-44,-19,17
138,8638,12,-1705,-4775,22,-44,-19,17
139,8640,10,-1710,-4777,22,-44,-19,17
140,8643,11,-1708,-4776,22,-44,-19,17
141,8638,8,-1707,-4777,22,-44,-19,17
142,8641,6,-1707,-4776,22,-44,-19,17
143,8637,5,-1702,-4776,22,-44,-19,17
144,8636,5,-1700,-4775,22,-44,-19,17
145,8636,8,-1703,-4775,22,-43,-19,17
146,8634,10,-1710,-4774,22,-43,-19,17
147,8633,11,-1704,-4772,22,-43,-19,17
148,8636,7,-1702,-4772,22,-43,-19,17
149,8636,6,-1698,-4771,22,-43,-19,17
150,8631,8,-1699,-4770,22,-43,-20,17
151,8636,7,-1702,-4769,22,-43,-19,17
152,8639,7,-1696,-4769,22,-43,-20,17
153,8638,8,-1701,-4769,22,-43,-19,17
154,8640,3,-1701,-4769,22,-44,-19,17
155,8638,9,-1710,-4769,22,-44,-19,17
156,8634,10,-1701,-4770,22,-44,-19,17
157,8634,10,-1700,-4771,22,-44,-19,17
158,8633,7,-1710,-4771,22,-44,-19,17
159,8636,4,-1711,-4769,22,-44,-19,17
160,8637,5,-1709,-4770,22,-44,-19,17
161,8638,4,-1709,-4769,22,-44,-19,17
162,8642,3,-1714,-4769,22,-43,-19,17
163,8639,2,-1717,-4770,22,-44,-20,17
164,8633,4,-1718,-4770,22,-43,-20,17
165,8634,1,-1714,-4769,22,-44,-19,17
166,8632,0,-1712,-4768,22,-44,-19,17
167,8641,1,-1713,-4768,22,-44,-19,17
168,8635,2,-1709,-4770,22,-44,-19,17
169,8636,7,-1706,-4770,22,-44,-19,17
170,8634,1,-1696,-4770,22,-44,-19,17
171,8635,0,-1698,-4770,22,-44,-19,17
172,8631,1,-1696,-4769,22,-43,-19,17
173,8635,5,-1695,-4768,22,-44,-19,17
174,8635,5,-1694,-4768,22,-43,-19,17
175,8637,3,-1683,-4768,22,-44,-19,17
176,8636,-1,-1689,-4767,22,-44,-19,17
177,8638,-4,-1691,-4767,22,-44,-19,17
178,8642,-4,-1692,-4766,22,-44,-19,17
179,8640,-3,-1688,-4766,22,-44,-19,17
180,8639,0,-1692,-4767,22,-43,-19,17
181,8640,2,-1694,-4767,22,-43,-19,17
182,8638,1,-1682,-4766,22,-43,-19,17
183,8636,-3,-1683,-4765,22,-43,-19,17
184,8630,-2,-1691,-4765,22,-43,-19,17
185,8629,3,-1692,-4763,22,-43,-19,17
186,8624,6,-1696,-4763,22,-43,-19,17
187,8624,9,-1689,-4764,22,-43,-19,17
188,8627,5,-1688,-4764,22,-44,-19,17
189,8633,9,-1687,-4762,22,-43,-19,16
190,8638,13,-1692,-4766,22,-44,-19,16
191,8639,14,-1695,-4763,22,-44,-19,17
192,8638,15,-1693,-4762,22,-44,-19,17
193,8638,18,-1699,-4763,22,-44,-19,17
194,8637,13,-1698,-4766,22,-44,-19,17
195,8638,14,-1698,-4765,22,-44,-19,17
196,8637,11,-1695,-4764,22,-44,-19,17
197,8634,12,-1691,-4766,22,-44,-19,17
198,8637,8,-1695,-4764,22,-44,-19,17
199,8634,6,-1695,-4764,22,-44,-19,16
200,8636,6,-1692,-4765,22,-44,-19,16
201,8640,10,-1689,-4765,22,-44,-19,17
202,8637,7,-1696,-4764,22,-44,-19,16
203,8634,5,-1701,-4763,22,-44,-19,16
204,8631,2,-1699,-4763,22,-44,-19,16
205,8636,5,-1702,-4763,22,-44,-19,16
206,8638,-4,-1699,-4765,22,-44,-19,17
207,8637,-3,-1694,-4763,22,-44,-19,17
208,8634,2,-1693,-4763,22,-44,-19,17
209,8634,4,-1687,-4763,22,-44,-19,17
210,8637,2,-1688,-4760,22,-44,-19,17
211,8638,-1,-1695,-4761,22,-44,-19,17
212,8637,0,-1690,-4763,22,-43,-19,17
213,8632,1,-1690,-4762,22,-43,-19,17
214,8641,4,-1689,-4762,22,-43,-19,17
215,8644,0,-1692,-4763,22,-43,-19,17
216,8641,2,-1692,-4764,22,-44,-19,17
217,8638,-4,-1697,-4764,22,-44,-19,17
218,8641,-3,-1698,-4766,22,-44,-19,17
219,8644,-2,-1700,-4767,22,-44,-19,17
220,8640,2,-1701,-4766,22,-44,-19,17
221,8641,1,-1703,-4764,22,-44,-19,17
222,8645,0,-1701,-4763,22,-44,-19,17
223,8641,-2,-1698,-4764,22,-44,-19,17
224,8637,-2,-1697,-4764,22,-44,-19,17
225,8634,0,-1694,-4764,22,-44,-19,17
226,8633,0,-1701,-4765,22,-44,-19,17
227,8632,2,-1693,-4764,22,-44,-19,17
228,8633,3,-1691,-4763,22,-44,-19,17
229,8630,6,-1694,-4762,22,-44,-19,17
230,8635,-1,-1698,-4762,22,-44,-19,17
231,8636,3,-1701,-4761,22,-44,-19,17
232,8639,4,-1702,-4760,22,-44,-19,17
233,8638,2,-1701,-4761,22,-44,-19,17
234,8640,7,-1704,-4763,22,-44,-19,17
235,8638,9,-1708,-4762,22,-44,-19,17
236,8634,10,-1713,-4764,22,-44,-19,17
237,8636,11,-1710,-4760,22,-44,-19,17
238,8637,11,-1702,-4759,23,-44,-19,17
239,8637,6,-1705,-4757,23,-44,-19,17
240,8635,4,-1706,-4758,23,-44,-19,17
241,8641,9,-1706,-4758,23,-44,-19,17
242,8641,11,-1699,-4757,23,-44,-19,17
243,8646,9,-1697,-4757,23,-44,-19,17
244,8646,8,-1695,-4756,23,-44,-19,17
245,8651,11,-1693,-4756,23,-44,-19,17
246,8647,8,-1695,-4757,23,-44,-19,17
247,8642,4,-1694,-4756,23,-44,-19,17
248,8641,6,-1700,-4756,23,-44,-19,17
249,8646,3,-1699,-4756,23,-43,-19,17
250,8653,2,-1694,-4757,23,-43,-19,17
251,8651,-1,-1688,-4760,22,-43,-19,17
252,8647,-5,-1687,-4757,23,-43,-19,17
253,8641,-5,-1686,-4758,23,-44,-19,17
254,8644,0,-1687,-4759,23,-43,-19,17
255,8640,3,-1692,-4758,23,-43,-19,17
256,8638,2,-1701,-4755,23,-43,-19,17
257,8639,-1,-1699,-4756,23,-43,-19,17
258,8640,0,-1706,-4757,23,-44,-19,17
259,8637,1,-1708,-4755,23,-44,-19,17
260,8636,5,-1702,-4757,23,-44,-19,17
261,8636,10,-1702,-4757,23,-44,-19,17
262,8636,11,-1700,-4758,23,-44,-19,17
263,8639,11,-1700,-4758,23,-44,-19,17
264,8639,13,-1699,-4757,23,-44,-19,17
265,8641,10,-1700,-4756,23,-44,-19,17
266,8640,6,-1695,-4755,23,-44,-19,17
267,8642,11,-1694,-4754,23,-44,-19,17
268,8639,8,-1698,-4754,23,-43,-19,17
269,8640,9,-1690,-4753,23,-43,-19,17
270,8638,12,-1690,-4754,23,-43,-19,17
271,8636,14,-1690,-4755,23,-43,-19,17
272,8637,17,-1691,-4755,23,-44,-19,17
273,8631,15,-1690,-4755,23,-44,-19,17
274,8632,11,-1688,-4753,23,-44,-19,17
275,8634,14,-1686,-4755,23,-44,-19,17
276,8636,10,-1683,-4756,23,-44,-19,17
277,8637,11,-1687,-4756,23,-44,-19,17
278,8637,12,-1690,-4758,23,-44,-19,17
279,8638,10,-1694,-4756,23,-44,-19,17
280,8637,9,-1695,-4756,23,-44,-19,17
281,8636,6,-1688,-4758,23,-44,-19,17
282,8638,5,-1691,-4756,23,-44,-19,17
283,8639,2,-1696,-4755,23,-44,-19,17
284,8642,4,-1701,-4753,23,-44,-19,17
285,8643,8,-1702,-4752,23,-43,-19,17
286,8636,6,-1699,-4752,23,-43,-19,17
287,8634,8,-1700,-4754,23,-43,-19,17
288,8636,5,-1701,-4754,23,-44,-19,17
289,8636,6,-1704,-4756,23,-44,-19,17
290,8638,5,-1706,-4756,23,-44,-19,17
291,8636,4,-1708,-4756,23,-44,-19,17
292,8637,2,-1701,-4755,23,-44,-19,17
293,8640,4,-1695,-4755,23,-44,-19,17
294,8638,3,-1701,-4754,23,-44,-19,17
295,8640,-1,-1700,-4755,23,-44,-19,17
296,8643,-3,-1707,-4754,23,-44,-19,17
297,8646,0,-1703,-4752,23,-44,-19,17
298,8641,-2,-1699,-4750,23,-44,-19,17
299,8638,0,-1701,-4750,23,-44,-19,17
300,8644,1,-1703,-4751,23,-44,-19,17
301,8641,4,-1706,-4752,23,-44,-19,17
302,8637,4,-1705,-4753,23,-44,-19,17
303,8637,6,-1701,-4752,23,-44,-19,17
304,8632,10,-1704,-4751,23,-44,-19,17
305,8633,11,-1707,-4752,23,-44,-19,17
306,8634,10,-1695,-4752,23,-44,-19,17
307,8636,13,-1700,-4750,23,-44,-19,17
308,8636,17,-1694,-4749,23,-44,-19,17
309,8640,17,-1701,-4749,23,-44,-19,17
310,8642,12,-1703,-4748,23,-44,-19,17
311,8647,12,-1701,-4748,23,-44,-20,17
312,8645,13,-1706,-4747,23,-44,-19,17
313,8643,9,-1704,-4748,23,-44,-19,17
314,8641,10,-1702,-4749,23,-44,-19,17
315,8643,11,-1707,-4751,23,-44,-19,17
316,8637,16,-1705,-4751,23,-44,-19,17
317,8640,16,-1704,-4750,23,-44,-19,17
318,8639,15,-1699,-4750,23,-43,-19,17
319,8637,14,-1695,-4748,23,-43,-19,17
320,8643,7,-1696,-4748,23,-43,-19,17
321,8646,7,-1692,-4748,23,-44,-19,17
322,8643,7,-1691,-4748,23,-44,-19,17
323,8645,7,-1696,-4750,23,-44,-19,17
324,8645,5,-1690,-4750,23,-44,-19,17
325,8645,5,-1689,-4749,23,-44,-19,17
326,8649,5,-1695,-4748,23,-43,-19,17
327,8650,5,-1696,-4751,23,-43,-19,17
328,8652,5,-1692,-4753,23,-44,-19,17
329,8645,4,-1693,-4750,23,-44,-19,17
330,8644,-1,-1691,-4752,23,-44,-19,17
331,8638,0,-1694,-4753,23,-44,-19,17
332,8636,-4,-1697,-4752,23,-43,-19,17
333,8634,0,-1698,-4752,23,-43,-19,17
334,8635,0,-1703,-4752,23,-43,-19,17
335,8634,1,-1705,-4752,23,-43,-19,17
336,8635,3,-1709,-4753,23,-43,-19,17
337,8635,1,-1708,-4754,23,-43,-19,17
338,8640,0,-1704,-4752,23,-43,-19,17
339,8640,1,-1702,-4752,23,-44,-19,17
340,8642,1,-1705,-4750,23,-43,-19,17
341,8640,1,-1705,-4750,23,-43,-19,17
342,8638,-1,-1703,-4749,23,-44,-19,17
343,8634,-1,-1704,-4751,23,-43,-19,17
344,8635,-2,-1709,-4751,23,-43,-19,17
345,8641,-4,-1714,-4750,23,-44,-19,17
346,8642,-5,-1706,-4751,23,-44,-19,17
347,8641,0,-1703,-4752,23,-44,-19,17
348,8642,5,-1697,-4750,23,-44,-19,17
349,8640,8,-1696,-4750,23,-44,-19,17
350,8641,5,-1692,-4750,23,-43,-19,17
351,8635,8,-1695,-4751,23,-43,-19,17
352,8637,5,-1687,-4750,23,-43,-19,17
353,8641,2,-1688,-4749,23,-44,-19,17
354,8639,5,-1694,-4748,23,-44,-19,17
355,8633,9,-1695,-4747,23,-44,-19,17
356,8632,8,-1701,-4747,23,-44,-19,17
357,8626,7,-1704,-4746,23,-44,-20,17
358,8625,9,-1707,-4747,23,-44,-19,18
359,8625,15,-1702,-4746,23,-44,-19,17
360,8632,12,-1704,-4746,23,-44,-19,17
361,8638,6,-1704,-4747,23,-44,-19,17
362,8635,4,-1703,-4748,23,-43,-20,17
363,8636,6,-1709,-4749,23,-44,-19,17
364,8638,5,-1700,-4749,23,-44,-19,17
365,8637,7,-1700,-4750,23,-43,-19,17
366,8637,4,-1695,-4750,23,-44,-19,17
367,8638,5,-1693,-4751,23,-44,-19,17
368,8636,2,-1685,-4749,23,-44,-19,17
369,8633,4,-1687,-4747,23,-44,-19,17
370,8629,5,-1696,-4746,23,-44,-19,17
371,8630,8,-1695,-4746,23,-44,-19,17
372,8633,6,-1694,-4746,23,-44,-19,17
373,8638,3,-1692,-4747,23,-44,-19,17
374,8636,1,-1695,-4748,23,-44,-19,17
375,8630,6,-1699,-4748,23,-43,-19,17
376,8631,6,-1690,-4748,23,-44,-19,17
377,8633,9,-1688,-4745,23,-44,-19,17
378,8635,8,-1684,-4745,23,-44,-19,17
379,8637,3,-1687,-4747,23,-44,-19,17
380,8638,5,-1695,-4746,23,-44,-19,17
381,8640,4,-1701,-4747,23,-44,-19,17
382,8644,7,-1701,-4747,23,-44,-19,17
383,8643,4,-1701,-4745,23,-44,-19,17
384,8642,1,-1701,-4744,23,-44,-19,17
385,8638,0,-1698,-4742,23,-44,-19,17
386,8639,-5,-1687,-4741,23,-44,-19,17
387,8635,-4,-1685,-4740,23,-44,-19,17
388,8640,2,-1683,-4741,23,-44,-19,17
389,8642,6,-1690,-4743,23,-44,-19,17
390,8637,6,-1695,-4743,23,-44,-19,17
391,8637,7,-1696,-4744,23,-44,-19,17
392,8636,9,-1703,-4742,23,-44,-19,17
393,8639,8,-1701,-4742,23,-44,-19,17
394,8637,1,-1706,-4742,23,-44,-19,16
395,8636,0,-1697,-4743,23,-44,-19,17
396,8638,5,-1700,-4745,23,-44,-19,17
397,8636,9,-1701,-4746,23,-44,-18,17
398,8632,12,-1700,-4746,23,-44,-19,17
399,8634,7,-1697,-4745,23,-44,-19,17
400,8641,8,-1700,-4745,23,-44,-19,17
401,8638,5,-1700,-4744,23,-44,-19,17
402,8634,2,-1697,-4743,23,-44,-19,17
403,8633,3,-1688,-4740,23,-44,-19,17
404,8631,-1,-1690,-4743,23,-44,-19,17
405,8636,-3,-1695,-4744,23,-44,-19,17
406,8634,3,-1691,-4745,23,-44,-19,17
407,8631,5,-1693,-4743,23,-44,-19,17
408,8636,6,-1694,-4741,23,-43,-19,17
409,8633,8,-1701,-4742,23,-43,-19,17
410,8638,10,-1697,-4742,23,-43,-19,17
411,8640,7,-1697,-4743,23,-44,-19,17
412,8640,8,-1701,-4743,23,-44,-19,17
413,8645,9,-1700,-4742,23,-44,-19,17
414,8644,7,-1699,-4741,23,-43,-19,17
415,8644,4,-1702,-4741,23,-44,-19,17
416,8641,7,-1699,-4742,23,-44,-19,17
417,8638,8,-1692,-4744,23,-44,-19,17
418,8639,5,-1695,-4742,23,-44,-19,17
419,8633,7,-1693,-4741,23,-44,-19,17
420,8636,5,-1696,-4742,23,-44,-19,17
421,8633,0,-1700,-4741,23,-43,-19,17
422,8633,3,-1694,-4741,23,-44,-19,18
423,8636,3,-1698,-4740,23,-43,-19,17
424,8634,6,-1704,-4740,23,-43,-19,17
425,8638,4,-1699,-4740,23,-44,-19,18
426,8638,-1,-1695,-4739,23,-44,-19,17
427,8632,-3,-1692,-4739,23,-44,-19,17
428,8628,-3,-1693,-4741,23,-44,-19,17
429,8632,2,-1691,-4740,23,-44,-19,17
430,8633,3,-1691,-4739,23,-43,-19,17
431,8634,6,-1695,-4741,23,-43,-19,17
432,8635,6,-1700,-4742,23,-44,-19,17
433,8632,7,-1699,-4742,23,-44,-20,17
434,8631,6,-1698,-4741,23,-44,-20,17
435,8624,7,-1696,-4739,23,-44,-20,17
436,8625,5,-1694,-4739,23,-44,-19,17
437,8629,2,-1700,-4737,23,-44,-19,17
438,8630,5,-1707,-4737,23,-44,-19,17
439,8629,6,-1710,-4738,23,-44,-19,17
440,8630,3,-1707,-4739,23,-44,-19,17
441,8633,3,-1701,-4740,23,-44,-19,17
442,8636,3,-1695,-4739,23,-44,-19,17
443,8637,-1,-1696,-4741,23,-44,-19,17
444,8636,1,-1701,-4742,23,-44,-19,17
445,8631,3,-1693,-4740,23,-44,-19,17
446,8634,2,-1695,-4740,23,-43,-19,17
447,8637,5,-1686,-4739,23,-43,-19,17
448,8636,5,-1681,-4737,23,-44,-19,17
449,8635,7,-1678,-4737,23,-43,-19,17
450,8635,5,-1682,-4738,23,-43,-19,17
451,8634,5,-1686,-4736,23,-44,-19,17
452,8633,9,-1689,-4735,23,-44,-19,17
453,8632,12,-1685,-4734,23,-44,-20,17
454,8634,10,-1690,-4736,23,-44,-19,17
455,8635,13,-1699,-4736,23,-44,-20,17
456,8636,11,-1703,-4735,23,-44,-20,17
457,8640,9,-1704,-4735,23,-44,-19,17
458,8639,8,-1702,-4736,23,-44,-20,17
459,8644,8,-1707,-4735,23,-43,-20,17
460,8641,15,-1706,-4734,23,-43,-20,17
461,8637,13,-1711,-4735,23,-43,-19,17
462,8631,13,-1706,-4736,23,-43,-19,17
463,8632,15,-1708,-4736,23,-43,-19,17
464,8634,17,-1709,-4736,23,-43,-19,17
465,8637,14,-1694,-4737,23,-43,-19,17
466,8636,11,-1691,-4735,23,-43,-19,17
467,8634,10,-1691,-4736,23,-43,-19,17
468,8634,11,-1699,-4735,23,-43,-19,17
469,8637,9,-1704,-4736,23,-43,-19,16
470,8637,5,-1694,-4734,23,-43,-19,17
471,8641,5,-1691,-4732,23,-43,-20,17
472,8638,3,-1689,-4734,23,-43,-19,17
473,8639,7,-1691,-4735,23,-43,-20,17
474,8638,6,-1691,-4735,23,-44,-20,17
475,8641,6,-1692,-4734,23,-44,-19,17
476,8638,6,-1698,-4736,23,-43,-19,17
477,8640,3,-1697,-4736,23,-43,-19,17
478,8642,10,-1698,-4735,23,-43,-19,17
479,8636,8,-1695,-4734,23,-43,-19,17
480,8632,9,-1695,-4733,23,-44,-19,17
481,8628,5,-1696,-4735,23,-43,-19,17
482,8634,6,-1696,-4735,23,-43,-19,17
483,8638,10,-1695,-4734,23,-44,-19,17
484,8635,9,-1703,-4734,23,-43,-19,17
485,8635,8,-1706,-4734,23,-43,-19,17
486,8639,10,-1698,-4736,23,-44,-19,17
487,8640,11,-1694,-4735,23,-43,-19,17
488,8640,11,-1694,-4735,23,-43,-19,18
489,8640,7,-1685,-4736,23,-43,-19,17
490,8641,7,-1691,-4737,23,-43,-19,17
491,8636,0,-1697,-4736,23,-43,-19,17
492,8635,7,-1691,-4736,23,-43,-19,17
493,8633,11,-1693,-4735,23,-43,-19,17
494,8638,9,-1697,-4736,23,-44,-19,17
495,8637,12,-1696,-4736,23,-44,-19,17
496,8636,15,-1702,-4735,23,-44,-19,17
497,8637,15,-1710,-4736,23,-43,-19,16
498,8636,13,-1708,-4736,23,-43,-19,16
499,8636,10,-1703,-4736,23,-44,-19,17
500,8642,8,-1697,-4736,23,-44,-19,17
501,8642,6,-1703,-4735,23,-43,-19,17
502,8644,4,-1705,-4735,23,-43,-20,17
503,8645,-2,-1700,-4737,23,-43,-19,17
504,8640,-1,-1708,-4737,23,-43,-19,17
505,8631,2,-1702,-4735,23,-43,-19,17
506,8637,3,-1697,-4735,23,-43,-19,17
507,8641,2,-1692,-4734,23,-44,-19,17
508,8634,0,-1702,-4734,23,-44,-19,17
509,8638,4,-1705,-4736,23,-44,-19,17
510,8640,7,-1705,-4736,23,-44,-19,17
511,8640,5,-1706,-4737,23,-43,-19,17
512,8639,5,-1705,-4738,23,-43,-19,17
513,8634,2,-1704,-4738,23,-43,-19,16
514,8635,2,-1707,-4738,23,-43,-19,17
515,8637,7,-1702,-4736,23,-43,-19,17
516,8640,7,-1700,-4735,23,-43,-19,17
517,8641,7,-1691,-4735,23,-43,-19,17
518,8643,5,-1689,-4736,23,-44,-19,17
519,8640,6,-1698,-4735,23,-44,-19,17
520,8639,5,-1697,-4733,23,-43,-19,17
521,8640,5,-1694,-4733,23,-43,-19,17
522,8636,5,-1693,-4732,23,-43,-20,17
523,8639,6,-1698,-4733,23,-44,-19,17
524,8639,14,-1703,-4732,23,-44,-19,17
525,8636,13,-1704,-4732,23,-44,-19,17
526,8635,11,-1702,-4733,23,-44,-19,17
527,8637,7,-1701,-4733,23,-44,-19,17
528,8635,7,-1703,-4731,23,-44,-19,17
529,8637,4,-1708,-4731,23,-44,-19,17
530,8635,2,-1700,-4732,23,-44,-19,17
531,8632,-1,-1689,-4730,23,-44,-19,17
532,8634,7,-1685,-4731,23,-44,-19,17
533,8631,9,-1687,-4732,23,-44,-19,17
534,8632,7,-1689,-4734,23,-43,-19,17
535,8636,7,-1691,-4735,23,-44,-19,17
536,8643,10,-1692,-4733,23,-44,-19,17
537,8643,6,-1687,-4733,23,-44,-19,17
538,8641,10,-1686,-4732,23,-44,-19,17
539,8639,6,-1695,-4733,23,-44,-19,17
540,8635,8,-1694,-4734,23,-44,-19,17
541,8635,0,-1691,-4734,23,-43,-19,17
542,8635,-1,-1702,-4734,23,-44,-19,17
543,8632,2,-1700,-4736,23,-44,-19,17
544,8630,5,-1690,-4734,23,-44,-19,17
545,8633,11,-1689,-4733,23,-43,-19,17
546,8638,8,-1687,-4731,23,-43,-19,17
547,8637,6,-1690,-4730,23,-43,-19,17
548,8641,6,-1695,-4729,23,-44,-19,17
549,8642,7,-1698,-4730,23,-44,-19,16
550,8641,8,-1701,-4732,23,-44,-19,17
551,8637,5,-1705,-4732,23,-44,-19,17
552,8638,9,-1704,-4731,23,-44,-19,17
553,8637,7,-1700,-4732,23,-44,-19,17
554,8632,4,-1692,-4731,23,-44,-20,17
555,8630,4,-1696,-4732,23,-44,-20,17
556,8628,1,-1699,-4733,23,-44,-20,17
557,8631,1,-1696,-4732,23,-44,-19,17
558,8638,3,-1691,-4730,23,-44,-20,17
559,8638,2,-1687,-4728,23,-44,-19,17
560,8639,2,-1682,-4728,23,-44,-20,17
561,8642,3,-1686,-4729,23,-44,-19,17
562,8646,2,-1697,-4730,23,-44,-19,17
563,8647,4,-1706,-4732,23,-44,-19,17
564,8644,2,-1697,-4731,23,-44,-19,17
565,8641,1,-1698,-4732,23,-44,-19,17
566,8642,2,-1689,-4732,23,-44,-19,17
567,8640,-2,-1693,-4730,23,-44,-19,17
568,8639,-1,-1693,-4731,23,-44,-20,17
569,8639,6,-1693,-4731,23,-44,-20,17
570,8636,7,-1687,-4732,23,-44,-19,17
571,8639,5,-1688,-4733,23,-44,-19,17
572,8637,1,-1693,-4733,23,-44,-19,17
573,8636,2,-1690,-4734,23,-44,-19,17
574,8638,5,-1679,-4730,23,-44,-19,17
575,8639,8,-1678,-4731,23,-44,-19,17
576,8638,8,-1681,-4731,23,-44,-19,17
577,8639,2,-1686,-4731,23,-43,-19,17
578,8635,7,-1687,-4729,23,-43,-19,17
579,8635,8,-1689,-4730,23,-44,-19,17
580,8635,2,-1694,-4732,23,-44,-19,17
581,8632,3,-1691,-4731,23,-44,-19,17
582,8635,5,-1687,-4731,23,-44,-19,16
583,8639,8,-1690,-4731,23,-43,-19,16
584,8641,10,-1686,-4731,23,-43,-20,17
585,8639,8,-1693,-4732,23,-43,-19,16
586,8636,9,-1690,-4732,23,-44,-19,16
587,8636,10,-1690,-4733,23,-44,-19,17
588,8634,6,-1691,-4732,23,-43,-19,17
589,8635,9,-1686,-4732,23,-44,-19,17
590,8636,10,-1691,-4731,23,-43,-19,17
591,8638,10,-1703,-4730,23,-44,-19,17
592,8638,9,-1705,-4730,23,-43,-19,17
593,8637,10,-1700,-4730,23,-44,-19,17
594,8643,7,-1700,-4730,23,-44,-19,17
595,8647,5,-1697,-4730,23,-44,-19,17
596,8647,7,-1695,-4730,23,-44,-19,17
597,8642,7,-1696,-4731,23,-44,-19,17
598,8633,6,-1696,-4732,23,-44,-19,17
599,8640,4,-1697,-4730,23,-44,-20,17
600,8640,3,-1693,-4731,23,-44,-19,17
601,8643,4,-1694,-4730,23,-44,-19,17
602,8649,4,-1696,-4731,23,-44,-19,17
603,8651,2,-1698,-4730,23,-44,-19,17
604,8654,8,-1696,-4729,23,-44,-19,17
605,8652,10,-1699,-4728,23,-44,-19,17
606,8649,11,-1692,-4728,23,-44,-19,17
607,8646,14,-1689,-4729,23,-44,-19,17
608,8647,12,-1690,-4730,23,-44,-19,17
609,8643,11,-1692,-4729,23,-44,-19,17
610,8642,13,-1688,-4729,23,-44,-19,17
611,8642,11,-1681,-4729,23,-44,-19,17
612,8640,8,-1689,-4729,23,-44,-19,17
613,8641,9,-1694,-4731,23,-43,-19,17
614,8645,6,-1688,-4731,23,-44,-19,17
615,8641,4,-1682,-4730,23,-44,-19,17
616,8640,4,-1685,-4729,23,-43,-19,17
617,8638,6,-1685,-4729,23,-43,-19,17
618,8634,6,-1688,-4729,23,-44,-19,17
619,8635,2,-1691,-4727,23,-43,-19,17
620,8636,1,-1695,-4727,23,-44,-19,17
621,8636,1,-1689,-4729,23,-44,-19,17
622,8639,8,-1690,-4730,23,-44,-19,17
623,8638,10,-1697,-4731,23,-44,-19,17
624,8640,6,-1703,-4729,23,-44,-19,17
625,8641,10,-1703,-4729,23,-44,-19,17
626,8637,5,-1703,-4728,23,-43,-19,17
627,8638,2,-1706,-4729,23,-43,-19,17
628,8638,2,-1699,-4728,23,-43,-19,17
629,8639,3,-1700,-4730,23,-43,-19,17
630,8637,4,-1698,-4730,23,-44,-19,17
631,8636,3,-1695,-4730,23,-44,-19,17
632,8633,1,-1697,-4729,23,-44,-19,17
633,8631,1,-1693,-4730,23,-44,-19,17
634,8631,2,-1689,-4730,23,-44,-19,17
635,8639,2,-1686,-4730,23,-44,-19,17
636,8640,4,-1690,-4729,23,-44,-19,17
637,8641,3,-1695,-4728,23,-44,-19,18
638,8641,2,-1693,-4729,23,-44,-19,17
639,8643,0,-1694,-4729,23,-44,-19,17
640,8638,-2,-1695,-4729,23,-44,-19,17
641,8630,4,-1689,-4729,23,-44,-19,17
642,8633,3,-1693,-4729,23,-44,-19,17
643,8633,3,-1696,-4729,23,-44,-19,17
644,8632,4,-1703,-4729,23,-43,-19,17
645,8637,4,-1697,-4727,23,-43,-19,17
646,8640,3,-1701,-4727,23,-43,-19,17
647,8639,-1,-1699,-4726,23,-43,-20,17
648,8638,-2,-1700,-4726,23,-43,-19,17
649,8638,1,-1696,-4727,23,-43,-19,17
650,8639,-2,-1687,-4726,23,-43,-19,17
651,8638,-1,-1693,-4724,23,-43,-19,17
652,8638,4,-1693,-4724,23,-43,-19,17
653,8639,0,-1686,-4724,23,-44,-19,17
654,8646,0,-1683,-4725,23,-44,-19,17
655,8642,-2,-1691,-4726,23,-44,-19,17
656,8643,-2,-1694,-4726,23,-44,-19,17
657,8642,2,-1688,-4727,23,-44,-19,17
658,8642,4,-1695,-4725,23,-44,-19,17
659,8642,7,-1697,-4725,23,-44,-19,17
660,8640,8,-1694,-4726,23,-44,-19,17
661,8639,5,-1699,-4726,23,-44,-19,17
662,8640,2,-1694,-4727,23,-44,-19,17
663,8641,2,-1693,-4727,23,-44,-19,17
664,8641,-2,-1691,-4726,23,-44,-19,17
665,8639,1,-1688,-4726,23,-44,-19,17
666,8643,5,-1688,-4726,23,-44,-19,17
667,8642,2,-1689,-4726,23,-43,-19,17
668,8645,3,-1690,-4726,23,-44,-19,17
669,8642,1,-1686,-4727,23,-44,-19,17
670,8640,1,-1702,-4727,23,-44,-19,17
671,8641,0,-1708,-4729,23,-44,-19,17
672,8640,-1,-1709,-4727,23,-44,-19,17
673,8635,-3,-1709,-4726,23,-44,-19,17
674,8643,2,-1713,-4726,23,-44,-19,17
675,8641,1,-1716,-4726,23,-44,-19,17
676,8635,1,-1712,-4727,23,-44,-20,17
677,8639,2,-1712,-4728,23,-44,-19,17
678,8638,2,-1705,-4727,23,-44,-19,17
679,8644,1,-1695,-4727,23,-44,-19,17
680,8640,0,-1690,-4726,23,-43,-19,17
681,8645,0,-1696,-4726,23,-44,-19,17
682,8646,1,-1690,-4727,23,-44,-19,17
683,8644,4,-1693,-4727,23,-44,-19,17
684,8639,7,-1693,-4727,23,-43,-19,17
685,8635,7,-1693,-4726,23,-44,-19,17
686,8630,6,-1691,-4726,23,-44,-19,17
687,8634,5,-1699,-4726,23,-43,-19,17
688,8635,5,-1706,-4727,23,-43,-19,17
689,8635,1,-1708,-4727,23,-43,-19,17
690,8638,4,-1697,-4726,23,-43,-19,17
691,8641,9,-1704,-4726,23,-43,-19,17
692,8639,9,-1707,-4726,23,-43,-19,17
693,8641,7,-1703,-4726,23,-43,-19,17
694,8643,8,-1700,-4725,23,-43,-19,17
695,8646,10,-1704,-4724,23,-43,-19,17
696,8647,6,-1701,-4724,23,-43,-19,17
697,8645,7,-1696,-4725,23,-43,-19,17
698,8648,7,-1698,-4724,23,-44,-19,17
699,8646,6,-1697,-4724,23,-43,-19,17
700,8640,5,-1698,-4725,23,-43,-19,17
701,8637,2,-1697,-4726,23,-43,-19,17
702,8640,5,-1695,-4726,23,-44,-19,17
703,8643,4,-1695,-4726,23,-44,-19,17
704,8639,4,-1699,-4725,23,-44,-20,17
705,8640,6,-1697,-4727,23,-44,-19,17
706,8639,3,-1701,-4727,23,-44,-19,17
707,8636,2,-1708,-4727,23,-44,-19,17
708,8634,1,-1710,-4726,23,-44,-19,17
709,8632,0,-1706,-4726,23,-44,-19,17
710,8633,6,-1699,-4726,23,-44,-19,17
711,8638,4,-1693,-4727,23,-44,-19,18
712,8639,2,-1693,-4727,23,-44,-19,17
713,8638,5,-1690,-4725,23,-44,-19,17
714,8636,1,-1691,-4725,23,-44,-19,17
715,8640,0,-1687,-4724,23,-44,-19,17
716,8636,6,-1689,-4723,23,-44,-19,17
717,8640,10,-1685,-4723,23,-44,-20,17
718,8642,8,-1685,-4725,23,-44,-20,17
719,8639,4,-1688,-4725,23,-43,-20,17
720,8634,4,-1695,-4724,23,-43,-20,17
721,8635,5,-1694,-4725,23,-43,-19,17
722,8637,3,-1695,-4726,23,-43,-20,17
723,8635,4,-1687,-4726,23,-43,-20,17
724,8642,7,-1684,-4727,23,-43,-19,17
725,8641,7,-1694,-4727,23,-43,-20,17
726,8636,6,-1698,-4728,23,-43,-20,17
727,8634,12,-1697,-4727,23,-43,-19,17
728,8637,16,-1693,-4727,23,-43,-19,17
729,8636,13,-1695,-4726,23,-43,-19,17
730,8643,10,-1689,-4728,23,-44,-19,17
731,8643,4,-1694,-4728,23,-44,-19,17
732,8636,3,-1694,-4726,23,-44,-19,17
733,8634,8,-1698,-4725,23,-44,-19,17
734,8636,9,-1705,-4725,23,-44,-19,17
735,8637,12,-1707,-4725,23,-44,-19,17
736,8641,8,-1696,-4726,23,-44,-19,17
737,8646,9,-1695,-4726,23,-43,-19,17
738,8646,13,-1696,-4724,23,-44,-19,17
739,8644,9,-1700,-4725,23,-44,-19,17
740,8636,6,-1705,-4726,23,-44,-20,17
741,8636,6,-1705,-4725,23,-44,-19,17
742,8636,6,-1709,-4725,23,-44,-19,17
743,8638,3,-1710,-4726,23,-44,-20,17
744,8639,6,-1712,-4725,23,-44,-20,17
745,8636,4,-1708,-4724,23,-44,-19,17
746,8634,8,-1695,-4725,23,-44,-19,17
747,8634,5,-1684,-4724,23,-43,-19,17
748,8634,6,-1686,-4721,23,-44,-19,17
749,8633,3,-1688,-4722,23,-44,-20,17
750,8637,5,-1693,-4722,23,-44,-19,17
751,8636,2,-1691,-4721,23,-44,-19,17
752,8637,-3,-1690,-4722,23,-44,-19,17
753,8637,-1,-1688,-4723,23,-44,-19,17
754,8636,0,-1688,-4723,23,-43,-19,17
755,8635,5,-1689,-4724,23,-44,-19,17
756,8639,11,-1698,-4723,23,-44,-19,17
757,8634,9,-1694,-4723,23,-44,-19,17
758,8637,9,-1693,-4724,23,-44,-19,17
759,8637,8,-1686,-4725,23,-44,-19,17
760,8638,9,-1689,-4724,23,-44,-19,17
761,8640,11,-1690,-4725,23,-44,-19,17
762,8638,8,-1695,-4723,23,-43,-19,17
763,8637,3,-1700,-4723,23,-43,-19,17
764,8629,4,-1698,-4722,23,-43,-19,17
765,8634,2,-1697,-4724,23,-43,-19,17
766,8635,2,-1696,-4724,23,-43,-19,17
767,8632,5,-1700,-4724,23,-43,-19,17
768,8639,8,-1702,-4723,23,-43,-19,17
769,8635,6,-1692,-4724,23,-44,-19,17
770,8635,2,-1682,-4725,23,-44,-19,17
771,8635,6,-1688,-4725,23,-44,-19,17
772,8630,9,-1690,-4723,23,-44,-19,17
773,8630,11,-1692,-4724,23,-44,-19,17
774,8628,11,-1694,-4724,23,-44,-19,17
775,8635,11,-1691,-4723,23,-44,-19,17
776,8634,10,-1691,-4723,23,-44,-19,17
777,8637,7,-1691,-4722,23,-44,-19,17
778,8633,11,-1691,-4723,23,-44,-19,17
779,8635,5,-1696,-4723,23,-44,-19,17
780,8637,7,-1691,-4724,23,-44,-19,17
781,8637,5,-1690,-4723,23,-44,-19,17
782,8640,3,-1692,-4723,23,-44,-19,17
783,8642,-1,-1693,-4722,23,-44,-19,17
784,8645,3,-1700,-4721,23,-44,-19,17
785,8649,0,-1701,-4720,23,-44,-20,17
786,8645,3,-1703,-4721,23,-44,-19,17
787,8646,1,-1707,-4723,23,-44,-19,17
788,8644,2,-1711,-4724,23,-44,-20,17
789,8641,0,-1711,-4724,23,-44,-20,17
790,8644,-1,-1707,-4723,23,-44,-20,17
791,8645,-1,-1707,-4723,23,-44,-19,17
792,8643,2,-1708,-4724,23,-44,-19,17
793,8642,0,-1701,-4723,23,-44,-19,17
794,8642,1,-1699,-4722,23,-43,-19,17
795,8639,2,-1707,-4722,23,-43,-19,17
796,8644,2,-1706,-4721,23,-44,-19,17
797,8640,7,-1699,-4722,23,-44,-19,17
798,8640,8,-1699,-4722,23,-44,-19,17
799,8640,5,-1699,-4723,23,-44,-19,17
800,8646,6,-1693,-4722,23,-44,-19,17
801,8646,6,-1694,-4720,23,-44,-19,17
802,8641,7,-1694,-4719,23,-44,-19,17
803,8641,7,-1695,-4721,23,-44,-18,17
804,8638,9,-1695,-4721,23,-44,-18,17
805,8637,8,-1690,-4723,23,-44,-18,17
806,8634,7,-1688,-4722,23,-44,-19,17
807,8633,6,-1689,-4723,23,-44,-19,17
808,8635,10,-1693,-4721,23,-43,-18,17
809,8643,5,-1688,-4720,23,-43,-19,17
810,8646,5,-1696,-4721,23,-43,-19,17
811,8645,7,-1700,-4721,23,-43,-19,17
812,8643,6,-1698,-4722,23,-43,-19,17
813,8644,9,-1701,-4721,23,-43,-19,17
814,8638,8,-1706,-4720,23,-43,-19,17
815,8641,10,-1702,-4720,23,-43,-19,17
816,8643,10,-1696,-4720,23,-44,-19,17
817,8647,8,-1699,-4722,23,-44,-19,17
818,8645,8,-1695,-4720,23,-44,-19,17
819,8644,8,-1695,-4722,23,-44,-19,17
820,8637,7,-1693,-4723,23,-44,-19,17
821,8638,7,-1696,-4722,23,-43,-19,17
822,8638,4,-1700,-4721,23,-44,-19,17
823,8633,2,-1709,-4722,23,-44,-19,17
824,8636,2,-1701,-4722,23,-44,-19,17
825,8638,0,-1702,-4721,23,-44,-19,17
826,8643,-1,-1696,-4719,23,-44,-19,17
827,8644,2,-1700,-4718,23,-43,-19,17
828,8642,10,-1698,-4720,23,-43,-19,17
829,8643,11,-1700,-4719,23,-44,-19,17
830,8640,9,-1703,-4720,23,-43,-19,17
831,8642,11,-1709,-4719,23,-43,-19,17
832,8645,5,-1712,-4721,23,-44,-20,17
833,8643,1,-1702,-4720,23,-44,-19,17
834,8640,3,-1700,-4720,23,-44,-19,17
835,8638,5,-1709,-4720,23,-44,-19,17
836,8637,5,-1708,-4720,23,-44,-19,17
837,8639,4,-1709,-4720,23,-43,-19,17
838,8636,4,-1709,-4720,23,-44,-19,17
839,8641,4,-1707,-4722,23,-43,-19,17
840,8640,3,-1699,-4722,23,-44,-19,17
841,8638,4,-1701,-4723,23,-43,-19,17
842,8637,-5,-1701,-4722,23,-43,-19,17
843,8642,0,-1691,-4722,23,-43,-19,17
844,8640,2,-1700,-4721,23,-43,-19,17
845,8639,0,-1703,-4720,23,-43,-19,17
846,8637,3,-1705,-4719,23,-43,-19,17
847,8638,6,-1704,-4718,23,-43,-19,17
848,8639,8,-1701,-4717,23,-43,-19,17
849,8640,9,-1703,-4717,23,-44,-19,17
850,8643,9,-1700,-4716,23,-44,-19,17
851,8646,7,-1696,-4716,23,-44,-19,17
852,8645,11,-1703,-4715,23,-44,-19,17
853,8641,8,-1699,-4716,23,-44,-19,17
854,8641,5,-1699,-4716,23,-44,-19,17
855,8636,7,-1695,-4716,23,-44,-19,17
856,8635,9,-1696,-4716,23,-43,-19,17
857,8634,12,-1704,-4714,23,-44,-19,17
858,8638,10,-1700,-4716,23,-43,-19,17
859,8639,10,-1694,-4717,23,-44,-19,17
860,8636,7,-1690,-4717,23,-44,-19,17
861,8637,9,-1702,-4715,23,-44,-19,17
862,8637,5,-1695,-4715,23,-44,-19,17
863,8634,1,-1696,-4716,23,-44,-19,17
864,8628,1,-1693,-4715,23,-44,-19,17
865,8633,5,-1692,-4715,23,-44,-19,17
866,8641,6,-1689,-4715,23,-43,-19,17
867,8640,6,-1693,-4715,23,-43,-19,17
868,8635,3,-1698,-4716,23,-43,-19,17
869,8632,7,-1700,-4715,23,-43,-19,17
870,8631,4,-1705,-4714,23,-44,-20,17
871,8630,7,-1704,-4715,23,-43,-20,17
872,8628,9,-1699,-4716,23,-44,-19,17
873,8633,6,-1698,-4715,23,-44,-19,17
874,8634,4,-1698,-4716,23,-44,-19,17
875,8639,7,-1700,-4717,23,-44,-19,17
876,8637,4,-1704,-4716,23,-44,-19,17
877,8635,4,-1706,-4715,23,-44,-19,17
878,8635,3,-1704,-4716,23,-44,-19,17
879,8633,2,-1708,-4717,23,-44,-19,17
880,8636,2,-1709,-4717,23,-44,-19,17
881,8637,1,-1704,-4717,23,-44,-19,17
882,8633,7,-1698,-4717,23,-44,-19,17
883,8635,3,-1700,-4719,23,-44,-19,17
884,8635,11,-1701,-4720,23,-44,-19,17
885,8636,9,-1705,-4719,23,-44,-19,17
886,8634,8,-1704,-4717,23,-44,-19,17
887,8634,2,-1705,-4716,23,-44,-19,17
888,8637,4,-1705,-4716,23,-44,-19,17
889,8640,7,-1707,-4716,23,-44,-19,17
890,8640,7,-1702,-4716,23,-44,-19,17
891,8638,7,-1702,-4717,23,-44,-19,17
892,8638,8,-1703,-4717,23,-44,-19,17
893,8639,6,-1700,-4717,23,-44,-19,17
894,8641,3,-1697,-4717,23,-44,-19,17
895,8642,5,-1700,-4717,23,-44,-19,17
896,8643,6,-1700,-4716,23,-44,-19,17
897,8643,5,-1705,-4716,23,-44,-19,17
898,8640,1,-1708,-4718,23,-44,-19,17
899,8640,-3,-1707,-4718,23,-43,-19,17
900,8640,-3,-1706,-4716,23,-43,-19,17
901,8639,-2,-1708,-4717,23,-43,-19,17
902,8637,0,-1702,-4716,23,-44,-19,17
903,8636,2,-1708,-4717,23,-44,-19,17
904,8634,3,-1700,-4718,23,-44,-19,17
905,8637,4,-1701,-4719,23,-44,-19,17
906,8637,6,-1697,-4718,23,-44,-19,17
907,8637,7,-1699,-4718,23,-44,-19,17
908,8641,6,-1698,-4717,23,-44,-19,17
909,8637,5,-1705,-4718,23,-44,-20,17
910,8632,4,-1707,-4717,23,-43,-20,17
911,8636,4,-1710,-4717,23,-44,-19,17
912,8631,5,-1698,-4717,23,-44,-19,17
913,8632,6,-1702,-4715,23,-44,-19,17
914,8633,11,-1708,-4717,23,-44,-19,17
915,8635,15,-1711,-4719,23,-43,-19,18
916,8638,12,-1701,-4718,23,-43,-19,18
917,8639,4,-1707,-4717,23,-44,-19,18
918,8640,4,-1705,-4717,23,-44,-19,17
919,8642,6,-1706,-4715,23,-43,-19,17
920,8639,8,-1707,-4717,23,-43,-19,17
921,8637,2,-1699,-4718,23,-43,-19,17
922,8639,4,-1702,-4715,23,-43,-19,17
923,8635,4,-1693,-4714,23,-44,-19,17
924,8638,11,-1693,-4713,23,-44,-19,17
925,8635,9,-1691,-4712,23,-44,-19,17
926,8637,10,-1695,-4714,23,-44,-19,17
927,8643,9,-1694,-4715,23,-44,-19,17
928,8643,8,-1696,-4716,23,-43,-19,17
929,8639,9,-1697,-4716,23,-44,-19,17
930,8638,9,-1697,-4715,23,-44,-19,17
931,8640,11,-1696,-4717,23,-44,-19,17
932,8638,15,-1694,-4718,23,-43,-19,17
933,8634,14,-1698,-4719,23,-43,-19,17
934,8634,10,-1697,-4719,23,-43,-19,17
935,8640,7,-1696,-4717,23,-43,-19,17
936,8636,3,-1687,-4718,23,-43,-19,17
937,8636,2,-1682,-4718,23,-44,-19,17
938,8629,-1,-1684,-4718,23,-43,-19,17
939,8628,-2,-1687,-4718,23,-43,-19,17
940,8630,1,-1686,-4715,23,-44,-19,17
941,8631,1,-1686,-4714,23,-44,-19,17
942,8632,-2,-1683,-4713,23,-44,-19,17
943,8630,0,-1687,-4714,23,-44,-19,17
944,8629,-1,-1694,-4714,23,-44,-19,17
945,8630,2,-1692,-4715,23,-44,-19,17
946,8630,3,-1692,-4714,23,-44,-19,17
947,8633,3,-1693,-4715,23,-44,-19,17
948,8636,5,-1693,-4716,23,-44,-19,17
949,8637,3,-1690,-4714,23,-44,-19,17
950,8634,4,-1692,-4714,23,-44,-19,17
951,8631,2,-1691,-4714,23,-44,-19,17
952,8633,5,-1699,-4713,23,-44,-19,17
953,8630,8,-1699,-4713,23,-44,-19,17
954,8630,8,-1699,-4713,23,-43,-19,17
955,8629,7,-1696,-4712,23,-43,-20,17
956,8630,10,-1697,-4712,23,-43,-19,17
957,8634,7,-1695,-4712,23,-43,-19,17
958,8633,12,-1691,-4713,23,-44,-19,17
959,8634,8,-1694,-4712,23,-44,-19,17
960,8633,8,-1691,-4712,23,-44,-19,17
961,8632,6,-1691,-4713,23,-44,-19,17
962,8635,8,-1693,-4713,23,-44,-20,17
963,8633,7,-1683,-4713,23,-44,-19,17
964,8628,7,-1688,-4713,23,-44,-19,17
965,8628,10,-1690,-4712,23,-44,-19,17
966,8632,16,-1694,-4712,23,-44,-19,17
967,8639,10,-1692,-4712,23,-44,-19,17
968,8640,11,-1694,-4712,23,-44,-19,17
969,8642,8,-1692,-4713,23,-43,-20,17
970,8638,10,-1689,-4713,23,-43,-20,17
971,8639,9,-1692,-4713,23,-43,-19,17
972,8639,8,-1701,-4714,23,-43,-19,17
973,8643,4,-1701,-4714,23,-43,-19,17
974,8639,9,-1701,-4715,23,-43,-19,17
975,8640,8,-1703,-4715,23,-44,-19,17
976,8637,9,-1703,-4716,23,-43,-19,17
977,8637,7,-1705,-4715,23,-43,-19,17
978,8637,6,-1705,-4715,23,-43,-19,17
979,8636,6,-1708,-4715,23,-44,-19,17
980,8637,8,-1704,-4714,23,-43,-19,17
981,8636,8,-1701,-4714,23,-44,-19,17
982,8636,6,-1694,-4712,23,-44,-19,17
983,8635,4,-1691,-4710,23,-44,-19,17
984,8634,0,-1686,-4710,23,-44,-20,17
985,8636,4,-1689,-4711,23,-44,-20,17
986,8638,6,-1690,-4711,23,-43,-20,17
987,8639,7,-1685,-4710,23,-43,-20,17
988,8637,2,-1691,-4712,23,-43,-19,17
989,8638,7,-1694,-4712,23,-43,-20,17
990,8642,7,-1695,-4712,23,-43,-19,17
991,8641,7,-1695,-4712,23,-44,-19,17
992,8639,6,-1704,-4713,23,-43,-20,17
993,8640,5,-1697,-4714,23,-43,-20,17
994,8637,6,-1699,-4714,23,-43,-20,17
995,8639,6,-1709,-4715,23,-44,-20,17
