,acc_X,acc_Y,acc_Z,temp,tempC,gyr_X,gyr_Y,gyr_Z
0,17292,20,-3408,-4713,23,-172,-75,69
1,17286,20,-3410,-4711,23,-172,-75,68
2,17286,12,-3420,-4711,23,-172,-76,68
3,17288,10,-3414,-4712,23,-173,-75,68
4,17286,18,-3418,-4712,23,-173,-75,69
5,17290,12,-3418,-4711,23,-173,-75,69
6,17292,14,-3416,-4714,23,-173,-74,68
7,17286,14,-3410,-4713,23,-173,-74,68
8,17288,16,-3422,-4712,23,-172,-75,69
9,17276,22,-3410,-4714,23,-172,-76,69
10,17274,20,-3400,-4716,23,-172,-75,69
11,17282,28,-3400,-4715,23,-172,-74,68
12,17282,22,-3406,-4716,23,-172,-75,68
13,17280,18,-3402,-4719,23,-172,-75,68
14,17274,16,-3396,-4718,23,-173,-75,67
15,17266,18,-3400,-4718,23,-173,-76,69
16,17256,22,-3386,-4717,23,-173,-76,68
17,17264,26,-3382,-4719,23,-173,-76,69
18,17268,20,-3402,-4716,23,-173,-76,71
19,17264,26,-3396,-4714,23,-173,-76,70
20,17268,24,-3394,-4716,23,-172,-75,70
21,17272,20,-3396,-4717,23,-173,-76,70
22,17264,16,-3400,-4716,23,-173,-75,69
23,17264,8,-3382,-4716,23,-174,-75,70
24,17264,12,-3380,-4716,23,-173,-75,69
25,17272,14,-3392,-4713,23,-173,-76,69
26,17278,16,-3406,-4713,23,-174,-76,70
27,17286,18,-3402,-4711,23,-174,-77,70
28,17282,24,-3408,-4711,23,-173,-77,69
29,17268,20,-3394,-4710,23,-173,-77,68
30,17268,26,-3380,-4712,23,-173,-75,68
31,17266,14,-3368,-4712,23,-174,-74,68
32,17262,8,-3380,-4712,23,-173,-74,68
33,17260,6,-3380,-4714,23,-173,-74,68
34,17266,10,-3392,-4715,23,-172,-74,68
35,17258,4,-3392,-4715,23,-171,-74,67
36,17258,10,-3394,-4715,23,-171,-75,66
37,17264,14,-3400,-4715,23,-171,-75,67
38,17274,8,-3406,-4716,23,-171,-76,67
39,17272,12,-3398,-4715,23,-170,-76,68
40,17270,14,-3398,-4715,23,-171,-76,69
41,17282,18,-3374,-4715,23,-170,-75,70
42,17280,18,-3372,-4714,23,-170,-76,70
43,17274,12,-3382,-4717,23,-172,-76,70
44,17280,12,-3386,-4716,23,-172,-74,69
45,17280,6,-3386,-4716,23,-173,-74,69
46,17278,2,-3374,-4716,23,-174,-75,68
47,17284,-2,-3384,-4716,23,-173,-74,68
48,17280,-4,-3386,-4716,23,-173,-74,68
49,17274,0,-3382,-4716,23,-174,-73,70
50,17272,2,-3384,-4715,23,-174,-75,69
51,17266,2,-3380,-4715,23,-174,-75,70
52,17270,2,-3400,-4714,23,-174,-77,68
53,17274,-2,-3398,-4713,23,-175,-77,69
54,17278,8,-3392,-4714,23,-174,-78,68
55,17276,6,-3400,-4714,23,-174,-77,68
56,17280,-4,-3392,-4714,23,-174,-76,69
57,17284,-2,-3402,-4712,23,-173,-75,68
58,17292,-2,-3402,-4714,23,-173,-76,69
59,17284,-10,-3412,-4713,23,-173,-75,69
60,17290,-8,-3408,-4713,23,-174,-75,70
61,17286,0,-3396,-4715,23,-173,-75,70
62,17292,4,-3388,-4715,23,-173,-76,69
63,17274,2,-3394,-4714,23,-172,-77,70
64,17270,2,-3392,-4713,23,-171,-76,69
65,17276,10,-3390,-4712,23,-173,-76,70
66,17274,2,-3396,-4711,23,-173,-76,70
67,17268,-4,-3394,-4711,23,-173,-75,70
68,17264,0,-3374,-4711,23,-172,-75,70
69,17266,-2,-3382,-4711,23,-172,-75,70
70,17270,-8,-3384,-4712,23,-173,-75,69
71,17272,-12,-3390,-4710,23,-173,-75,69
72,17272,-20,-3384,-4711,23,-172,-75,69
73,17270,-12,-3388,-4712,23,-173,-75,70
74,17272,-10,-3404,-4711,23,-174,-75,70
75,17278,-8,-3402,-4710,23,-175,-74,69
76,17280,-6,-3412,-4710,23,-174,-74,69
77,17292,-8,-3402,-4712,23,-173,-74,70
78,17294,0,-3398,-4713,23,-173,-75,70
79,17290,-4,-3402,-4712,23,-173,-75,70
80,17280,0,-3396,-4712,23,-172,-75,70
81,17284,20,-3390,-4713,23,-171,-76,69
82,17288,24,-3374,-4713,23,-173,-75,69
83,17284,26,-3378,-4714,23,-173,-75,70
84,17282,10,-3382,-4715,23,-173,-75,70
85,17284,22,-3376,-4716,23,-173,-74,71
86,17278,22,-3394,-4718,23,-173,-74,70
87,17276,20,-3408,-4717,23,-172,-75,70
88,17274,10,-3412,-4717,23,-174,-75,70
89,17284,6,-3408,-4716,23,-174,-74,70
90,17282,4,-3416,-4716,23,-173,-75,69
91,17280,18,-3410,-4711,23,-173,-75,69
92,17280,14,-3400,-4710,23,-172,-76,69
93,17282,10,-3392,-4710,23,-172,-76,70
94,17284,16,-3394,-4712,23,-172,-75,69
95,17280,18,-3414,-4711,23,-173,-75,68
96,17270,20,-3390,-4709,23,-172,-75,69
97,17284,32,-3394,-4710,23,-172,-75,68
98,17282,22,-3390,-4713,23,-173,-75,70
99,17274,16,-3402,-4715,23,-173,-74,70
100,17270,6,-3396,-4714,23,-174,-75,70
101,17268,4,-3410,-4715,23,-174,-74,70
102,17266,-2,-3410,-4715,23,-173,-75,69
103,17276,10,-3402,-4715,23,-173,-76,68
104,17276,6,-3402,-4715,23,-173,-77,68
105,17274,14,-3402,-4714,23,-172,-77,67
106,17272,10,-3382,-4712,23,-173,-76,67
107,17274,12,-3392,-4712,23,-173,-76,67
108,17280,10,-3402,-4710,23,-172,-76,68
109,17282,6,-3410,-4711,23,-171,-78,70
110,17280,10,-3396,-4712,23,-172,-77,69
111,17276,14,-3402,-4711,23,-173,-76,70
112,17272,16,-3388,-4711,23,-174,-76,69
113,17274,18,-3370,-4713,23,-174,-75,69
114,17284,14,-3378,-4712,23,-173,-75,69
115,17274,6,-3382,-4712,23,-172,-77,69
116,17272,4,-3394,-4711,23,-173,-76,70
117,17270,6,-3396,-4710,23,-174,-77,70
118,17272,8,-3394,-4709,23,-174,-77,70
119,17278,16,-3402,-4710,23,-173,-75,70
120,17280,20,-3400,-4710,23,-173,-76,70
121,17284,18,-3394,-4710,23,-173,-77,70
122,17286,10,-3400,-4710,23,-171,-76,71
123,17286,14,-3406,-4711,23,-171,-76,70
124,17282,22,-3412,-4711,23,-172,-76,70
125,17286,24,-3420,-4711,23,-172,-76,70
126,17292,20,-3394,-4711,23,-172,-75,70
127,17292,18,-3386,-4711,23,-172,-75,69
128,17282,18,-3386,-4710,23,-172,-75,70
129,17282,8,-3378,-4711,23,-172,-74,70
130,17284,8,-3376,-4711,23,-173,-74,69
131,17280,8,-3380,-4711,23,-173,-75,69
132,17280,16,-3380,-4710,23,-172,-74,69
133,17274,14,-3376,-4711,23,-173,-75,70
134,17272,18,-3380,-4710,23,-171,-75,69
135,17262,18,-3376,-4712,23,-172,-75,70
136,17266,14,-3380,-4713,23,-171,-75,70
137,17260,16,-3378,-4715,23,-172,-74,69
138,17272,2,-3384,-4714,23,-172,-74,70
139,17264,4,-3390,-4716,23,-173,-74,69
140,17270,12,-3392,-4716,23,-172,-75,69
141,17272,-2,-3386,-4714,23,-172,-77,68
142,17274,2,-3388,-4714,23,-172,-77,67
143,17274,0,-3388,-4713,23,-171,-76,67
144,17278,6,-3398,-4714,23,-171,-76,68
145,17280,6,-3406,-4714,23,-171,-77,69
146,17282,6,-3398,-4713,23,-172,-77,69
147,17294,6,-3412,-4714,23,-172,-76,69
148,17286,2,-3406,-4715,23,-172,-77,69
149,17292,2,-3404,-4714,23,-172,-77,69
150,17288,8,-3404,-4714,23,-172,-77,70
151,17282,4,-3390,-4714,23,-173,-78,69
152,17282,6,-3376,-4715,23,-172,-77,70
153,17284,2,-3372,-4716,23,-172,-77,71
154,17286,10,-3362,-4714,23,-172,-76,71
155,17292,20,-3388,-4713,23,-171,-76,71
156,17292,10,-3390,-4713,23,-172,-76,70
157,17290,8,-3408,-4714,23,-172,-76,70
158,17284,6,-3414,-4713,23,-171,-76,71
159,17272,8,-3420,-4712,23,-172,-76,70
160,17272,2,-3398,-4715,23,-172,-76,70
161,17270,2,-3404,-4714,23,-172,-75,69
162,17274,-8,-3396,-4715,23,-173,-74,69
163,17280,-16,-3398,-4715,23,-172,-74,69
164,17278,-8,-3398,-4716,23,-171,-74,69
165,17276,6,-3400,-4715,23,-173,-75,70
166,17276,12,-3400,-4715,23,-172,-75,69
167,17282,10,-3386,-4716,23,-172,-74,70
168,17276,10,-3386,-4716,23,-172,-73,69
169,17260,4,-3386,-4714,23,-171,-73,69
170,17260,0,-3392,-4713,23,-171,-74,69
171,17266,-10,-3390,-4714,23,-172,-74,70
172,17272,-4,-3378,-4714,23,-171,-75,69
173,17278,10,-3384,-4713,23,-172,-75,70
174,17284,16,-3382,-4714,23,-172,-76,69
175,17290,14,-3396,-4711,23,-172,-76,69
176,17296,12,-3384,-4710,23,-171,-75,69
177,17294,20,-3390,-4712,23,-171,-75,69
178,17298,22,-3400,-4711,23,-171,-76,69
179,17294,14,-3402,-4711,23,-171,-75,69
180,17286,20,-3398,-4712,23,-171,-75,70
181,17290,16,-3398,-4712,23,-172,-75,70
182,17286,6,-3406,-4714,23,-172,-74,70
183,17288,6,-3402,-4714,23,-172,-75,70
184,17278,4,-3394,-4712,23,-173,-75,70
185,17278,12,-3392,-4712,23,-173,-75,70
186,17274,10,-3398,-4710,23,-173,-75,70
187,17270,6,-3394,-4710,23,-172,-75,68
188,17272,8,-3396,-4711,23,-172,-74,68
189,17268,0,-3400,-4713,23,-171,-74,68
190,17278,-6,-3402,-4714,23,-172,-75,69
191,17276,6,-3402,-4712,23,-171,-76,69
192,17280,0,-3404,-4713,23,-171,-76,70
193,17284,8,-3404,-4714,23,-171,-76,69
194,17290,2,-3418,-4714,23,-172,-76,69
195,17302,6,-3408,-4714,23,-173,-77,70
196,17290,6,-3408,-4714,23,-172,-77,68
197,17296,14,-3402,-4715,23,-173,-77,68
198,17298,12,-3400,-4714,23,-173,-76,69
199,17286,10,-3402,-4714,23,-173,-75,68
200,17282,18,-3410,-4713,23,-172,-76,69
201,17278,10,-3402,-4714,23,-171,-75,69
202,17286,12,-3408,-4713,23,-171,-75,70
203,17276,16,-3418,-4713,23,-172,-76,69
204,17280,14,-3414,-4713,23,-172,-76,69
205,17284,8,-3400,-4714,23,-172,-75,70
206,17294,10,-3396,-4714,23,-172,-75,70
207,17292,8,-3400,-4715,23,-171,-76,70
208,17288,6,-3396,-4712,23,-171,-76,69
209,17290,4,-3404,-4711,23,-171,-75,68
210,17288,6,-3394,-4711,23,-172,-75,69
211,17284,6,-3396,-4712,23,-173,-75,68
212,17286,2,-3382,-4711,23,-173,-75,68
213,17288,-2,-3382,-4712,23,-173,-74,68
214,17294,-4,-3402,-4713,23,-173,-74,68
215,17280,-2,-3396,-4713,23,-173,-75,69
216,17280,0,-3390,-4714,23,-173,-75,68
217,17274,8,-3382,-4713,23,-174,-75,67
218,17258,8,-3386,-4712,23,-173,-76,68
219,17264,2,-3372,-4711,23,-172,-76,69
220,17264,6,-3384,-4713,23,-173,-77,68
221,17272,6,-3390,-4716,23,-173,-77,68
222,17276,10,-3396,-4714,23,-174,-77,69
223,17284,10,-3406,-4713,23,-174,-75,69
224,17284,14,-3390,-4713,23,-173,-75,70
225,17282,10,-3392,-4714,23,-172,-74,69
226,17276,16,-3396,-4716,23,-172,-75,68
227,17272,24,-3408,-4715,23,-173,-76,70
228,17272,22,-3406,-4714,23,-173,-76,71
229,17274,18,-3416,-4713,23,-174,-76,70
230,17276,22,-3404,-4714,23,-173,-75,71
231,17276,16,-3402,-4714,23,-174,-75,69
232,17282,26,-3406,-4712,23,-174,-76,69
233,17288,16,-3406,-4714,23,-174,-76,69
234,17286,16,-3404,-4716,23,-173,-77,69
235,17286,14,-3406,-4716,23,-174,-76,69
236,17286,18,-3398,-4715,23,-173,-76,69
237,17290,14,-3402,-4716,23,-172,-75,69
238,17292,22,-3402,-4716,23,-173,-76,69
239,17294,14,-3406,-4715,23,-174,-75,68
240,17296,16,-3402,-4715,23,-175,-76,68
241,17288,12,-3408,-4714,23,-174,-76,68
242,17284,12,-3410,-4712,23,-172,-76,68
243,17284,18,-3410,-4712,23,-174,-77,68
244,17278,16,-3418,-4711,23,-174,-77,68
245,17284,8,-3426,-4710,23,-173,-77,68
246,17288,16,-3420,-4712,23,-174,-78,68
247,17294,12,-3412,-4713,23,-173,-78,69
248,17286,12,-3410,-4712,23,-174,-77,69
249,17290,10,-3412,-4711,23,-174,-77,70
250,17280,6,-3422,-4713,23,-174,-77,70
251,17292,-2,-3396,-4712,23,-173,-75,70
252,17290,0,-3400,-4712,23,-173,-76,70
253,17290,0,-3402,-4712,23,-173,-76,69
254,17278,2,-3400,-4712,23,-173,-76,68
255,17270,8,-3392,-4713,23,-173,-76,69
256,17268,4,-3386,-4713,23,-173,-76,69
257,17274,2,-3392,-4714,23,-173,-75,69
258,17278,16,-3396,-4715,23,-173,-75,69
259,17276,20,-3392,-4713,23,-173,-75,70
260,17282,20,-3390,-4714,23,-173,-75,70
261,17278,18,-3398,-4713,23,-174,-76,69
262,17278,2,-3396,-4712,23,-173,-77,69
263,17286,2,-3404,-4712,23,-173,-78,68
264,17278,0,-3398,-4711,23,-172,-76,67
265,17272,2,-3402,-4712,23,-174,-76,67
266,17276,0,-3388,-4713,23,-173,-77,68
267,17270,-2,-3390,-4712,23,-174,-76,69
268,17282,2,-3388,-4712,23,-173,-75,69
269,17286,-4,-3382,-4711,23,-173,-75,69
270,17282,8,-3380,-4711,23,-173,-74,70
271,17284,6,-3378,-4712,23,-173,-75,70
272,17282,4,-3390,-4713,23,-172,-76,70
273,17280,4,-3388,-4713,23,-172,-76,70
274,17282,8,-3388,-4712,23,-171,-75,70
275,17290,8,-3396,-4712,23,-171,-75,69
276,17290,10,-3394,-4712,23,-172,-75,70
277,17286,16,-3382,-4710,23,-172,-75,71
278,17288,20,-3386,-4711,23,-172,-75,70
279,17296,16,-3386,-4711,23,-173,-77,69
280,17290,16,-3368,-4712,23,-174,-77,69
281,17294,12,-3380,-4713,23,-175,-78,69
282,17290,14,-3394,-4712,23,-173,-78,70
283,17286,6,-3392,-4711,23,-173,-77,69
284,17286,4,-3398,-4712,23,-174,-77,68
285,17282,0,-3404,-4713,23,-174,-76,67
286,17286,-4,-3398,-4715,23,-173,-76,68
287,17280,6,-3400,-4714,23,-174,-76,68
288,17278,10,-3404,-4716,23,-175,-75,69
289,17268,12,-3410,-4714,23,-174,-75,69
290,17274,2,-3396,-4714,23,-174,-75,68
291,17274,2,-3398,-4715,23,-174,-75,68
292,17272,12,-3402,-4714,23,-175,-75,68
293,17268,12,-3414,-4713,23,-173,-76,68
294,17274,4,-3408,-4710,23,-174,-76,68
295,17276,0,-3400,-4710,23,-174,-76,68
296,17278,12,-3402,-4710,23,-173,-75,68
297,17286,10,-3394,-4710,23,-174,-76,69
298,17276,0,-3396,-4710,23,-174,-76,68
299,17290,-4,-3414,-4712,23,-173,-77,68
300,17292,-2,-3410,-4710,23,-173,-76,68
301,17292,2,-3406,-4708,23,-173,-76,69
302,17286,-6,-3392,-4708,23,-173,-75,69
303,17290,2,-3392,-4709,23,-172,-75,69
304,17286,12,-3394,-4709,23,-173,-74,70
305,17290,10,-3394,-4707,23,-172,-74,70
306,17298,8,-3388,-4708,23,-173,-76,70
307,17294,8,-3390,-4709,23,-173,-77,70
308,17298,12,-3402,-4708,23,-173,-78,70
309,17300,8,-3408,-4709,23,-173,-76,70
310,17286,8,-3390,-4708,23,-173,-77,70
311,17280,6,-3392,-4710,23,-173,-77,70
312,17280,12,-3392,-4708,23,-173,-76,69
313,17284,14,-3410,-4707,23,-174,-76,68
314,17282,8,-3408,-4707,23,-174,-75,69
315,17274,12,-3402,-4708,23,-175,-73,69
316,17272,14,-3400,-4708,23,-174,-74,69
317,17278,26,-3394,-4709,23,-174,-73,69
318,17276,24,-3388,-4708,23,-174,-74,70
319,17264,22,-3400,-4708,23,-173,-74,69
320,17270,26,-3394,-4709,23,-173,-73,69
321,17270,24,-3374,-4710,23,-173,-73,69
322,17272,14,-3372,-4708,23,-173,-74,69
323,17280,22,-3386,-4709,23,-173,-75,70
324,17290,20,-3392,-4709,23,-173,-76,69
325,17304,18,-3398,-4710,23,-172,-75,69
326,17298,12,-3400,-4709,23,-172,-75,70
327,17290,18,-3394,-4708,23,-171,-76,71
328,17290,20,-3386,-4709,23,-171,-77,70
329,17282,20,-3394,-4711,23,-172,-76,69
330,17278,18,-3398,-4711,23,-172,-76,69
331,17292,10,-3386,-4711,23,-173,-75,69
332,17300,8,-3392,-4711,23,-173,-74,70
333,17292,8,-3396,-4710,23,-174,-76,71
334,17292,10,-3402,-4709,23,-174,-75,71
335,17296,12,-3386,-4708,23,-175,-74,70
336,17292,12,-3374,-4708,23,-173,-75,71
337,17292,10,-3386,-4709,23,-173,-75,71
338,17294,14,-3402,-4710,23,-173,-74,71
339,17296,20,-3418,-4711,23,-174,-75,71
340,17298,24,-3416,-4712,23,-173,-75,71
341,17290,28,-3406,-4713,23,-173,-76,69
342,17286,26,-3390,-4713,23,-173,-76,70
343,17284,28,-3388,-4712,23,-174,-76,70
344,17292,18,-3382,-4710,23,-175,-75,69
345,17292,4,-3386,-4711,23,-174,-76,69
346,17284,0,-3394,-4711,23,-174,-77,69
347,17280,2,-3394,-4709,23,-174,-76,69
348,17272,-8,-3392,-4709,23,-175,-76,69
349,17276,-10,-3392,-4711,23,-175,-75,69
350,17274,-4,-3396,-4711,23,-175,-75,69
351,17270,8,-3404,-4710,23,-176,-75,69
352,17276,14,-3404,-4710,23,-175,-76,70
353,17278,18,-3404,-4711,23,-174,-77,71
354,17272,16,-3396,-4711,23,-174,-76,70
355,17274,14,-3402,-4710,23,-174,-77,69
356,17274,16,-3388,-4710,23,-173,-75,69
357,17262,16,-3374,-4710,23,-172,-75,68
358,17262,18,-3386,-4709,23,-172,-75,68
359,17272,20,-3390,-4709,23,-172,-75,68
360,17274,26,-3386,-4708,23,-172,-77,69
361,17282,14,-3384,-4710,23,-173,-76,69
362,17280,12,-3404,-4711,23,-173,-75,69
363,17278,14,-3400,-4709,23,-173,-74,69
364,17282,30,-3412,-4708,23,-172,-75,69
365,17280,32,-3410,-4707,23,-173,-76,69
366,17288,34,-3412,-4707,23,-172,-76,69
367,17300,40,-3426,-4707,23,-172,-75,68
368,17296,34,-3408,-4706,23,-173,-75,68
369,17286,26,-3410,-4706,23,-173,-74,69
370,17284,18,-3422,-4705,23,-173,-73,69
371,17288,6,-3410,-4707,23,-172,-74,69
372,17296,4,-3406,-4708,23,-172,-74,69
373,17288,4,-3408,-4706,23,-172,-75,69
374,17292,12,-3408,-4705,23,-172,-75,68
375,17288,8,-3402,-4706,23,-171,-75,69
376,17282,8,-3406,-4708,23,-173,-75,69
377,17278,10,-3402,-4707,23,-173,-75,70
378,17276,4,-3406,-4705,23,-173,-74,70
379,17272,12,-3404,-4706,23,-173,-73,69
380,17272,6,-3406,-4705,23,-173,-74,69
381,17284,4,-3410,-4704,23,-173,-74,68
382,17274,12,-3400,-4705,23,-173,-75,68
383,17270,4,-3416,-4706,23,-172,-76,68
384,17276,2,-3406,-4708,23,-172,-76,69
385,17282,12,-3396,-4709,23,-172,-76,68
386,17278,12,-3406,-4708,23,-172,-75,69
387,17272,8,-3420,-4706,23,-172,-75,69
388,17270,10,-3412,-4707,23,-172,-76,70
389,17280,12,-3402,-4708,23,-173,-77,72
390,17276,20,-3400,-4707,23,-174,-77,71
391,17282,20,-3388,-4708,23,-174,-76,70
392,17278,16,-3404,-4706,23,-173,-76,70
393,17272,6,-3416,-4705,23,-173,-77,70
394,17256,4,-3408,-4704,23,-173,-75,70
395,17258,12,-3404,-4706,23,-173,-76,70
396,17262,20,-3412,-4706,23,-173,-76,71
397,17262,22,-3404,-4705,23,-172,-75,71
398,17266,16,-3404,-4707,23,-173,-74,70
399,17266,10,-3404,-4706,23,-172,-76,71
400,17266,8,-3394,-4705,23,-172,-77,71
401,17272,12,-3400,-4706,23,-172,-76,71
402,17276,16,-3396,-4707,23,-173,-78,70
403,17282,18,-3402,-4706,23,-172,-77,70
404,17278,14,-3424,-4707,23,-173,-77,70
405,17282,18,-3420,-4707,23,-172,-77,70
406,17286,22,-3422,-4707,23,-173,-77,70
407,17286,18,-3430,-4708,23,-172,-76,71
408,17276,10,-3428,-4709,23,-173,-75,70
409,17276,0,-3412,-4710,23,-173,-76,70
410,17272,4,-3412,-4709,23,-172,-75,69
411,17274,10,-3402,-4709,23,-173,-75,69
412,17282,18,-3410,-4709,23,-174,-75,69
413,17284,20,-3408,-4709,23,-174,-75,69
414,17288,14,-3404,-4708,23,-173,-76,69
415,17294,16,-3410,-4708,23,-174,-75,69
416,17294,28,-3402,-4708,23,-173,-74,70
417,17290,20,-3392,-4710,23,-172,-75,69
418,17288,16,-3390,-4711,23,-173,-75,70
419,17284,18,-3392,-4711,23,-174,-74,69
420,17276,22,-3388,-4711,23,-173,-74,69
421,17274,30,-3412,-4710,23,-174,-73,68
422,17272,24,-3416,-4708,23,-174,-74,68
423,17276,18,-3410,-4706,23,-173,-74,69
424,17278,22,-3400,-4707,23,-175,-73,70
425,17278,18,-3394,-4707,23,-175,-73,71
426,17286,10,-3392,-4707,23,-174,-73,70
427,17286,2,-3406,-4708,23,-174,-73,71
428,17284,-2,-3404,-4707,23,-173,-73,71
429,17276,-6,-3394,-4706,23,-173,-73,71
430,17282,6,-3394,-4706,23,-174,-73,71
431,17298,6,-3378,-4708,23,-174,-73,70
432,17292,10,-3384,-4710,23,-172,-73,70
433,17290,4,-3380,-4709,23,-171,-73,69
434,17284,4,-3380,-4709,23,-172,-73,70
435,17288,10,-3380,-4706,23,-172,-74,70
436,17282,12,-3380,-4705,23,-173,-74,69
437,17280,12,-3396,-4703,23,-173,-75,69
438,17284,10,-3394,-4704,23,-173,-75,69
439,17286,10,-3400,-4705,23,-172,-75,68
440,17276,10,-3408,-4706,23,-171,-76,69
441,17274,18,-3410,-4705,23,-171,-76,69
442,17280,24,-3410,-4705,23,-171,-74,70
443,17276,14,-3422,-4705,23,-172,-76,70
444,17280,20,-3416,-4707,23,-173,-77,69
445,17272,10,-3410,-4706,23,-172,-76,69
446,17276,0,-3394,-4705,23,-172,-76,69
447,17272,2,-3390,-4706,23,-173,-77,70
448,17272,8,-3386,-4706,23,-172,-75,70
449,17282,4,-3390,-4706,23,-173,-74,69
450,17278,0,-3398,-4707,23,-173,-74,69
451,17286,-8,-3400,-4708,23,-173,-75,69
452,17274,-16,-3392,-4707,23,-173,-75,69
453,17264,-18,-3392,-4708,23,-173,-74,69
454,17266,-18,-3398,-4709,23,-173,-75,69
455,17266,-26,-3402,-4707,23,-174,-75,70
456,17272,-18,-3390,-4706,23,-174,-74,70
457,17272,-18,-3386,-4706,23,-173,-75,69
458,17282,-18,-3380,-4706,23,-172,-75,69
459,17274,-16,-3370,-4706,23,-173,-76,69
460,17262,-12,-3368,-4706,23,-174,-77,69
461,17250,0,-3362,-4706,23,-175,-76,69
462,17264,8,-3366,-4704,23,-174,-76,69
463,17260,14,-3366,-4706,23,-174,-75,69
464,17270,20,-3376,-4706,23,-175,-75,68
465,17280,26,-3370,-4706,23,-175,-75,68
466,17284,30,-3392,-4708,23,-175,-75,67
467,17282,22,-3398,-4707,23,-174,-75,68
468,17284,10,-3404,-4707,23,-175,-75,68
469,17282,4,-3414,-4708,23,-173,-75,68
470,17284,14,-3414,-4709,23,-174,-76,69
471,17286,10,-3412,-4710,23,-173,-74,70
472,17278,6,-3404,-4710,23,-173,-73,69
473,17274,-2,-3414,-4709,23,-173,-72,70
474,17284,0,-3400,-4708,23,-173,-72,70
475,17286,2,-3418,-4708,23,-173,-72,69
476,17292,6,-3408,-4709,23,-173,-74,69
477,17290,10,-3402,-4708,23,-173,-73,68
478,17286,16,-3398,-4707,23,-173,-75,68
479,17288,24,-3394,-4707,23,-173,-74,69
480,17290,24,-3400,-4707,23,-172,-73,69
481,17280,28,-3394,-4704,23,-173,-74,69
482,17278,24,-3392,-4703,23,-173,-73,69
483,17278,18,-3388,-4702,23,-173,-73,68
484,17274,16,-3380,-4704,23,-172,-74,70
485,17272,10,-3382,-4704,23,-172,-75,69
486,17276,8,-3382,-4705,23,-173,-75,69
487,17268,10,-3392,-4707,23,-174,-75,68
488,17276,18,-3386,-4707,23,-174,-75,68
489,17274,22,-3376,-4704,23,-173,-75,69
490,17274,10,-3376,-4704,23,-172,-74,69
491,17274,6,-3386,-4704,23,-172,-74,70
492,17272,0,-3382,-4705,23,-172,-75,71
493,17272,10,-3390,-4706,23,-171,-75,70
494,17276,12,-3382,-4704,23,-172,-76,69
495,17282,14,-3384,-4703,23,-172,-76,69
496,17276,14,-3380,-4703,23,-172,-74,69
497,17284,4,-3388,-4706,23,-172,-74,69
498,17294,14,-3396,-4707,23,-172,-74,69
499,17298,12,-3388,-4707,23,-173,-74,70
500,17286,16,-3386,-4708,23,-173,-75,69
501,17286,16,-3386,-4706,23,-173,-74,69
502,17292,20,-3382,-4704,23,-172,-74,69
503,17296,18,-3376,-4705,23,-172,-75,69
504,17288,24,-3390,-4705,23,-172,-75,69
505,17286,8,-3388,-4707,23,-173,-76,70
506,17290,6,-3392,-4705,23,-173,-75,71
507,17292,2,-3404,-4705,23,-172,-75,69
508,17286,0,-3398,-4705,23,-172,-75,69
509,17278,10,-3396,-4707,23,-173,-75,68
510,17284,2,-3390,-4707,23,-173,-75,68
511,17284,6,-3396,-4706,23,-173,-75,69
512,17278,-6,-3412,-4707,23,-174,-76,68
513,17284,-2,-3410,-4706,23,-174,-75,68
514,17290,-2,-3410,-4707,23,-175,-77,68
515,17282,2,-3394,-4707,23,-174,-77,68
516,17274,10,-3394,-4706,23,-172,-76,69
517,17278,12,-3406,-4705,23,-173,-77,69
518,17268,6,-3410,-4706,23,-174,-75,70
519,17272,2,-3410,-4706,23,-174,-75,70
520,17272,4,-3396,-4706,23,-174,-75,70
521,17272,4,-3414,-4706,23,-174,-75,69
522,17286,0,-3400,-4706,23,-174,-76,69
523,17278,-2,-3394,-4707,23,-174,-75,69
524,17278,0,-3406,-4708,23,-174,-76,69
525,17288,2,-3404,-4707,23,-174,-75,68
526,17286,0,-3390,-4706,23,-173,-75,70
527,17290,-4,-3370,-4707,23,-174,-74,69
528,17292,2,-3380,-4705,23,-174,-74,69
529,17296,2,-3384,-4705,23,-173,-75,69
530,17290,0,-3378,-4706,23,-172,-76,69
531,17294,-6,-3388,-4707,23,-172,-75,70
532,17294,-2,-3374,-4709,23,-172,-75,70
533,17282,-6,-3378,-4709,23,-173,-76,68
534,17272,-8,-3376,-4709,23,-173,-75,69
535,17266,-8,-3386,-4710,23,-173,-76,70
536,17260,-8,-3378,-4710,23,-172,-76,69
537,17262,-10,-3376,-4708,23,-172,-76,69
538,17260,-10,-3376,-4708,23,-172,-78,68
539,17268,-2,-3380,-4708,23,-173,-77,69
540,17270,2,-3370,-4708,23,-173,-76,69
541,17268,-4,-3372,-4709,23,-172,-76,70
542,17266,4,-3372,-4707,23,-173,-75,70
543,17264,-2,-3368,-4705,23,-174,-76,70
544,17268,-2,-3384,-4706,23,-173,-75,70
545,17272,4,-3390,-4706,23,-173,-75,71
546,17272,8,-3398,-4704,23,-174,-76,70
547,17284,6,-3396,-4704,23,-174,-76,69
548,17286,2,-3396,-4705,23,-175,-77,68
549,17266,10,-3402,-4707,23,-173,-76,68
550,17272,18,-3394,-4707,23,-172,-76,67
551,17270,10,-3396,-4707,23,-172,-75,69
552,17276,6,-3378,-4707,23,-173,-75,70
553,17266,6,-3384,-4705,23,-173,-75,70
554,17272,2,-3392,-4706,23,-173,-74,70
555,17276,4,-3402,-4706,23,-174,-74,70
556,17282,4,-3408,-4706,23,-173,-75,70
557,17286,10,-3398,-4707,23,-173,-76,71
558,17280,10,-3394,-4705,23,-172,-76,70
559,17286,10,-3394,-4707,23,-173,-75,69
560,17280,0,-3400,-4707,23,-173,-76,69
561,17292,0,-3400,-4706,23,-173,-75,70
562,17290,2,-3402,-4708,23,-173,-75,70
563,17284,-2,-3400,-4708,23,-173,-76,70
564,17294,-2,-3400,-4707,23,-173,-75,69
565,17296,10,-3406,-4709,23,-173,-75,70
566,17294,20,-3406,-4707,23,-172,-75,70
567,17284,18,-3390,-4706,23,-172,-76,68
568,17282,18,-3396,-4706,23,-173,-76,68
569,17284,10,-3384,-4705,23,-174,-76,68
570,17278,2,-3392,-4705,23,-174,-76,69
571,17286,10,-3410,-4707,23,-173,-77,69
572,17286,14,-3412,-4706,23,-173,-77,69
573,17286,10,-3408,-4705,23,-173,-76,68
574,17282,6,-3390,-4705,23,-172,-77,69
575,17286,12,-3380,-4706,23,-172,-77,68
576,17284,14,-3374,-4708,23,-172,-77,69
577,17280,22,-3380,-4707,23,-172,-78,68
578,17282,22,-3392,-4707,23,-171,-77,69
579,17280,32,-3400,-4706,23,-172,-76,68
580,17276,28,-3388,-4705,23,-172,-77,69
581,17282,24,-3390,-4708,23,-172,-78,70
582,17276,26,-3392,-4707,23,-171,-78,70
583,17282,24,-3410,-4705,23,-172,-77,71
584,17290,14,-3408,-4708,23,-173,-77,70
585,17288,10,-3386,-4706,23,-174,-77,70
586,17288,12,-3392,-4707,23,-173,-76,70
587,17286,18,-3380,-4704,23,-173,-76,69
588,17282,22,-3390,-4706,23,-173,-74,69
589,17286,16,-3386,-4705,23,-172,-75,69
590,17290,10,-3386,-4705,23,-172,-75,70
591,17288,6,-3378,-4703,23,-173,-74,69
592,17286,14,-3368,-4704,23,-173,-76,70
593,17290,14,-3374,-4703,23,-172,-75,71
594,17292,22,-3376,-4703,23,-172,-75,70
595,17288,18,-3380,-4702,23,-171,-74,69
596,17278,24,-3388,-4702,23,-173,-74,71
597,17278,28,-3382,-4703,23,-172,-73,70
598,17276,18,-3382,-4703,23,-173,-73,71
599,17280,10,-3390,-4705,23,-173,-73,71
600,17284,18,-3386,-4706,23,-172,-73,71
601,17290,12,-3374,-4705,23,-173,-74,70
602,17288,-2,-3372,-4704,23,-172,-75,70
603,17284,0,-3374,-4703,23,-172,-74,69
604,17280,0,-3380,-4703,23,-173,-73,69
605,17280,2,-3382,-4705,23,-174,-72,69
606,17278,-6,-3380,-4705,23,-172,-72,70
607,17284,6,-3390,-4707,23,-172,-73,70
608,17288,8,-3396,-4706,23,-172,-73,69
609,17292,16,-3382,-4705,23,-172,-74,69
610,17292,18,-3400,-4706,23,-172,-74,68
611,17286,8,-3390,-4704,23,-173,-74,68
612,17286,16,-3386,-4705,23,-172,-75,69
613,17282,6,-3406,-4704,23,-173,-74,69
614,17276,16,-3412,-4706,23,-173,-74,70
615,17288,14,-3392,-4707,23,-175,-74,70
616,17286,20,-3398,-4707,23,-175,-74,69
617,17292,12,-3406,-4705,23,-174,-74,69
618,17290,8,-3408,-4706,23,-173,-74,69
619,17292,18,-3408,-4705,23,-173,-74,69
620,17280,20,-3400,-4705,23,-173,-75,70
621,17280,12,-3396,-4706,23,-173,-75,69
622,17280,18,-3396,-4705,23,-173,-74,69
623,17280,22,-3398,-4706,23,-173,-74,71
624,17282,16,-3400,-4707,23,-173,-74,71
625,17282,16,-3398,-4706,23,-172,-75,72
626,17278,4,-3406,-4706,23,-173,-74,72
627,17276,2,-3406,-4707,23,-173,-74,71
628,17276,10,-3406,-4707,23,-173,-74,70
629,17270,12,-3406,-4706,23,-174,-74,70
630,17270,20,-3402,-4705,23,-175,-75,69
631,17274,18,-3404,-4706,23,-174,-75,69
632,17276,18,-3404,-4705,23,-174,-74,69
633,17276,22,-3402,-4706,23,-174,-74,70
634,17280,20,-3394,-4706,23,-174,-75,69
635,17278,18,-3394,-4705,23,-172,-76,69
636,17276,16,-3388,-4706,23,-171,-75,69
637,17284,10,-3398,-4705,23,-172,-75,70
638,17280,6,-3386,-4706,23,-172,-74,70
639,17286,6,-3388,-4704,23,-173,-75,69
640,17284,14,-3392,-4704,23,-173,-75,69
641,17290,10,-3400,-4705,23,-174,-75,69
642,17300,10,-3392,-4704,23,-174,-74,68
643,17296,12,-3386,-4703,23,-173,-75,69
644,17302,8,-3390,-4703,23,-174,-76,70
645,17292,8,-3380,-4704,23,-174,-74,70
646,17290,6,-3378,-4705,23,-173,-75,69
647,17284,4,-3392,-4703,23,-174,-75,70
648,17276,14,-3388,-4702,23,-174,-76,69
649,17270,20,-3364,-4702,23,-173,-76,69
650,17272,18,-3364,-4703,23,-173,-75,68
651,17274,22,-3380,-4704,23,-173,-75,68
652,17272,18,-3370,-4703,23,-171,-76,68
653,17280,14,-3380,-4703,23,-173,-76,69
654,17292,12,-3362,-4706,23,-172,-77,69
655,17290,16,-3364,-4706,23,-172,-76,68
656,17284,6,-3376,-4705,23,-173,-76,69
657,17280,6,-3382,-4704,23,-173,-75,69
658,17274,4,-3368,-4704,23,-173,-74,69
659,17272,16,-3366,-4704,23,-174,-73,69
660,17270,10,-3376,-4704,23,-173,-72,69
661,17276,6,-3388,-4705,23,-173,-74,69
662,17286,6,-3376,-4705,23,-174,-74,69
663,17286,10,-3388,-4706,23,-174,-73,68
664,17286,18,-3382,-4706,23,-172,-75,69
665,17276,14,-3376,-4705,23,-173,-76,68
666,17272,20,-3386,-4706,23,-172,-75,68
667,17276,22,-3372,-4705,23,-173,-75,68
668,17268,18,-3382,-4705,23,-172,-75,68
669,17274,16,-3382,-4707,23,-172,-74,70
670,17278,14,-3394,-4708,23,-173,-75,70
671,17284,20,-3406,-4707,23,-172,-75,70
672,17280,10,-3404,-4706,23,-173,-76,70
673,17280,16,-3402,-4707,23,-173,-75,69
674,17274,10,-3422,-4704,23,-172,-76,70
675,17274,6,-3408,-4701,23,-172,-77,70
676,17270,-2,-3406,-4702,23,-172,-77,70
677,17276,8,-3406,-4702,23,-171,-76,70
678,17282,14,-3402,-4704,23,-172,-75,71
679,17292,14,-3400,-4704,23,-171,-76,70
680,17292,10,-3398,-4704,23,-171,-76,70
681,17292,10,-3402,-4704,23,-172,-76,69
682,17288,8,-3402,-4705,23,-173,-75,69
683,17292,10,-3392,-4704,23,-174,-76,69
684,17286,16,-3396,-4705,23,-175,-75,69
685,17288,12,-3396,-4704,23,-175,-76,70
686,17280,12,-3388,-4704,23,-175,-76,71
687,17276,12,-3398,-4705,23,-173,-75,70
688,17276,16,-3408,-4704,23,-173,-75,69
689,17284,14,-3422,-4703,23,-173,-74,69
690,17274,10,-3424,-4704,23,-173,-75,69
691,17270,6,-3424,-4706,23,-172,-76,70
692,17268,10,-3414,-4706,23,-172,-76,70
693,17262,12,-3420,-4704,23,-173,-77,70
694,17266,20,-3424,-4703,23,-173,-76,69
695,17272,18,-3418,-4703,23,-173,-76,69
696,17270,18,-3418,-4703,23,-174,-76,69
697,17270,18,-3408,-4703,23,-173,-76,69
698,17274,12,-3402,-4703,23,-174,-76,70
699,17270,6,-3392,-4704,23,-173,-76,70
700,17270,8,-3398,-4705,23,-172,-75,70
701,17266,-2,-3404,-4705,23,-173,-75,70
702,17258,-10,-3412,-4704,23,-174,-76,71
703,17266,-8,-3408,-4704,23,-174,-74,71
704,17272,-6,-3406,-4705,23,-173,-76,70
705,17280,4,-3400,-4704,23,-172,-76,70
706,17274,2,-3394,-4701,23,-172,-75,69
707,17272,4,-3396,-4700,23,-173,-75,69
708,17268,4,-3392,-4701,23,-173,-76,68
709,17264,-6,-3392,-4700,23,-174,-76,68
710,17270,10,-3394,-4700,23,-174,-77,68
711,17264,14,-3396,-4702,23,-174,-77,68
712,17268,16,-3386,-4702,23,-175,-76,68
713,17270,2,-3374,-4702,23,-175,-76,70
714,17282,6,-3378,-4703,23,-175,-76,70
715,17276,12,-3380,-4703,23,-174,-76,70
716,17276,14,-3386,-4703,23,-175,-77,72
717,17268,18,-3402,-4703,23,-174,-76,72
718,17276,16,-3398,-4705,23,-173,-74,72
719,17274,12,-3406,-4705,23,-173,-75,73
720,17278,6,-3408,-4707,23,-173,-75,72
721,17278,2,-3396,-4705,23,-173,-75,71
722,17282,-2,-3392,-4704,23,-172,-76,71
723,17276,6,-3390,-4704,23,-173,-76,70
724,17276,6,-3388,-4704,23,-174,-75,70
725,17276,2,-3386,-4702,23,-175,-76,70
726,17282,0,-3392,-4702,23,-175,-75,68
727,17284,6,-3394,-4701,23,-175,-74,68
728,17270,4,-3394,-4703,23,-174,-74,69
729,17276,2,-3384,-4703,23,-174,-74,68
730,17282,6,-3388,-4702,23,-173,-76,68
731,17282,14,-3390,-4702,23,-175,-76,68
732,17276,4,-3394,-4702,23,-175,-76,67
733,17276,8,-3416,-4702,23,-174,-76,68
734,17276,8,-3420,-4703,23,-174,-77,67
735,17272,4,-3408,-4704,23,-174,-77,68
736,17266,8,-3414,-4703,23,-173,-77,68
737,17264,10,-3424,-4701,23,-173,-76,70
738,17274,10,-3422,-4699,23,-171,-76,69
739,17278,12,-3420,-4700,23,-172,-77,69
740,17276,8,-3410,-4702,23,-172,-77,70
741,17282,6,-3394,-4702,23,-172,-76,70
742,17282,10,-3400,-4702,23,-172,-76,69
743,17278,6,-3394,-4702,23,-173,-76,69
744,17282,0,-3400,-4703,23,-174,-76,69
745,17286,8,-3406,-4703,23,-173,-76,69
746,17274,0,-3404,-4703,23,-174,-75,69
747,17274,-2,-3398,-4703,23,-174,-76,70
748,17276,6,-3412,-4701,23,-173,-76,69
749,17274,8,-3406,-4702,23,-173,-76,70
750,17282,8,-3404,-4703,23,-174,-78,69
751,17280,6,-3412,-4701,23,-174,-77,68
752,17274,8,-3404,-4700,23,-174,-76,68
753,17274,2,-3404,-4700,23,-173,-77,69
754,17274,6,-3396,-4702,23,-173,-77,69
755,17276,12,-3398,-4700,23,-172,-75,69
756,17282,6,-3406,-4700,23,-173,-75,68
757,17278,10,-3402,-4700,23,-174,-76,68
758,17284,6,-3398,-4702,23,-173,-75,68
759,17272,16,-3398,-4702,23,-174,-74,68
760,17266,16,-3408,-4704,23,-175,-75,68
761,17276,14,-3412,-4704,23,-174,-74,69
762,17268,10,-3412,-4703,23,-173,-75,70
763,17274,20,-3404,-4703,23,-172,-75,70
764,17268,16,-3416,-4703,23,-174,-74,70
765,17258,20,-3414,-4705,23,-174,-75,70
766,17264,24,-3418,-4705,23,-174,-74,69
767,17258,26,-3386,-4704,23,-174,-75,69
768,17258,30,-3396,-4704,23,-174,-75,71
769,17272,26,-3396,-4704,23,-173,-74,70
770,17278,14,-3386,-4704,23,-172,-74,71
771,17278,14,-3400,-4705,23,-173,-76,71
772,17278,16,-3396,-4704,23,-174,-77,71
773,17286,18,-3404,-4702,23,-175,-77,71
774,17296,12,-3400,-4702,23,-174,-76,71
775,17286,8,-3398,-4701,23,-174,-76,70
776,17286,10,-3392,-4701,23,-174,-75,69
777,17282,-6,-3404,-4701,23,-174,-75,70
778,17290,-2,-3396,-4701,23,-174,-76,71
779,17286,8,-3392,-4700,23,-174,-77,71
780,17282,8,-3384,-4700,23,-175,-77,70
781,17294,6,-3384,-4700,23,-174,-77,71
782,17288,8,-3388,-4700,23,-173,-76,70
783,17286,8,-3386,-4699,23,-174,-76,70
784,17288,6,-3386,-4698,23,-175,-77,70
785,17292,10,-3388,-4698,23,-175,-78,69
786,17292,2,-3386,-4700,23,-175,-77,69
787,17292,6,-3400,-4700,23,-175,-77,68
788,17284,2,-3396,-4699,23,-174,-77,68
789,17276,10,-3394,-4700,23,-174,-77,69
790,17268,8,-3386,-4700,23,-173,-76,69
791,17278,16,-3376,-4699,23,-173,-75,69
792,17276,20,-3378,-4699,23,-172,-75,70
793,17280,24,-3368,-4698,23,-173,-75,69
794,17284,14,-3378,-4698,23,-174,-76,69
795,17274,16,-3384,-4699,23,-173,-76,69
796,17272,18,-3400,-4698,23,-173,-77,70
797,17280,14,-3396,-4699,23,-173,-78,68
798,17278,6,-3412,-4699,23,-173,-77,68
799,17284,-6,-3426,-4698,23,-173,-77,69
800,17284,-4,-3430,-4700,23,-173,-76,69
801,17296,-2,-3416,-4700,23,-171,-76,69
802,17292,-2,-3412,-4699,23,-171,-74,69
803,17290,-2,-3396,-4699,23,-172,-75,69
804,17288,-4,-3406,-4698,23,-173,-75,69
805,17284,0,-3384,-4702,23,-173,-75,69
806,17282,2,-3382,-4701,23,-171,-76,69
807,17286,2,-3398,-4699,23,-173,-75,70
808,17288,4,-3396,-4698,23,-173,-75,70
809,17286,4,-3392,-4697,23,-172,-76,69
810,17288,16,-3394,-4697,23,-173,-76,69
811,17290,18,-3394,-4698,23,-174,-77,69
812,17282,16,-3394,-4697,23,-174,-77,68
813,17278,10,-3388,-4697,23,-174,-77,69
814,17268,14,-3390,-4698,23,-176,-78,69
815,17272,6,-3372,-4698,23,-175,-77,68
816,17280,14,-3384,-4697,23,-174,-77,68
817,17274,20,-3384,-4696,23,-173,-77,69
818,17268,16,-3380,-4697,23,-173,-76,70
819,17276,12,-3374,-4697,23,-172,-75,71
820,17280,8,-3376,-4695,23,-172,-76,70
821,17270,6,-3378,-4696,23,-171,-76,70
822,17280,8,-3392,-4697,23,-172,-77,70
823,17274,8,-3394,-4698,23,-172,-76,69
824,17274,14,-3410,-4697,23,-172,-76,68
825,17280,8,-3422,-4696,23,-172,-74,69
826,17266,8,-3416,-4698,23,-173,-75,70
827,17274,12,-3396,-4698,23,-174,-76,69
828,17280,22,-3402,-4699,23,-174,-76,69
829,17278,16,-3404,-4699,23,-173,-77,68
830,17280,16,-3404,-4698,23,-174,-76,69
831,17272,12,-3396,-4701,23,-173,-77,68
832,17256,0,-3394,-4700,23,-172,-77,68
833,17258,4,-3390,-4700,23,-172,-77,70
834,17262,6,-3388,-4699,23,-173,-76,70
835,17260,12,-3380,-4698,23,-173,-75,70
836,17264,8,-3400,-4697,23,-173,-75,70
837,17278,12,-3394,-4697,23,-172,-75,70
838,17280,14,-3388,-4696,23,-173,-75,70
839,17280,6,-3396,-4697,23,-173,-74,71
840,17268,14,-3412,-4697,23,-173,-75,70
841,17270,22,-3414,-4698,23,-172,-75,71
842,17266,20,-3416,-4699,23,-173,-75,72
843,17268,16,-3406,-4699,23,-173,-75,72
844,17270,12,-3400,-4698,23,-172,-75,71
845,17268,6,-3388,-4698,23,-172,-75,71
846,17280,2,-3380,-4698,23,-173,-75,71
847,17284,2,-3394,-4698,23,-172,-75,71
848,17286,4,-3386,-4699,23,-172,-74,70
849,17282,2,-3378,-4699,23,-172,-73,69
850,17280,4,-3386,-4698,23,-172,-74,68
851,17280,10,-3388,-4697,23,-171,-75,67
852,17268,8,-3402,-4699,23,-171,-75,67
853,17270,6,-3398,-4699,23,-172,-75,68
854,17270,12,-3406,-4699,23,-173,-74,69
855,17276,10,-3392,-4702,23,-173,-75,69
856,17284,8,-3388,-4700,23,-173,-75,69
857,17286,2,-3400,-4701,23,-173,-74,69
858,17290,-4,-3396,-4700,23,-172,-75,69
859,17288,-6,-3394,-4701,23,-172,-73,69
860,17286,6,-3390,-4698,23,-172,-74,69
861,17280,8,-3394,-4698,23,-172,-74,70
862,17282,14,-3378,-4698,23,-171,-74,70
863,17278,20,-3392,-4699,23,-171,-74,72
864,17272,24,-3404,-4697,23,-172,-75,71
865,17270,14,-3386,-4699,23,-172,-74,70
866,17274,6,-3382,-4701,23,-173,-76,70
867,17276,-4,-3384,-4699,23,-174,-76,70
868,17270,4,-3388,-4700,23,-172,-75,70
869,17268,8,-3404,-4700,23,-172,-75,68
870,17270,4,-3404,-4699,23,-173,-75,69
871,17264,8,-3400,-4699,23,-173,-76,70
872,17264,20,-3398,-4698,23,-173,-75,69
873,17272,20,-3386,-4700,23,-173,-74,70
874,17268,22,-3396,-4698,23,-173,-75,70
875,17264,20,-3408,-4696,23,-173,-76,69
876,17262,20,-3412,-4696,23,-174,-75,70
877,17270,12,-3406,-4697,23,-173,-74,69
878,17270,20,-3404,-4698,23,-173,-74,69
879,17274,26,-3408,-4700,23,-173,-74,69
880,17274,18,-3402,-4699,23,-173,-75,69
881,17270,18,-3406,-4697,23,-173,-74,69
882,17274,8,-3404,-4698,23,-173,-74,69
883,17268,16,-3408,-4697,23,-174,-74,70
884,17270,14,-3400,-4697,23,-174,-75,69
885,17272,8,-3396,-4697,23,-173,-74,68
886,17278,4,-3382,-4698,23,-172,-74,68
887,17276,0,-3382,-4697,23,-172,-75,69
888,17280,2,-3396,-4697,23,-173,-74,68
889,17286,6,-3390,-4699,23,-173,-76,69
890,17288,12,-3382,-4699,23,-173,-75,70
891,17280,20,-3380,-4698,23,-173,-76,70
892,17272,22,-3380,-4697,23,-174,-76,69
893,17276,18,-3384,-4698,23,-174,-75,69
894,17286,18,-3394,-4699,23,-174,-75,69
895,17284,20,-3386,-4698,23,-175,-76,70
896,17280,24,-3388,-4696,23,-173,-76,71
897,17286,12,-3388,-4698,23,-174,-77,70
898,17280,10,-3392,-4698,23,-173,-76,70
899,17274,8,-3400,-4697,23,-173,-75,70
900,17278,8,-3398,-4696,23,-173,-75,70
901,17286,8,-3408,-4697,23,-173,-75,71
902,17276,14,-3418,-4698,23,-173,-75,71
903,17280,12,-3408,-4696,23,-172,-75,71
904,17282,12,-3400,-4696,23,-172,-76,71
905,17276,8,-3398,-4696,23,-172,-76,71
906,17282,-2,-3402,-4695,23,-173,-76,71
907,17286,10,-3392,-4695,23,-173,-76,71
908,17288,16,-3392,-4696,23,-174,-75,71
909,17288,10,-3402,-4698,23,-172,-74,71
910,17290,14,-3402,-4698,23,-172,-74,70
911,17290,6,-3404,-4698,23,-172,-75,70
912,17290,8,-3402,-4697,23,-173,-76,69
913,17288,8,-3408,-4696,23,-172,-75,69
914,17282,0,-3396,-4696,23,-171,-75,70
915,17286,0,-3396,-4697,23,-171,-75,70
916,17282,4,-3392,-4698,23,-171,-75,69
917,17278,4,-3392,-4698,23,-171,-76,69
918,17284,14,-3406,-4699,23,-171,-76,69
919,17276,26,-3400,-4698,23,-172,-75,68
920,17276,34,-3398,-4698,23,-173,-74,68
921,17266,32,-3390,-4699,23,-173,-76,68
922,17266,24,-3370,-4699,23,-173,-75,69
923,17274,26,-3380,-4700,23,-173,-74,70
924,17280,26,-3398,-4700,23,-173,-74,70
925,17294,22,-3408,-4698,23,-174,-76,70
926,17296,28,-3398,-4698,23,-175,-75,69
927,17290,22,-3396,-4700,23,-174,-75,69
928,17296,22,-3394,-4699,23,-174,-75,70
929,17298,14,-3382,-4699,23,-175,-75,70
930,17286,14,-3386,-4699,23,-175,-75,71
931,17292,12,-3382,-4698,23,-175,-75,70
932,17298,10,-3388,-4699,23,-173,-75,70
933,17288,2,-3388,-4701,23,-172,-75,70
934,17286,6,-3384,-4701,23,-172,-75,70
935,17284,8,-3384,-4702,23,-172,-75,70
936,17286,8,-3402,-4701,23,-172,-75,70
937,17292,6,-3400,-4700,23,-173,-76,69
938,17290,10,-3408,-4700,23,-173,-75,70
939,17288,8,-3414,-4699,23,-173,-75,70
940,17280,14,-3402,-4699,23,-173,-76,69
941,17286,10,-3390,-4700,23,-172,-76,70
942,17292,4,-3410,-4700,23,-171,-77,70
943,17298,-2,-3400,-4700,23,-171,-77,70
944,17284,-4,-3404,-4698,23,-172,-77,70
945,17276,-6,-3396,-4699,23,-172,-77,69
946,17276,-2,-3400,-4698,23,-172,-77,69
947,17274,-12,-3402,-4700,23,-173,-76,70
948,17272,-8,-3404,-4698,23,-172,-76,69
949,17278,-12,-3392,-4698,23,-172,-76,70
950,17284,-8,-3388,-4698,23,-173,-76,68
951,17282,2,-3392,-4696,23,-173,-76,69
952,17282,2,-3390,-4696,23,-174,-75,69
953,17284,6,-3396,-4694,23,-174,-76,68
954,17290,8,-3400,-4695,23,-173,-76,68
955,17296,18,-3400,-4696,23,-173,-76,68
956,17292,22,-3418,-4695,23,-173,-76,68
957,17288,20,-3412,-4694,23,-174,-76,68
958,17294,14,-3408,-4695,23,-173,-76,69
959,17302,12,-3414,-4696,23,-173,-74,68
960,17308,8,-3414,-4698,23,-172,-74,68
961,17310,2,-3402,-4699,23,-172,-74,69
962,17302,8,-3402,-4698,23,-173,-75,70
963,17294,8,-3416,-4698,23,-173,-76,70
964,17296,20,-3422,-4697,23,-172,-76,69
965,17296,16,-3418,-4697,23,-172,-76,69
966,17292,-2,-3406,-4697,23,-172,-75,69
967,17296,6,-3390,-4696,23,-173,-75,68
968,17290,8,-3376,-4695,23,-172,-76,68
969,17286,8,-3378,-4693,23,-172,-75,67
970,17290,16,-3368,-4693,23,-173,-74,68
971,17290,4,-3372,-4693,23,-173,-74,68
972,17294,0,-3366,-4694,23,-173,-73,69
973,17290,6,-3384,-4695,23,-173,-74,68
974,17288,-2,-3384,-4694,23,-173,-75,69
975,17294,-2,-3400,-4693,23,-172,-74,70
976,17294,2,-3396,-4695,23,-173,-74,70
977,17286,4,-3396,-4695,23,-173,-75,69
978,17278,0,-3376,-4696,23,-173,-76,69
979,17278,8,-3382,-4696,23,-173,-76,69
980,17268,12,-3402,-4695,23,-172,-76,70
981,17274,16,-3400,-4696,23,-172,-75,70
982,17276,18,-3396,-4694,23,-173,-74,69
983,17272,14,-3396,-4695,23,-173,-75,69
984,17272,14,-3392,-4696,23,-171,-76,69
985,17274,14,-3396,-4697,23,-172,-76,70
986,17264,12,-3412,-4696,23,-173,-77,70
987,17258,10,-3416,-4696,23,-173,-77,70
988,17270,8,-3404,-4696,23,-173,-77,71
989,17272,4,-3396,-4695,23,-173,-77,71
990,17264,6,-3384,-4696,23,-174,-77,70
991,17264,-2,-3382,-4696,23,-174,-78,70
992,17258,0,-3394,-4696,23,-173,-77,69
993,17268,0,-3390,-4698,23,-171,-76,69
994,17266,4,-3382,-4699,23,-171,-76,69
995,17278,-8,-3394,-4697,23,-172,-75,69
996,17282,0,-3400,-4696,23,-172,-75,69
997,17274,-10,-3402,-4695,23,-173,-75,69
998,17276,-6,-3402,-4697,23,-172,-75,69
