,acc_X,acc_Y,acc_Z,temp,tempC,gyr_X,gyr_Y,gyr_Z
0,8641,5,-1689,-4659,23,-174,-76,70
1,8638,6,-1694,-4659,23,-175,-76,71
2,8636,2,-1698,-4659,23,-173,-76,71
3,8633,5,-1684,-4659,23,-174,-76,71
4,8642,10,-1682,-4659,23,-175,-76,70
5,8638,8,-1686,-4659,23,-175,-76,70
6,8634,4,-1692,-4659,23,-175,-76,70
7,8635,-1,-1701,-4659,23,-175,-76,70
8,8636,-2,-1698,-4659,23,-175,-77,70
9,8633,-2,-1704,-4661,23,-175,-77,71
10,8632,1,-1703,-4659,23,-173,-78,72
11,8633,3,-1698,-4658,23,-173,-77,71
12,8632,4,-1696,-4659,23,-172,-77,70
13,8632,6,-1701,-4660,23,-173,-77,69
14,8631,11,-1705,-4658,23,-172,-77,70
15,8631,10,-1701,-4656,23,-171,-77,69
16,8634,5,-1706,-4656,23,-171,-76,71
17,8632,4,-1706,-4657,23,-172,-76,70
18,8639,4,-1705,-4659,23,-172,-76,69
19,8643,5,-1700,-4660,23,-172,-75,68
20,8644,3,-1701,-4660,23,-173,-76,69
21,8642,3,-1700,-4661,23,-172,-75,68
22,8640,4,-1693,-4660,23,-173,-75,70
23,8630,7,-1686,-4659,23,-173,-75,69
24,8631,6,-1686,-4659,23,-174,-75,70
25,8630,10,-1695,-4658,23,-174,-77,70
26,8630,4,-1692,-4658,23,-174,-76,70
27,8626,4,-1693,-4657,23,-173,-75,69
28,8628,6,-1686,-4656,23,-173,-76,69
29,8626,7,-1687,-4656,23,-174,-77,68
30,8630,7,-1684,-4657,23,-174,-78,69
31,8636,6,-1687,-4656,23,-173,-78,69
32,8636,5,-1688,-4656,23,-173,-78,69
33,8636,6,-1697,-4656,23,-174,-77,69
34,8638,8,-1690,-4655,23,-172,-76,69
35,8642,11,-1694,-4657,23,-173,-74,69
36,8643,6,-1692,-4656,23,-172,-76,70
37,8641,5,-1693,-4657,23,-172,-76,71
38,8638,7,-1691,-4659,23,-173,-76,71
39,8630,3,-1693,-4657,23,-173,-76,71
40,8626,5,-1695,-4657,23,-172,-76,70
41,8633,4,-1694,-4658,23,-172,-76,70
42,8631,1,-1692,-4657,23,-173,-75,70
43,8630,6,-1701,-4657,23,-171,-74,70
44,8637,7,-1694,-4658,23,-173,-74,69
45,8636,12,-1696,-4657,23,-174,-74,69
46,8634,10,-1702,-4658,23,-174,-74,70
47,8638,13,-1707,-4658,23,-173,-74,69
48,8637,14,-1707,-4658,23,-174,-75,70
49,8630,17,-1706,-4659,23,-174,-75,70
50,8631,18,-1703,-4657,23,-175,-75,70
51,8633,15,-1702,-4658,23,-175,-75,69
52,8636,12,-1700,-4659,23,-174,-76,70
53,8639,8,-1707,-4659,23,-174,-75,69
54,8633,13,-1702,-4659,23,-173,-75,68
55,8633,14,-1703,-4659,23,-172,-75,68
56,8631,13,-1698,-4658,23,-173,-77,68
57,8631,10,-1702,-4659,23,-173,-76,68
58,8632,10,-1698,-4657,23,-173,-75,69
59,8633,10,-1698,-4659,23,-173,-75,68
60,8635,8,-1697,-4658,23,-174,-76,68
61,8631,8,-1698,-4658,23,-173,-77,70
62,8633,7,-1699,-4658,23,-174,-77,70
63,8637,3,-1702,-4660,23,-175,-77,68
64,8643,3,-1704,-4661,23,-175,-77,69
65,8641,4,-1704,-4659,23,-174,-78,69
66,8643,2,-1696,-4659,23,-174,-77,69
67,8642,5,-1696,-4658,23,-174,-77,69
68,8639,6,-1699,-4659,23,-174,-77,70
69,8645,2,-1698,-4659,23,-174,-76,71
70,8649,5,-1699,-4657,23,-173,-76,71
71,8646,9,-1695,-4657,23,-173,-75,72
72,8649,6,-1698,-4656,23,-174,-76,71
73,8650,7,-1695,-4657,23,-174,-76,71
74,8649,8,-1692,-4659,23,-173,-76,72
75,8645,5,-1694,-4658,23,-174,-77,71
76,8645,8,-1698,-4658,23,-174,-76,71
77,8644,8,-1697,-4658,23,-174,-77,69
78,8641,11,-1696,-4658,23,-175,-76,70
79,8636,14,-1704,-4658,23,-174,-77,69
80,8637,15,-1702,-4656,23,-173,-77,68
81,8632,16,-1692,-4657,23,-173,-77,68
82,8632,13,-1696,-4657,23,-173,-76,69
83,8632,16,-1693,-4657,23,-173,-77,69
84,8633,9,-1694,-4655,23,-173,-77,68
85,8638,8,-1688,-4655,23,-173,-77,68
86,8639,6,-1691,-4655,23,-174,-77,69
87,8634,8,-1700,-4656,23,-175,-77,67
88,8634,9,-1700,-4655,23,-174,-76,68
89,8637,8,-1696,-4655,23,-174,-76,68
90,8639,9,-1711,-4656,23,-173,-76,68
91,8634,2,-1710,-4657,23,-173,-77,69
92,8635,0,-1708,-4655,23,-173,-77,71
93,8632,5,-1701,-4655,23,-173,-77,71
94,8628,6,-1698,-4654,23,-173,-77,71
95,8632,6,-1691,-4654,23,-172,-77,70
96,8634,5,-1695,-4654,23,-172,-76,71
97,8632,6,-1696,-4654,23,-173,-76,71
98,8633,9,-1701,-4653,23,-173,-75,70
99,8633,9,-1704,-4655,23,-173,-76,71
100,8634,12,-1695,-4654,23,-173,-75,71
101,8639,14,-1691,-4654,23,-172,-76,71
102,8642,13,-1692,-4655,23,-173,-76,70
103,8641,10,-1694,-4655,23,-173,-77,69
104,8642,12,-1689,-4654,23,-174,-76,71
105,8641,7,-1693,-4654,23,-174,-75,71
106,8641,6,-1698,-4655,23,-174,-76,71
107,8640,12,-1695,-4657,23,-175,-77,71
108,8639,9,-1696,-4657,23,-175,-76,70
109,8640,11,-1700,-4656,23,-173,-77,70
110,8637,9,-1701,-4655,23,-174,-76,70
111,8639,10,-1706,-4656,23,-174,-77,71
112,8639,8,-1696,-4656,23,-173,-76,69
113,8637,8,-1697,-4657,23,-173,-76,69
114,8636,10,-1700,-4657,23,-172,-76,70
115,8639,2,-1700,-4659,23,-173,-76,69
116,8639,5,-1700,-4657,23,-173,-76,70
117,8644,3,-1697,-4658,23,-173,-76,70
118,8642,2,-1690,-4659,23,-172,-76,70
119,8641,0,-1689,-4659,23,-172,-76,69
120,8640,1,-1693,-4657,23,-173,-75,70
121,8643,6,-1695,-4658,23,-173,-75,69
122,8643,7,-1689,-4658,23,-173,-75,69
123,8640,5,-1693,-4658,23,-174,-75,69
124,8639,7,-1696,-4656,23,-173,-75,69
125,8641,7,-1697,-4656,23,-173,-74,69
126,8640,9,-1689,-4657,23,-174,-74,69
127,8639,11,-1690,-4657,23,-173,-76,69
128,8637,8,-1696,-4656,23,-172,-75,70
129,8638,7,-1699,-4655,23,-172,-76,70
130,8637,2,-1704,-4657,23,-174,-76,69
131,8630,5,-1702,-4657,23,-175,-74,69
132,8631,5,-1702,-4658,23,-174,-75,70
133,8630,3,-1707,-4659,23,-173,-75,70
134,8632,3,-1708,-4660,23,-174,-75,70
135,8633,5,-1705,-4661,23,-174,-74,71
136,8634,3,-1702,-4661,23,-175,-75,71
137,8637,2,-1693,-4662,23,-175,-75,70
138,8640,2,-1693,-4662,23,-174,-75,70
139,8637,-1,-1694,-4660,23,-175,-74,70
140,8632,-3,-1693,-4659,23,-174,-75,69
141,8633,1,-1700,-4659,23,-174,-77,70
142,8634,2,-1698,-4659,23,-173,-76,69
143,8636,0,-1701,-4658,23,-173,-77,69
144,8637,6,-1703,-4658,23,-173,-76,70
145,8637,10,-1702,-4659,23,-173,-76,70
146,8639,9,-1708,-4661,23,-173,-76,70
147,8643,9,-1707,-4660,23,-172,-76,70
148,8636,9,-1703,-4659,23,-173,-75,70
149,8639,11,-1701,-4658,23,-173,-75,71
150,8643,15,-1700,-4657,23,-173,-75,71
151,8645,13,-1699,-4657,23,-173,-75,70
152,8641,15,-1696,-4657,23,-173,-76,70
153,8636,10,-1699,-4656,23,-173,-76,70
154,8632,8,-1699,-4656,23,-173,-75,70
155,8632,4,-1698,-4658,23,-173,-75,71
156,8631,2,-1695,-4659,23,-173,-75,70
157,8631,2,-1701,-4659,23,-173,-75,69
158,8630,1,-1696,-4660,23,-172,-76,70
159,8632,4,-1686,-4658,23,-172,-76,70
160,8633,8,-1694,-4658,23,-174,-75,69
161,8637,9,-1701,-4659,23,-173,-75,70
162,8638,4,-1705,-4659,23,-174,-75,69
163,8635,3,-1703,-4657,23,-174,-76,69
164,8634,2,-1704,-4657,23,-174,-75,68
165,8641,4,-1699,-4656,23,-175,-75,69
166,8642,7,-1701,-4657,23,-173,-75,68
167,8642,5,-1708,-4657,23,-173,-76,68
168,8644,7,-1706,-4658,23,-174,-75,68
169,8647,6,-1701,-4659,23,-174,-76,69
170,8641,4,-1695,-4658,23,-174,-77,70
171,8637,3,-1695,-4658,23,-175,-76,69
172,8640,7,-1693,-4658,23,-175,-77,69
173,8642,3,-1696,-4660,23,-176,-77,68
174,8637,3,-1699,-4659,23,-174,-76,67
175,8638,-1,-1693,-4660,23,-174,-76,68
176,8642,2,-1695,-4660,23,-174,-77,68
177,8638,7,-1694,-4660,23,-174,-77,68
178,8637,6,-1699,-4658,23,-176,-77,69
179,8638,4,-1697,-4659,23,-175,-76,70
180,8633,1,-1692,-4657,23,-175,-75,70
181,8631,4,-1697,-4656,23,-174,-76,70
182,8632,-4,-1692,-4657,23,-174,-75,70
183,8632,0,-1691,-4657,23,-175,-75,70
184,8638,-1,-1688,-4658,23,-174,-76,70
185,8635,-4,-1692,-4657,23,-174,-76,69
186,8638,0,-1699,-4658,23,-173,-75,69
187,8641,5,-1699,-4657,23,-173,-75,69
188,8643,8,-1696,-4656,23,-174,-75,71
189,8647,6,-1693,-4656,23,-174,-76,71
190,8648,4,-1698,-4655,23,-173,-75,72
191,8647,3,-1694,-4656,23,-173,-75,72
192,8647,0,-1701,-4653,23,-174,-76,71
193,8643,1,-1692,-4654,23,-174,-76,71
194,8639,3,-1701,-4654,23,-173,-76,71
195,8637,3,-1707,-4654,23,-172,-77,70
196,8640,5,-1703,-4655,23,-172,-75,70
197,8639,3,-1698,-4657,23,-172,-75,71
198,8638,1,-1694,-4659,23,-173,-75,70
199,8635,2,-1696,-4657,23,-173,-74,70
200,8631,8,-1689,-4656,23,-174,-75,69
201,8629,11,-1686,-4659,23,-174,-75,69
202,8629,2,-1691,-4660,23,-174,-75,69
203,8630,7,-1687,-4659,23,-174,-75,69
204,8633,8,-1688,-4658,23,-173,-76,68
205,8635,8,-1689,-4657,23,-173,-75,68
206,8638,9,-1698,-4657,23,-173,-76,68
207,8639,10,-1702,-4657,23,-172,-75,68
208,8640,5,-1704,-4655,23,-172,-76,68
209,8637,5,-1699,-4655,23,-172,-76,68
210,8638,5,-1695,-4654,23,-173,-77,68
211,8635,7,-1693,-4654,23,-172,-77,68
212,8638,12,-1696,-4655,23,-173,-77,69
213,8641,14,-1694,-4654,23,-173,-76,68
214,8637,12,-1702,-4655,23,-174,-76,69
215,8636,13,-1707,-4656,23,-173,-76,69
216,8640,14,-1708,-4656,23,-174,-75,70
217,8639,9,-1707,-4658,23,-173,-76,69
218,8637,6,-1709,-4656,23,-173,-76,69
219,8638,6,-1700,-4656,23,-172,-75,69
220,8639,5,-1695,-4657,23,-174,-75,70
221,8641,5,-1695,-4656,23,-174,-75,71
222,8642,6,-1689,-4655,23,-173,-75,70
223,8642,8,-1690,-4655,23,-173,-74,71
224,8643,8,-1691,-4656,23,-174,-74,70
225,8641,9,-1695,-4656,23,-173,-74,70
226,8637,8,-1696,-4656,23,-174,-75,70
227,8638,9,-1702,-4656,23,-173,-76,70
228,8642,8,-1703,-4656,23,-174,-76,70
229,8643,9,-1699,-4657,23,-174,-76,69
230,8644,8,-1696,-4655,23,-173,-76,69
231,8640,5,-1698,-4655,23,-173,-77,68
232,8641,9,-1698,-4654,23,-174,-77,68
233,8640,10,-1692,-4654,23,-174,-78,70
234,8638,8,-1691,-4655,23,-173,-78,70
235,8640,7,-1688,-4656,23,-173,-77,69
236,8642,10,-1688,-4656,23,-172,-77,69
237,8644,7,-1685,-4655,23,-172,-77,69
238,8644,12,-1688,-4657,23,-172,-76,70
239,8645,5,-1685,-4657,23,-172,-76,70
240,8646,3,-1688,-4659,23,-173,-76,69
241,8647,3,-1686,-4659,23,-173,-75,69
242,8649,3,-1688,-4659,23,-175,-76,69
243,8649,3,-1699,-4657,23,-174,-76,68
244,8645,7,-1689,-4659,23,-175,-76,68
245,8641,7,-1691,-4657,23,-174,-77,69
246,8642,8,-1695,-4658,23,-173,-76,69
247,8642,8,-1689,-4657,23,-174,-76,70
248,8641,9,-1681,-4658,23,-175,-75,70
249,8640,9,-1687,-4659,23,-174,-74,70
250,8639,4,-1692,-4659,23,-174,-75,69
251,8640,6,-1690,-4659,23,-174,-75,68
252,8641,5,-1687,-4656,23,-174,-75,68
253,8643,5,-1682,-4655,23,-174,-76,69
254,8644,10,-1682,-4654,23,-174,-75,68
255,8639,7,-1679,-4655,23,-174,-75,69
256,8638,6,-1687,-4656,23,-175,-76,69
257,8636,7,-1689,-4657,23,-175,-77,68
258,8630,5,-1695,-4657,23,-174,-76,69
259,8630,6,-1695,-4659,23,-174,-76,70
260,8635,6,-1693,-4656,23,-173,-76,70
261,8636,7,-1690,-4655,23,-173,-76,70
262,8631,6,-1691,-4656,23,-174,-76,69
263,8634,8,-1683,-4656,23,-175,-77,69
264,8629,9,-1677,-4656,23,-174,-76,69
265,8634,6,-1676,-4655,23,-173,-76,68
266,8632,3,-1682,-4654,23,-174,-76,68
267,8635,4,-1685,-4655,23,-174,-77,68
268,8635,10,-1684,-4655,23,-173,-76,69
269,8638,7,-1685,-4653,23,-174,-76,68
270,8636,1,-1687,-4653,23,-174,-76,69
271,8642,0,-1692,-4654,23,-174,-75,69
272,8641,-2,-1693,-4653,23,-173,-76,69
273,8638,2,-1698,-4653,23,-173,-76,69
274,8636,2,-1693,-4654,23,-173,-76,69
275,8636,4,-1695,-4656,23,-174,-76,70
276,8638,5,-1692,-4656,23,-174,-76,70
277,8639,10,-1694,-4656,23,-173,-76,70
278,8635,9,-1700,-4658,23,-173,-75,69
279,8635,4,-1702,-4657,23,-174,-75,70
280,8637,2,-1694,-4656,23,-175,-75,70
281,8642,0,-1690,-4655,23,-175,-75,70
282,8639,2,-1686,-4655,23,-175,-76,71
283,8639,3,-1676,-4654,23,-174,-75,70
284,8635,-2,-1685,-4655,23,-175,-75,71
285,8636,-4,-1687,-4658,23,-174,-75,70
286,8636,-2,-1688,-4656,23,-173,-73,70
287,8631,6,-1690,-4656,23,-173,-75,70
288,8633,7,-1693,-4657,23,-173,-74,70
289,8633,6,-1694,-4656,23,-173,-75,71
290,8638,6,-1693,-4655,23,-173,-75,70
291,8641,2,-1690,-4655,23,-173,-74,70
292,8644,2,-1689,-4655,23,-174,-76,70
293,8644,0,-1689,-4656,23,-175,-75,69
294,8640,2,-1692,-4652,23,-175,-75,69
295,8641,2,-1684,-4653,23,-174,-76,70
296,8638,2,-1687,-4652,23,-175,-77,71
297,8641,0,-1695,-4653,23,-174,-77,71
298,8643,0,-1693,-4654,23,-173,-78,70
299,8641,3,-1695,-4653,23,-173,-79,70
300,8643,1,-1691,-4653,23,-174,-78,70
301,8644,7,-1682,-4653,23,-173,-77,70
302,8642,5,-1681,-4653,23,-172,-76,71
303,8637,1,-1681,-4654,23,-171,-76,70
304,8640,0,-1680,-4654,23,-171,-77,70
305,8640,0,-1690,-4653,23,-171,-75,71
306,8643,0,-1694,-4651,23,-173,-75,71
307,8642,7,-1690,-4651,23,-174,-76,70
308,8640,8,-1690,-4653,23,-174,-76,70
309,8642,8,-1686,-4653,23,-174,-78,71
310,8639,6,-1683,-4653,23,-175,-77,71
311,8636,4,-1686,-4654,23,-176,-77,71
312,8636,6,-1686,-4653,23,-175,-77,70
313,8636,6,-1687,-4652,23,-175,-78,69
314,8635,5,-1697,-4653,23,-176,-76,70
315,8633,4,-1699,-4654,23,-175,-76,70
316,8631,6,-1694,-4653,23,-175,-75,70
317,8632,4,-1698,-4653,23,-174,-75,69
318,8634,2,-1698,-4653,23,-174,-75,70
319,8637,8,-1703,-4653,23,-174,-77,70
320,8638,9,-1704,-4656,23,-174,-77,70
321,8638,7,-1699,-4656,23,-175,-77,71
322,8637,5,-1693,-4655,23,-174,-76,70
323,8641,7,-1694,-4655,23,-174,-75,70
324,8640,5,-1692,-4655,23,-173,-76,69
325,8639,6,-1701,-4654,23,-173,-78,69
326,8642,6,-1696,-4653,23,-174,-78,69
327,8639,8,-1693,-4655,23,-175,-75,69
328,8642,12,-1691,-4655,23,-175,-76,70
329,8638,12,-1694,-4654,23,-173,-76,70
330,8637,11,-1689,-4653,23,-173,-76,71
331,8636,9,-1688,-4652,23,-173,-77,71
332,8638,10,-1695,-4651,23,-173,-76,71
333,8634,11,-1692,-4654,23,-173,-77,71
334,8637,14,-1690,-4653,23,-173,-77,72
335,8636,9,-1699,-4653,23,-174,-76,72
336,8629,11,-1706,-4654,23,-174,-76,71
337,8629,10,-1712,-4654,23,-174,-76,71
338,8626,7,-1706,-4654,23,-174,-76,70
339,8630,7,-1706,-4654,23,-174,-75,71
340,8632,8,-1706,-4653,23,-175,-74,70
341,8632,8,-1698,-4653,23,-174,-77,70
342,8636,10,-1701,-4652,23,-173,-77,70
343,8637,8,-1704,-4654,23,-174,-76,70
344,8644,11,-1698,-4654,23,-173,-76,71
345,8641,7,-1695,-4654,23,-173,-77,71
346,8637,7,-1699,-4655,23,-173,-77,70
347,8628,7,-1696,-4654,23,-173,-76,70
348,8631,6,-1698,-4655,23,-174,-76,70
349,8629,7,-1703,-4654,23,-173,-77,68
350,8627,5,-1702,-4654,23,-172,-78,67
351,8633,-2,-1692,-4651,23,-174,-78,68
352,8633,-2,-1687,-4652,23,-173,-77,69
353,8631,2,-1683,-4653,23,-174,-77,68
354,8633,3,-1689,-4653,23,-173,-79,69
355,8638,5,-1688,-4655,23,-174,-78,69
356,8641,3,-1691,-4654,23,-174,-78,69
357,8642,7,-1700,-4654,23,-175,-77,68
358,8640,5,-1706,-4654,23,-175,-78,67
359,8634,11,-1704,-4656,23,-175,-77,67
360,8633,10,-1701,-4655,23,-175,-75,68
361,8632,10,-1700,-4655,23,-174,-75,69
362,8635,8,-1695,-4656,23,-173,-76,69
363,8639,6,-1698,-4656,23,-173,-78,70
364,8636,6,-1702,-4656,23,-172,-77,70
365,8638,5,-1700,-4656,23,-171,-76,71
366,8641,2,-1703,-4656,23,-171,-76,71
367,8636,1,-1701,-4657,23,-172,-77,71
368,8637,1,-1699,-4656,23,-173,-77,70
369,8641,2,-1698,-4656,23,-173,-78,70
370,8643,-3,-1705,-4657,23,-173,-76,70
371,8636,-3,-1701,-4654,23,-173,-77,69
372,8640,-1,-1705,-4652,23,-172,-76,69
373,8638,-1,-1702,-4652,23,-171,-77,69
374,8639,0,-1699,-4651,23,-172,-76,69
375,8637,2,-1698,-4650,23,-174,-77,68
376,8637,0,-1699,-4651,23,-173,-78,69
377,8636,3,-1698,-4651,23,-173,-77,70
378,8634,4,-1694,-4650,23,-172,-77,70
379,8638,5,-1697,-4652,23,-172,-77,70
380,8638,3,-1704,-4652,23,-172,-77,69
381,8637,5,-1702,-4652,23,-172,-76,70
382,8638,1,-1699,-4653,23,-172,-75,69
383,8640,1,-1702,-4653,23,-173,-74,70
384,8633,-2,-1705,-4654,23,-173,-74,69
385,8639,2,-1697,-4656,23,-174,-74,69
386,8641,2,-1699,-4654,23,-174,-75,68
387,8643,5,-1695,-4656,23,-174,-74,68
388,8644,6,-1690,-4655,23,-175,-74,70
389,8639,4,-1690,-4655,23,-174,-74,70
390,8633,8,-1683,-4655,23,-175,-75,70
391,8636,11,-1690,-4658,23,-174,-76,70
392,8636,8,-1689,-4656,23,-174,-76,70
393,8636,5,-1685,-4656,23,-174,-77,69
394,8637,3,-1685,-4654,23,-174,-76,69
395,8632,7,-1690,-4652,23,-174,-74,69
396,8633,10,-1697,-4653,23,-173,-76,69
397,8633,9,-1691,-4653,23,-173,-75,68
398,8634,6,-1694,-4653,23,-173,-75,68
399,8634,6,-1701,-4653,23,-173,-76,67
400,8634,5,-1703,-4654,23,-173,-75,67
401,8636,9,-1699,-4656,23,-174,-75,67
402,8634,7,-1699,-4655,23,-173,-75,67
403,8635,7,-1693,-4654,23,-173,-76,68
404,8633,9,-1693,-4655,23,-173,-76,68
405,8633,1,-1702,-4655,23,-172,-76,68
406,8637,-1,-1707,-4654,23,-173,-75,69
407,8637,-4,-1708,-4653,23,-173,-74,68
408,8638,-4,-1699,-4653,23,-173,-74,69
409,8642,0,-1702,-4654,23,-173,-75,70
410,8642,1,-1703,-4655,23,-173,-76,69
411,8641,1,-1696,-4655,23,-172,-76,69
412,8637,6,-1703,-4654,23,-172,-74,69
413,8637,6,-1705,-4655,23,-173,-75,70
414,8639,6,-1696,-4656,23,-174,-75,69
415,8642,7,-1695,-4655,23,-173,-76,68
416,8641,3,-1699,-4654,23,-174,-76,70
417,8638,3,-1699,-4655,23,-173,-75,69
418,8644,7,-1696,-4656,23,-173,-75,69
419,8645,6,-1693,-4656,23,-173,-75,69
420,8644,2,-1699,-4655,23,-171,-75,70
421,8645,7,-1699,-4655,23,-172,-76,71
422,8641,2,-1699,-4655,23,-173,-76,71
423,8640,4,-1706,-4657,23,-174,-75,71
424,8636,5,-1701,-4657,23,-173,-77,70
425,8636,5,-1705,-4657,23,-173,-78,69
426,8637,7,-1707,-4655,23,-173,-78,69
427,8636,7,-1702,-4655,23,-172,-78,69
428,8635,9,-1699,-4654,23,-172,-77,69
429,8635,12,-1693,-4654,23,-171,-77,69
430,8636,8,-1696,-4653,23,-172,-77,68
431,8637,9,-1703,-4652,23,-173,-77,68
432,8644,15,-1709,-4652,23,-173,-77,67
433,8643,16,-1708,-4652,23,-173,-77,67
434,8641,12,-1707,-4651,23,-171,-75,69
435,8636,9,-1710,-4653,23,-173,-75,69
436,8639,9,-1707,-4652,23,-173,-76,69
437,8639,7,-1704,-4653,23,-173,-77,68
438,8636,9,-1709,-4655,23,-174,-76,68
439,8637,10,-1713,-4653,23,-173,-75,68
440,8638,9,-1715,-4652,23,-174,-75,69
441,8638,5,-1714,-4653,23,-173,-75,70
442,8638,1,-1709,-4654,23,-174,-75,70
443,8635,3,-1712,-4655,23,-173,-77,71
444,8637,7,-1710,-4654,23,-175,-77,70
445,8634,6,-1698,-4653,23,-174,-77,72
446,8630,3,-1687,-4652,23,-174,-75,70
447,8636,1,-1679,-4654,23,-173,-76,70
448,8636,6,-1688,-4655,23,-173,-77,69
449,8632,5,-1696,-4656,23,-172,-77,69
450,8632,7,-1692,-4657,23,-172,-76,70
451,8637,6,-1689,-4655,23,-171,-77,71
452,8638,7,-1688,-4656,23,-173,-76,69
453,8631,4,-1689,-4657,23,-173,-77,70
454,8630,-1,-1699,-4657,23,-174,-77,69
455,8635,0,-1695,-4657,23,-173,-77,70
456,8635,1,-1698,-4658,23,-174,-76,69
457,8636,4,-1701,-4658,23,-174,-76,69
458,8638,5,-1694,-4658,23,-174,-76,70
459,8639,8,-1702,-4654,23,-173,-75,70
460,8634,11,-1698,-4656,23,-173,-75,69
461,8630,7,-1699,-4656,23,-174,-75,69
462,8633,10,-1702,-4656,23,-174,-75,69
463,8636,13,-1708,-4656,23,-174,-74,69
464,8637,9,-1710,-4657,23,-174,-74,68
465,8638,10,-1716,-4655,23,-174,-75,69
466,8640,8,-1711,-4655,23,-173,-77,69
467,8645,9,-1708,-4654,23,-174,-76,70
468,8641,2,-1705,-4655,23,-173,-77,69
469,8642,5,-1696,-4654,23,-174,-77,70
470,8639,8,-1697,-4654,23,-174,-76,70
471,8646,6,-1696,-4654,23,-175,-76,69
472,8642,4,-1692,-4654,23,-174,-77,70
473,8644,4,-1689,-4654,23,-175,-77,70
474,8642,8,-1694,-4653,23,-175,-76,69
475,8637,9,-1692,-4653,23,-174,-76,69
476,8639,10,-1696,-4652,23,-175,-76,70
477,8639,8,-1699,-4652,23,-176,-76,69
478,8644,7,-1694,-4652,23,-175,-74,69
479,8646,3,-1691,-4653,23,-175,-75,70
480,8645,0,-1692,-4653,23,-174,-75,70
481,8646,-5,-1698,-4652,23,-173,-76,70
482,8644,0,-1701,-4651,23,-172,-75,70
483,8645,-1,-1695,-4654,23,-173,-75,70
484,8644,4,-1704,-4652,23,-173,-75,70
485,8643,6,-1699,-4653,23,-173,-74,70
486,8639,4,-1703,-4655,23,-173,-75,70
487,8640,5,-1698,-4653,23,-173,-75,70
488,8638,7,-1702,-4654,23,-174,-75,70
489,8634,7,-1702,-4655,23,-175,-75,69
490,8638,3,-1700,-4656,23,-175,-76,69
491,8637,3,-1696,-4657,23,-173,-75,69
492,8641,1,-1697,-4659,23,-173,-76,68
493,8639,-2,-1692,-4658,23,-174,-76,69
494,8638,-1,-1699,-4657,23,-174,-76,69
495,8642,-7,-1697,-4657,23,-174,-77,69
496,8643,-3,-1699,-4656,23,-174,-77,68
497,8641,-1,-1698,-4654,23,-174,-77,68
498,8646,4,-1699,-4655,23,-174,-77,69
499,8646,2,-1702,-4654,23,-175,-78,69
500,8642,5,-1696,-4655,23,-176,-77,70
501,8640,5,-1702,-4655,23,-176,-77,71
502,8637,10,-1701,-4655,23,-177,-78,71
503,8630,10,-1705,-4655,23,-176,-78,71
504,8630,11,-1706,-4655,23,-176,-77,70
505,8627,9,-1704,-4654,23,-175,-75,71
506,8634,7,-1698,-4653,23,-174,-74,71
507,8634,3,-1702,-4653,23,-172,-74,70
508,8634,6,-1697,-4652,23,-172,-74,69
509,8636,1,-1694,-4653,23,-173,-75,69
510,8637,0,-1695,-4653,23,-172,-75,70
511,8634,-1,-1692,-4652,23,-173,-74,70
512,8637,0,-1692,-4652,23,-173,-74,69
513,8637,1,-1691,-4653,23,-173,-74,69
514,8633,0,-1683,-4653,23,-173,-74,69
515,8632,-3,-1690,-4654,23,-173,-74,70
516,8632,-6,-1693,-4652,23,-174,-76,69
517,8630,-3,-1690,-4652,23,-174,-75,70
518,8632,-1,-1695,-4651,23,-173,-77,69
519,8639,-6,-1698,-4653,23,-172,-77,69
520,8640,-1,-1702,-4654,23,-173,-76,69
521,8643,-2,-1701,-4654,23,-173,-76,70
522,8638,0,-1699,-4655,23,-174,-76,70
523,8642,1,-1694,-4655,23,-173,-76,69
524,8639,6,-1696,-4654,23,-173,-75,71
525,8639,10,-1699,-4653,23,-173,-76,70
526,8642,3,-1702,-4653,23,-173,-76,69
527,8643,6,-1704,-4652,23,-174,-77,70
528,8641,9,-1701,-4651,23,-173,-77,69
529,8641,3,-1696,-4652,23,-174,-76,69
530,8635,5,-1694,-4652,23,-174,-75,69
531,8640,4,-1692,-4651,23,-174,-76,70
532,8645,9,-1695,-4649,23,-175,-75,70
533,8642,7,-1692,-4649,23,-173,-75,70
534,8640,12,-1699,-4651,23,-174,-76,69
535,8638,6,-1702,-4650,23,-174,-76,69
536,8638,1,-1703,-4648,23,-174,-76,70
537,8638,0,-1700,-4648,23,-175,-76,70
538,8635,6,-1701,-4649,23,-176,-75,70
539,8634,2,-1703,-4648,23,-176,-74,69
540,8639,0,-1695,-4650,23,-175,-77,70
541,8643,0,-1700,-4651,23,-175,-76,70
542,8644,2,-1695,-4650,23,-175,-76,69
543,8636,5,-1697,-4651,23,-175,-77,70
544,8631,8,-1697,-4650,23,-174,-76,68
545,8637,8,-1696,-4649,23,-173,-76,69
546,8636,7,-1708,-4650,23,-173,-76,69
547,8639,9,-1705,-4649,23,-173,-75,69
548,8639,9,-1704,-4651,23,-174,-75,68
549,8639,6,-1706,-4652,23,-174,-76,68
550,8636,9,-1703,-4652,23,-173,-75,69
551,8632,10,-1698,-4655,23,-172,-74,69
552,8633,6,-1697,-4655,23,-173,-73,69
553,8631,4,-1696,-4653,23,-173,-73,69
554,8630,6,-1697,-4653,23,-173,-73,69
555,8630,5,-1698,-4653,23,-174,-72,68
556,8628,7,-1695,-4655,23,-172,-73,68
557,8631,4,-1700,-4655,23,-172,-74,68
558,8634,3,-1697,-4654,23,-173,-74,69
559,8638,2,-1694,-4654,23,-173,-76,69
560,8638,12,-1692,-4653,23,-173,-76,69
561,8641,11,-1702,-4653,23,-173,-75,70
562,8640,8,-1694,-4655,23,-174,-75,70
563,8639,9,-1688,-4655,23,-174,-74,70
564,8635,10,-1695,-4655,23,-174,-75,69
565,8632,6,-1690,-4653,23,-173,-76,69
566,8626,7,-1691,-4652,23,-172,-77,70
567,8625,4,-1697,-4653,23,-171,-77,70
568,8628,1,-1702,-4654,23,-171,-76,70
569,8634,7,-1695,-4655,23,-171,-76,70
570,8634,7,-1698,-4655,23,-171,-75,70
571,8637,7,-1697,-4653,23,-172,-76,70
572,8636,7,-1701,-4653,23,-172,-75,70
573,8634,7,-1696,-4653,23,-173,-74,69
574,8640,6,-1698,-4653,23,-174,-75,69
575,8640,3,-1701,-4652,23,-173,-75,68
576,8639,5,-1692,-4652,23,-174,-76,69
577,8639,5,-1689,-4651,23,-172,-78,68
578,8637,5,-1696,-4651,23,-173,-78,69
579,8640,9,-1696,-4651,23,-172,-78,71
580,8639,10,-1701,-4650,23,-172,-77,71
581,8641,11,-1703,-4650,23,-172,-77,70
582,8637,12,-1708,-4650,23,-173,-76,70
583,8633,12,-1705,-4650,23,-172,-76,70
584,8633,10,-1702,-4648,23,-172,-76,69
585,8629,9,-1701,-4650,23,-172,-76,68
586,8633,6,-1697,-4650,23,-172,-76,68
587,8635,8,-1695,-4649,23,-172,-76,68
588,8633,10,-1693,-4647,23,-173,-77,69
589,8635,9,-1692,-4647,23,-173,-75,69
590,8632,11,-1685,-4647,23,-173,-75,70
591,8630,6,-1690,-4648,23,-172,-75,70
592,8637,4,-1697,-4648,23,-172,-76,69
593,8634,1,-1697,-4649,23,-172,-75,70
594,8638,-2,-1695,-4648,23,-173,-75,70
595,8638,-3,-1696,-4651,23,-172,-75,71
596,8642,1,-1700,-4650,23,-173,-76,71
597,8647,0,-1707,-4648,23,-173,-77,70
598,8643,1,-1703,-4648,23,-173,-76,70
599,8641,4,-1704,-4649,23,-173,-75,70
600,8639,7,-1695,-4650,23,-174,-76,69
601,8637,9,-1691,-4650,23,-175,-76,69
602,8637,8,-1690,-4650,23,-174,-76,68
603,8635,6,-1691,-4651,23,-174,-76,68
604,8633,9,-1692,-4653,23,-174,-75,69
605,8636,9,-1697,-4653,23,-173,-75,69
606,8632,9,-1696,-4652,23,-174,-75,69
607,8632,6,-1693,-4653,23,-173,-74,69
608,8633,7,-1694,-4653,23,-173,-74,69
609,8632,4,-1695,-4652,23,-174,-74,70
610,8631,5,-1687,-4650,23,-173,-74,68
611,8629,4,-1690,-4650,23,-173,-73,68
612,8629,6,-1695,-4651,23,-173,-74,68
613,8626,3,-1700,-4652,23,-173,-73,69
614,8631,0,-1693,-4652,23,-172,-74,70
615,8628,1,-1697,-4650,23,-173,-72,70
616,8633,2,-1695,-4651,23,-174,-74,70
617,8632,-2,-1698,-4652,23,-174,-74,69
618,8637,-1,-1698,-4652,23,-174,-74,70
619,8641,-1,-1696,-4652,23,-173,-74,70
620,8642,2,-1698,-4652,23,-174,-74,70
621,8643,2,-1695,-4651,23,-174,-76,68
622,8645,3,-1699,-4652,23,-174,-75,70
623,8643,4,-1695,-4651,23,-174,-75,70
624,8640,1,-1697,-4652,23,-175,-77,70
625,8641,3,-1697,-4652,23,-176,-77,69
626,8641,7,-1695,-4648,23,-175,-74,69
627,8639,6,-1697,-4648,23,-174,-74,70
628,8643,10,-1702,-4649,23,-174,-72,69
629,8645,12,-1702,-4650,23,-174,-73,69
630,8641,15,-1697,-4651,23,-175,-74,69
631,8641,10,-1689,-4654,23,-175,-74,69
632,8642,14,-1689,-4654,23,-174,-74,70
633,8638,11,-1695,-4654,23,-174,-74,69
634,8636,14,-1694,-4654,23,-174,-74,69
635,8634,14,-1688,-4654,23,-174,-75,68
636,8638,15,-1696,-4653,23,-175,-73,68
637,8640,11,-1693,-4651,23,-176,-73,68
638,8639,7,-1689,-4650,23,-176,-73,68
639,8636,3,-1695,-4650,23,-175,-73,67
640,8643,6,-1695,-4648,23,-175,-73,68
641,8640,12,-1697,-4650,23,-174,-73,69
642,8639,10,-1702,-4650,23,-174,-73,69
643,8638,13,-1700,-4650,23,-174,-74,69
644,8636,13,-1705,-4650,23,-174,-75,68
645,8638,11,-1708,-4650,23,-175,-75,68
646,8636,5,-1702,-4650,23,-175,-75,68
647,8640,8,-1691,-4650,23,-174,-75,68
648,8639,7,-1690,-4650,23,-175,-77,68
649,8643,4,-1690,-4650,23,-174,-76,69
650,8647,6,-1685,-4650,23,-176,-76,69
651,8644,3,-1682,-4652,23,-177,-76,69
652,8645,9,-1687,-4651,23,-176,-75,69
653,8646,10,-1691,-4650,23,-175,-76,69
654,8643,8,-1698,-4651,23,-174,-76,69
655,8642,6,-1693,-4651,23,-174,-76,69
656,8640,9,-1697,-4650,23,-174,-77,69
657,8641,5,-1696,-4650,23,-175,-77,68
658,8637,6,-1694,-4650,23,-174,-77,69
659,8635,3,-1692,-4650,23,-175,-77,69
660,8638,3,-1693,-4651,23,-175,-76,68
661,8642,2,-1689,-4651,23,-175,-76,68
662,8645,8,-1687,-4651,23,-175,-75,69
663,8641,8,-1692,-4652,23,-176,-76,69
664,8644,5,-1684,-4653,23,-176,-75,68
665,8645,7,-1684,-4651,23,-176,-76,68
666,8646,9,-1695,-4653,23,-176,-75,69
667,8642,9,-1696,-4652,23,-175,-75,70
668,8639,4,-1696,-4652,23,-174,-75,70
669,8641,3,-1699,-4652,23,-174,-75,70
670,8642,2,-1699,-4651,23,-173,-76,69
671,8645,4,-1699,-4650,23,-173,-75,69
672,8643,4,-1700,-4650,23,-173,-75,70
673,8643,1,-1703,-4650,23,-173,-75,69
674,8641,4,-1694,-4650,23,-173,-74,69
675,8642,9,-1689,-4649,23,-173,-74,69
676,8638,14,-1692,-4650,23,-173,-74,68
677,8636,13,-1699,-4652,23,-174,-75,69
678,8636,12,-1699,-4652,23,-173,-74,69
679,8640,9,-1699,-4651,23,-173,-74,69
680,8640,10,-1695,-4652,23,-173,-75,69
681,8637,10,-1692,-4651,23,-173,-75,69
682,8641,4,-1702,-4651,23,-175,-76,69
683,8633,3,-1694,-4650,23,-175,-75,69
684,8627,2,-1690,-4651,23,-174,-76,70
685,8630,10,-1687,-4652,23,-173,-76,70
686,8633,8,-1687,-4651,23,-173,-76,70
687,8637,6,-1688,-4653,23,-172,-76,70
688,8635,5,-1691,-4653,23,-172,-76,70
689,8633,4,-1692,-4653,23,-172,-76,70
690,8630,4,-1692,-4652,23,-172,-76,69
691,8634,8,-1694,-4651,23,-173,-76,69
692,8634,4,-1697,-4650,23,-173,-76,70
693,8637,1,-1694,-4650,23,-173,-76,69
694,8633,3,-1697,-4651,23,-173,-75,68
695,8634,6,-1702,-4650,23,-173,-74,68
696,8637,2,-1706,-4650,23,-174,-75,68
697,8639,3,-1705,-4651,23,-174,-74,68
698,8640,7,-1696,-4650,23,-174,-74,69
699,8642,6,-1694,-4651,23,-173,-74,69
700,8645,9,-1688,-4652,23,-175,-73,69
701,8642,9,-1690,-4652,23,-176,-74,70
702,8642,7,-1685,-4651,23,-174,-74,69
703,8641,7,-1690,-4651,23,-174,-75,69
704,8645,10,-1693,-4652,23,-174,-75,69
705,8639,10,-1698,-4653,23,-174,-75,69
706,8644,8,-1697,-4649,23,-173,-74,69
707,8645,4,-1698,-4650,23,-174,-74,70
708,8642,1,-1706,-4650,23,-174,-76,70
709,8637,0,-1709,-4651,23,-174,-76,69
710,8640,-1,-1713,-4653,23,-173,-74,69
711,8640,1,-1706,-4655,23,-173,-75,69
712,8639,1,-1702,-4653,23,-173,-75,70
713,8637,2,-1705,-4652,23,-173,-75,69
714,8638,3,-1704,-4649,23,-172,-74,70
715,8637,-1,-1701,-4650,23,-172,-75,71
716,8638,3,-1694,-4650,23,-172,-75,71
717,8636,2,-1701,-4649,23,-173,-75,71
718,8633,2,-1696,-4649,23,-174,-75,71
719,8635,2,-1695,-4648,23,-174,-75,71
720,8632,4,-1695,-4648,23,-174,-75,72
721,8637,6,-1699,-4650,23,-173,-75,71
722,8640,8,-1696,-4650,23,-173,-75,70
723,8642,6,-1699,-4650,23,-174,-75,69
724,8638,8,-1697,-4649,23,-173,-75,70
725,8634,7,-1695,-4649,23,-173,-75,71
726,8631,9,-1689,-4649,23,-173,-76,70
727,8633,7,-1686,-4651,23,-175,-77,70
728,8631,8,-1690,-4651,23,-175,-76,70
729,8635,8,-1691,-4651,23,-176,-76,70
730,8638,12,-1697,-4650,23,-176,-75,70
731,8637,12,-1698,-4649,23,-175,-75,70
732,8634,8,-1692,-4651,23,-176,-75,70
733,8633,8,-1694,-4650,23,-175,-75,69
734,8635,5,-1702,-4649,23,-174,-75,69
735,8636,8,-1698,-4651,23,-175,-76,68
736,8641,7,-1696,-4651,23,-175,-76,69
737,8644,5,-1697,-4652,23,-174,-76,69
738,8643,7,-1700,-4653,23,-174,-76,68
739,8643,3,-1703,-4654,23,-174,-77,69
740,8642,2,-1705,-4654,23,-173,-77,70
741,8639,3,-1700,-4654,23,-174,-77,70
742,8638,1,-1699,-4654,23,-174,-77,69
743,8640,0,-1698,-4654,23,-175,-75,69
744,8649,1,-1702,-4652,23,-175,-75,69
745,8648,2,-1698,-4651,23,-174,-74,70
746,8649,6,-1698,-4650,23,-174,-75,69
747,8647,8,-1700,-4650,23,-174,-75,69
748,8647,3,-1698,-4652,23,-174,-75,68
749,8646,7,-1701,-4653,23,-174,-75,70
750,8642,3,-1706,-4651,23,-174,-76,69
751,8645,6,-1704,-4651,23,-174,-75,69
752,8641,0,-1700,-4651,23,-175,-74,69
753,8643,6,-1694,-4653,23,-175,-75,69
754,8643,9,-1683,-4655,23,-175,-75,69
755,8646,8,-1681,-4656,23,-174,-75,69
756,8642,3,-1683,-4657,23,-173,-76,70
757,8643,5,-1685,-4657,23,-173,-77,70
758,8645,3,-1686,-4655,23,-174,-76,69
759,8645,5,-1691,-4655,23,-173,-77,68
760,8641,2,-1696,-4653,23,-173,-77,68
761,8631,2,-1696,-4652,23,-172,-76,69
762,8628,0,-1698,-4652,23,-172,-76,70
763,8631,2,-1696,-4651,23,-172,-76,70
764,8635,1,-1690,-4652,23,-174,-76,70
765,8636,0,-1696,-4652,23,-174,-77,70
766,8637,-1,-1700,-4651,23,-174,-76,70
767,8636,-1,-1696,-4650,23,-174,-76,70
768,8637,0,-1701,-4650,23,-173,-77,70
769,8640,3,-1701,-4648,23,-175,-75,71
770,8636,5,-1700,-4647,23,-175,-74,70
771,8639,5,-1698,-4647,23,-174,-75,70
772,8641,2,-1699,-4647,23,-174,-75,70
773,8639,4,-1694,-4647,23,-174,-76,69
774,8634,3,-1691,-4650,23,-175,-76,68
775,8629,3,-1698,-4650,23,-175,-77,68
776,8634,3,-1700,-4651,23,-175,-76,68
777,8639,-1,-1694,-4652,23,-174,-76,69
778,8639,-3,-1689,-4652,23,-173,-75,70
779,8638,3,-1690,-4651,23,-174,-76,70
780,8640,5,-1693,-4651,23,-174,-76,70
781,8639,9,-1700,-4652,23,-175,-77,69
782,8641,10,-1710,-4652,23,-174,-77,69
783,8640,7,-1712,-4653,23,-174,-77,69
784,8637,5,-1711,-4651,23,-174,-76,69
785,8639,5,-1710,-4648,23,-175,-77,69
786,8638,8,-1708,-4646,23,-175,-78,69
787,8639,6,-1704,-4646,23,-174,-79,70
788,8640,6,-1705,-4647,23,-174,-78,69
789,8642,8,-1699,-4647,23,-174,-76,69
790,8644,7,-1698,-4649,23,-174,-76,69
791,8641,8,-1699,-4649,23,-174,-75,69
792,8643,9,-1692,-4651,23,-174,-75,70
793,8642,15,-1688,-4651,23,-174,-76,70
794,8643,13,-1697,-4650,23,-174,-76,70
795,8644,10,-1704,-4650,23,-174,-75,69
796,8644,12,-1702,-4649,23,-174,-74,70
797,8641,9,-1702,-4650,23,-175,-76,68
798,8638,8,-1702,-4651,23,-175,-75,68
799,8634,8,-1704,-4650,23,-175,-75,68
800,8640,7,-1706,-4649,23,-175,-76,67
801,8642,4,-1704,-4649,23,-174,-75,68
802,8646,4,-1707,-4649,23,-174,-76,68
803,8646,5,-1702,-4648,23,-173,-77,69
804,8637,8,-1698,-4648,23,-173,-77,70
805,8631,9,-1699,-4649,23,-173,-75,69
806,8635,5,-1699,-4649,23,-174,-75,69
807,8637,5,-1693,-4651,23,-175,-75,70
808,8636,3,-1697,-4651,23,-175,-76,69
809,8638,5,-1702,-4650,23,-174,-76,70
810,8633,4,-1699,-4651,23,-173,-76,71
811,8634,3,-1691,-4650,23,-172,-74,70
812,8637,3,-1691,-4650,23,-172,-75,70
813,8639,7,-1694,-4650,23,-173,-76,70
814,8644,10,-1692,-4650,23,-172,-77,69
815,8641,7,-1693,-4650,23,-173,-78,69
816,8643,15,-1683,-4648,23,-173,-77,68
817,8638,11,-1685,-4647,23,-173,-77,68
818,8637,5,-1684,-4648,23,-173,-77,69
819,8633,9,-1689,-4649,23,-173,-76,70
820,8635,9,-1696,-4651,23,-174,-75,69
821,8634,11,-1708,-4651,23,-173,-75,69
822,8633,12,-1695,-4652,23,-173,-75,70
823,8631,11,-1699,-4650,23,-173,-75,70
824,8631,17,-1701,-4650,23,-174,-74,71
825,8631,13,-1698,-4651,23,-173,-74,71
826,8635,14,-1703,-4651,23,-173,-75,71
827,8636,7,-1703,-4650,23,-172,-76,71
828,8639,8,-1706,-4650,23,-173,-76,71
829,8643,7,-1703,-4649,23,-172,-75,71
830,8640,9,-1699,-4649,23,-173,-75,72
831,8643,8,-1705,-4649,23,-173,-75,70
832,8638,12,-1702,-4652,23,-173,-74,71
833,8640,11,-1697,-4652,23,-173,-75,70
834,8642,10,-1704,-4651,23,-172,-74,71
835,8637,6,-1699,-4651,23,-174,-74,70
836,8639,0,-1701,-4650,23,-174,-74,69
837,8641,2,-1701,-4652,23,-173,-75,70
838,8643,1,-1704,-4652,23,-173,-75,70
839,8646,4,-1698,-4652,23,-174,-75,70
840,8644,9,-1691,-4654,23,-174,-75,69
841,8641,17,-1689,-4651,23,-174,-73,70
842,8637,16,-1691,-4651,23,-174,-73,70
843,8639,17,-1689,-4650,23,-174,-74,70
844,8639,9,-1687,-4653,23,-174,-75,70
845,8636,13,-1685,-4652,23,-175,-76,69
846,8638,13,-1686,-4651,23,-174,-75,70
847,8637,15,-1689,-4650,23,-174,-76,70
848,8634,14,-1684,-4652,23,-175,-78,69
849,8632,11,-1693,-4651,23,-175,-78,69
850,8635,10,-1688,-4651,23,-174,-78,69
851,8630,12,-1690,-4652,23,-173,-77,69
852,8633,12,-1686,-4652,23,-173,-76,69
853,8633,10,-1686,-4652,23,-175,-76,67
854,8630,8,-1686,-4652,23,-174,-76,67
855,8628,8,-1688,-4652,23,-174,-77,67
856,8637,3,-1696,-4651,23,-173,-77,69
857,8630,1,-1708,-4651,23,-173,-78,70
858,8632,7,-1712,-4652,23,-174,-77,69
859,8634,7,-1717,-4651,23,-173,-77,69
860,8638,11,-1710,-4652,23,-172,-78,68
861,8637,12,-1706,-4653,23,-173,-79,68
862,8645,18,-1706,-4653,23,-173,-78,69
863,8637,12,-1701,-4652,23,-172,-76,69
864,8643,13,-1700,-4653,23,-173,-76,70
865,8640,12,-1702,-4653,23,-173,-76,69
866,8638,10,-1704,-4653,23,-174,-76,70
867,8636,13,-1711,-4653,23,-173,-74,69
868,8637,10,-1710,-4651,23,-173,-74,69
869,8638,13,-1706,-4652,23,-173,-74,69
870,8633,10,-1707,-4652,23,-173,-74,70
871,8637,6,-1699,-4651,23,-173,-74,69
872,8640,6,-1695,-4651,23,-174,-75,69
873,8639,9,-1689,-4651,23,-173,-76,70
874,8636,6,-1689,-4650,23,-172,-76,70
875,8634,6,-1683,-4651,23,-172,-76,70
876,8636,8,-1691,-4651,23,-172,-76,70
877,8631,6,-1692,-4650,23,-173,-75,69
878,8632,2,-1686,-4650,23,-173,-75,69
879,8637,1,-1688,-4649,23,-172,-75,70
880,8646,-2,-1683,-4650,23,-173,-74,70
881,8646,1,-1687,-4649,23,-172,-75,68
882,8643,3,-1697,-4650,23,-173,-75,70
883,8641,5,-1694,-4650,23,-174,-76,70
884,8640,1,-1689,-4649,23,-175,-76,70
885,8642,-1,-1694,-4648,23,-175,-75,70
886,8631,0,-1694,-4647,23,-174,-74,70
887,8627,1,-1696,-4650,23,-174,-75,69
888,8634,8,-1692,-4650,23,-174,-76,69
889,8635,8,-1691,-4651,23,-175,-75,68
890,8630,4,-1696,-4650,23,-173,-75,68
891,8632,6,-1696,-4649,23,-174,-74,68
892,8634,4,-1695,-4649,23,-173,-75,67
893,8638,4,-1701,-4648,23,-173,-75,68
894,8642,5,-1692,-4649,23,-172,-75,68
895,8642,6,-1694,-4650,23,-172,-74,68
896,8644,10,-1702,-4650,23,-172,-74,68
897,8638,10,-1698,-4649,23,-172,-75,69
898,8637,9,-1699,-4650,23,-173,-73,69
899,8637,9,-1707,-4650,23,-173,-74,69
900,8639,10,-1708,-4650,23,-173,-74,69
901,8637,9,-1706,-4650,23,-172,-75,69
902,8637,9,-1707,-4650,23,-174,-75,70
903,8636,6,-1702,-4651,23,-174,-78,68
904,8640,2,-1698,-4652,23,-175,-77,69
905,8645,2,-1693,-4653,23,-174,-76,69
906,8646,7,-1695,-4652,23,-175,-79,69
907,8640,4,-1699,-4651,23,-173,-78,70
908,8642,4,-1698,-4652,23,-172,-77,70
909,8639,4,-1690,-4652,23,-173,-78,70
910,8641,6,-1693,-4652,23,-173,-77,70
911,8640,3,-1700,-4651,23,-173,-77,70
912,8637,7,-1701,-4649,23,-174,-77,70
913,8635,10,-1699,-4649,23,-173,-78,70
914,8644,7,-1700,-4650,23,-174,-77,71
915,8642,8,-1701,-4649,23,-173,-76,70
916,8644,11,-1700,-4650,23,-174,-75,69
917,8642,9,-1699,-4650,23,-174,-74,69
918,8641,9,-1698,-4649,23,-175,-75,69
919,8638,7,-1697,-4651,23,-173,-75,69
920,8639,11,-1696,-4653,23,-172,-76,68
921,8641,9,-1696,-4653,23,-173,-75,69
922,8641,9,-1693,-4654,23,-173,-76,69
923,8642,7,-1696,-4653,23,-172,-76,68
924,8644,10,-1695,-4651,23,-173,-76,69
925,8641,5,-1695,-4650,23,-173,-75,69
926,8639,3,-1697,-4652,23,-175,-75,69
927,8640,2,-1697,-4653,23,-175,-75,68
928,8639,2,-1700,-4653,23,-174,-76,69
929,8640,2,-1699,-4651,23,-174,-77,68
930,8640,2,-1700,-4651,23,-175,-77,69
931,8638,4,-1694,-4651,23,-175,-78,70
932,8636,5,-1691,-4652,23,-174,-77,70
933,8634,5,-1687,-4652,23,-175,-76,69
934,8638,6,-1687,-4652,23,-175,-75,70
935,8635,7,-1689,-4652,23,-175,-76,70
936,8637,8,-1691,-4651,23,-175,-76,70
937,8637,5,-1695,-4651,23,-174,-76,70
938,8639,5,-1698,-4650,23,-173,-76,71
939,8640,5,-1697,-4649,23,-174,-76,71
940,8641,6,-1699,-4649,23,-173,-76,70
941,8642,5,-1694,-4650,23,-172,-76,70
942,8643,2,-1701,-4650,23,-172,-76,70
943,8642,7,-1703,-4649,23,-172,-75,69
944,8645,3,-1697,-4649,23,-173,-76,70
945,8638,9,-1694,-4649,23,-174,-75,70
946,8636,5,-1697,-4650,23,-174,-76,69
947,8635,7,-1696,-4651,23,-174,-76,69
948,8642,12,-1697,-4652,23,-175,-75,68
949,8637,10,-1696,-4654,23,-173,-74,69
950,8633,13,-1697,-4653,23,-173,-73,69
951,8638,8,-1692,-4652,23,-173,-73,69
952,8640,16,-1689,-4652,23,-173,-74,69
953,8636,16,-1686,-4652,23,-173,-74,71
954,8640,16,-1680,-4652,23,-173,-75,70
955,8642,16,-1684,-4652,23,-173,-75,70
956,8641,11,-1693,-4653,23,-173,-74,69
957,8639,14,-1697,-4653,23,-173,-74,69
958,8641,11,-1698,-4652,23,-173,-76,68
959,8640,9,-1704,-4650,23,-173,-75,69
960,8639,10,-1706,-4649,23,-172,-76,70
961,8636,6,-1711,-4650,23,-173,-76,69
962,8631,4,-1703,-4650,23,-174,-77,69
963,8636,4,-1706,-4650,23,-174,-76,70
964,8641,6,-1699,-4649,23,-174,-77,69
965,8634,8,-1698,-4649,23,-172,-76,69
966,8637,9,-1697,-4650,23,-174,-76,69
967,8641,7,-1698,-4651,23,-173,-75,69
968,8641,7,-1699,-4651,23,-172,-74,69
969,8638,10,-1698,-4649,23,-173,-74,70
970,8640,11,-1702,-4649,23,-172,-76,69
971,8640,10,-1700,-4647,23,-172,-76,69
972,8644,11,-1703,-4647,23,-174,-76,70
973,8646,13,-1696,-4646,23,-173,-77,70
974,8644,11,-1700,-4646,23,-174,-76,69
975,8640,9,-1695,-4647,23,-174,-76,69
976,8639,9,-1697,-4646,23,-174,-76,69
977,8644,12,-1689,-4648,23,-174,-77,70
978,8638,8,-1693,-4647,23,-173,-77,69
979,8638,5,-1691,-4647,23,-175,-77,69
980,8636,6,-1685,-4647,23,-175,-77,70
981,8638,5,-1688,-4648,23,-175,-78,70
982,8638,7,-1700,-4648,23,-176,-77,70
983,8634,12,-1701,-4648,23,-175,-74,68
984,8633,6,-1694,-4648,23,-174,-75,68
985,8629,3,-1694,-4647,23,-174,-76,68
986,8633,6,-1693,-4648,23,-176,-76,68
987,8642,5,-1693,-4648,23,-175,-76,68
988,8640,6,-1695,-4648,23,-175,-75,69
989,8638,6,-1699,-4649,23,-175,-75,69
990,8639,6,-1694,-4650,23,-174,-76,68
991,8634,7,-1694,-4649,23,-175,-75,68
992,8636,8,-1697,-4649,23,-175,-74,68
993,8632,10,-1694,-4650,23,-175,-74,68
994,8632,8,-1699,-4650,23,-175,-74,69
995,8634,7,-1708,-4649,23,-175,-74,69
996,8637,7,-1704,-4648,23,-175,-75,68
997,8643,10,-1699,-4649,23,-175,-74,68
998,8640,7,-1696,-4648,23,-174,-74,69
