,acc_X,acc_Y,acc_Z,temp,tempC,gyr_X,gyr_Y,gyr_Z
0,2157,3,-416,-4766,22,-177,-79,76
1,2159,6,-422,-4776,22,-174,-81,73
2,2160,-1,-419,-4762,22,-168,-73,70
3,2150,-1,-429,-4764,22,-171,-70,80
4,2161,2,-424,-4760,22,-177,-78,68
5,2162,-4,-428,-4773,22,-174,-72,67
6,2161,11,-417,-4768,22,-174,-78,66
7,2169,-1,-428,-4781,22,-175,-74,64
8,2165,1,-435,-4775,22,-173,-69,68
9,2158,-11,-425,-4779,22,-174,-67,66
10,2166,0,-427,-4769,22,-184,-64,72
11,2157,3,-428,-4779,22,-176,-80,79
12,2158,4,-434,-4772,22,-185,-75,67
13,2157,1,-410,-4760,22,-165,-70,65
14,2159,-7,-431,-4768,22,-174,-68,67
15,2158,-1,-427,-4767,22,-175,-79,73
16,2154,-8,-427,-4763,22,-180,-78,68
17,2156,-1,-422,-4755,23,-175,-71,71
18,2168,-8,-421,-4767,22,-170,-65,74
19,2160,7,-418,-4766,22,-177,-77,69
20,2160,2,-431,-4769,22,-180,-84,66
21,2156,4,-412,-4766,22,-168,-77,74
22,2153,7,-434,-4766,22,-171,-74,66
23,2156,0,-428,-4773,22,-170,-81,64
24,2156,8,-422,-4783,22,-173,-74,68
25,2165,6,-423,-4779,22,-178,-67,71
26,2154,14,-426,-4781,22,-171,-73,68
27,2148,0,-433,-4791,22,-174,-79,70
28,2164,2,-421,-4763,22,-164,-79,68
29,2160,-12,-426,-4779,22,-167,-79,76
30,2161,3,-426,-4776,22,-176,-80,69
31,2169,-1,-422,-4763,22,-167,-58,72
32,2152,-2,-410,-4776,22,-174,-79,68
33,2160,0,-426,-4766,22,-164,-74,72
34,2161,12,-421,-4769,22,-173,-79,71
35,2160,3,-436,-4764,22,-165,-68,74
36,2164,0,-417,-4771,22,-168,-68,66
37,2175,-9,-421,-4773,22,-175,-70,74
38,2167,3,-412,-4774,22,-180,-76,65
39,2168,-4,-417,-4770,22,-174,-74,64
40,2159,-1,-427,-4753,23,-183,-77,70
41,2158,-2,-423,-4761,22,-175,-81,68
42,2148,13,-415,-4772,22,-182,-81,63
43,2163,0,-436,-4762,22,-175,-81,69
44,2167,4,-423,-4763,22,-176,-81,71
45,2170,1,-423,-4756,23,-164,-72,69
46,2156,-2,-418,-4780,22,-182,-80,69
47,2152,4,-419,-4761,22,-171,-77,69
48,2158,5,-423,-4771,22,-171,-79,65
49,2163,7,-426,-4760,22,-166,-70,65
50,2159,-4,-432,-4761,22,-164,-79,68
51,2156,2,-422,-4759,23,-172,-68,66
52,2163,13,-437,-4765,22,-170,-64,67
53,2159,-5,-430,-4772,22,-177,-75,69
54,2159,0,-430,-4757,23,-182,-85,66
55,2164,2,-430,-4781,22,-163,-83,71
56,2152,-6,-431,-4759,23,-179,-80,65
57,2157,-2,-423,-4782,22,-182,-81,77
58,2149,1,-421,-4767,22,-166,-73,68
59,2153,-9,-411,-4768,22,-167,-81,69
60,2157,12,-417,-4785,22,-170,-77,75
61,2166,3,-421,-4769,22,-171,-71,68
62,2148,-5,-408,-4771,22,-173,-76,66
63,2164,5,-426,-4757,23,-178,-76,68
64,2169,9,-432,-4767,22,-166,-78,68
65,2152,3,-417,-4764,22,-160,-68,76
66,2165,6,-429,-4773,22,-178,-70,72
67,2156,2,-432,-4757,23,-174,-82,72
68,2158,6,-422,-4764,22,-174,-85,69
69,2158,3,-419,-4764,22,-164,-78,71
70,2160,-9,-425,-4770,22,-173,-75,71
71,2159,-2,-435,-4769,22,-174,-76,66
72,2158,16,-423,-4759,23,-178,-72,68
73,2156,5,-439,-4763,22,-177,-73,72
74,2160,0,-427,-4765,22,-174,-63,73
75,2157,1,-413,-4759,23,-169,-78,72
76,2155,3,-424,-4784,22,-172,-81,65
77,2152,-11,-430,-4768,22,-183,-72,74
78,2163,0,-421,-4764,22,-167,-63,73
79,2156,6,-425,-4766,22,-177,-85,70
80,2155,3,-413,-4783,22,-178,-70,70
81,2165,-7,-426,-4779,22,-176,-71,67
82,2168,-2,-420,-4763,22,-175,-79,68
83,2149,1,-432,-4769,22,-169,-75,69
84,2155,4,-419,-4758,23,-179,-76,72
85,2165,-1,-424,-4765,22,-174,-78,65
86,2163,2,-421,-4764,22,-170,-74,65
87,2158,10,-434,-4762,22,-169,-72,77
88,2151,0,-422,-4781,22,-171,-76,69
89,2149,2,-422,-4766,22,-172,-84,72
90,2155,1,-431,-4771,22,-175,-67,67
91,2160,-3,-434,-4770,22,-173,-66,68
92,2165,-4,-426,-4769,22,-169,-73,64
93,2158,-6,-422,-4755,23,-178,-77,69
94,2161,7,-429,-4763,22,-177,-79,75
95,2166,-1,-417,-4768,22,-175,-74,74
96,2163,2,-432,-4746,23,-182,-75,71
97,2166,-3,-413,-4773,22,-178,-86,72
98,2161,1,-416,-4771,22,-179,-75,64
99,2163,3,-428,-4783,22,-175,-75,72
100,2155,1,-431,-4777,22,-182,-78,66
101,2159,2,-414,-4760,22,-175,-73,69
102,2156,0,-439,-4767,22,-178,-84,68
103,2156,10,-419,-4760,22,-172,-69,70
104,2167,-1,-435,-4765,22,-164,-75,69
105,2164,5,-428,-4773,22,-170,-72,66
106,2155,-12,-425,-4770,22,-179,-67,76
107,2155,-2,-426,-4758,23,-174,-78,73
108,2157,1,-426,-4766,22,-169,-72,75
109,2159,6,-426,-4760,22,-175,-66,68
110,2157,-8,-427,-4780,22,-176,-70,62
111,2165,-4,-431,-4761,22,-163,-72,70
112,2170,8,-435,-4766,22,-166,-73,71
113,2172,2,-411,-4759,23,-175,-79,65
114,2166,-6,-447,-4768,22,-180,-75,61
115,2164,-8,-429,-4772,22,-163,-81,69
116,2158,-5,-414,-4768,22,-184,-77,74
117,2154,9,-428,-4771,22,-169,-91,67
118,2150,9,-422,-4768,22,-164,-80,67
119,2166,8,-435,-4759,23,-179,-78,74
120,2160,7,-422,-4765,22,-177,-65,68
121,2163,6,-422,-4756,23,-168,-73,64
122,2162,4,-418,-4769,22,-173,-75,71
123,2157,-3,-432,-4770,22,-171,-78,80
124,2174,5,-412,-4762,22,-173,-68,72
125,2160,4,-425,-4761,22,-177,-80,73
126,2151,2,-429,-4762,22,-179,-77,72
127,2157,-3,-426,-4769,22,-177,-79,77
128,2155,4,-427,-4763,22,-174,-82,67
129,2156,6,-419,-4768,22,-176,-80,66
130,2160,3,-420,-4758,23,-169,-66,77
131,2166,1,-412,-4756,23,-174,-72,68
132,2162,-5,-426,-4770,22,-170,-76,59
133,2154,-3,-439,-4755,23,-184,-65,71
134,2158,12,-420,-4770,22,-180,-75,67
135,2160,-11,-422,-4767,22,-175,-88,66
136,2148,2,-406,-4763,22,-174,-76,63
137,2149,8,-438,-4767,22,-180,-74,73
138,2164,2,-418,-4769,22,-175,-76,71
139,2159,2,-417,-4769,22,-179,-75,65
140,2158,-1,-420,-4751,23,-169,-71,77
141,2162,-3,-422,-4767,22,-176,-84,72
142,2166,9,-420,-4754,23,-169,-78,64
143,2161,-7,-426,-4766,22,-170,-69,66
144,2158,-6,-424,-4755,23,-177,-73,68
145,2154,10,-438,-4778,22,-172,-79,70
146,2156,12,-417,-4760,22,-170,-80,64
147,2150,16,-428,-4760,22,-173,-78,74
148,2168,4,-418,-4767,22,-171,-72,65
149,2144,-1,-439,-4768,22,-175,-71,71
150,2159,-1,-436,-4760,22,-183,-74,64
151,2157,-2,-437,-4758,23,-173,-76,61
152,2175,2,-425,-4763,22,-168,-68,67
153,2163,1,-441,-4759,23,-164,-71,64
154,2159,-7,-424,-4767,22,-177,-76,72
155,2163,3,-424,-4758,23,-172,-74,70
156,2152,1,-429,-4777,22,-172,-74,71
157,2147,5,-417,-4754,23,-166,-70,68
158,2166,-6,-428,-4769,22,-169,-75,66
159,2164,8,-414,-4761,22,-163,-81,67
160,2162,9,-419,-4765,22,-179,-77,72
161,2171,7,-424,-4765,22,-182,-79,74
162,2165,-5,-424,-4762,22,-169,-78,63
163,2153,1,-429,-4771,22,-165,-73,65
164,2162,4,-420,-4758,23,-177,-83,60
165,2163,-5,-422,-4766,22,-174,-84,69
166,2165,4,-428,-4764,22,-173,-71,71
167,2156,5,-435,-4766,22,-172,-76,62
168,2151,10,-428,-4764,22,-176,-77,73
169,2166,-1,-414,-4762,22,-170,-79,59
170,2159,0,-419,-4757,23,-169,-80,68
171,2150,1,-420,-4766,22,-171,-78,65
172,2158,-6,-415,-4768,22,-182,-77,74
173,2164,4,-419,-4753,23,-177,-78,63
174,2161,5,-432,-4761,22,-169,-77,61
175,2153,6,-424,-4758,23,-177,-80,71
176,2165,-2,-430,-4763,22,-173,-76,70
177,2153,-12,-422,-4757,23,-172,-72,71
178,2164,5,-418,-4760,22,-180,-67,68
179,2154,4,-424,-4763,22,-169,-75,73
180,2163,4,-419,-4759,23,-171,-67,61
181,2169,-9,-408,-4757,23,-174,-71,73
182,2147,8,-423,-4768,22,-169,-74,73
183,2157,6,-420,-4765,22,-178,-80,68
184,2161,-4,-417,-4770,22,-168,-82,78
185,2162,2,-421,-4763,22,-174,-77,71
186,2158,7,-414,-4759,23,-178,-74,72
187,2160,0,-425,-4767,22,-179,-71,69
188,2159,2,-425,-4778,22,-176,-73,66
189,2165,0,-436,-4751,23,-173,-85,67
190,2154,-6,-424,-4767,22,-174,-76,73
191,2164,13,-436,-4767,22,-165,-83,70
192,2164,-1,-436,-4773,22,-167,-77,64
193,2164,0,-425,-4757,23,-169,-71,74
194,2168,8,-417,-4761,22,-173,-70,72
195,2170,8,-417,-4759,23,-170,-67,66
196,2153,-1,-426,-4766,22,-173,-74,78
197,2157,4,-430,-4762,22,-174,-73,68
198,2167,4,-427,-4766,22,-177,-81,68
199,2150,2,-411,-4753,23,-170,-73,66
200,2160,0,-434,-4766,22,-168,-77,63
201,2161,-4,-420,-4761,22,-170,-86,77
202,2161,6,-417,-4772,22,-171,-78,67
203,2171,-1,-428,-4782,22,-172,-73,68
204,2160,5,-426,-4765,22,-177,-84,68
205,2161,6,-435,-4770,22,-171,-76,68
206,2160,4,-422,-4775,22,-173,-73,77
207,2167,4,-420,-4753,23,-181,-65,78
208,2162,8,-417,-4766,22,-171,-66,64
209,2148,8,-436,-4767,22,-174,-79,65
210,2159,-6,-420,-4770,22,-178,-74,68
211,2166,9,-426,-4764,22,-174,-79,61
212,2161,3,-434,-4771,22,-177,-84,71
213,2164,-3,-438,-4780,22,-176,-63,64
214,2162,-4,-413,-4779,22,-178,-74,71
215,2146,-3,-429,-4760,22,-174,-68,76
216,2165,5,-431,-4761,22,-173,-75,71
217,2162,1,-412,-4774,22,-176,-84,73
218,2159,9,-423,-4778,22,-172,-75,59
219,2169,-5,-423,-4762,22,-177,-83,70
220,2151,0,-422,-4769,22,-173,-84,76
221,2156,-1,-440,-4781,22,-173,-79,69
222,2173,4,-441,-4755,23,-175,-75,67
223,2158,-1,-416,-4780,22,-174,-75,69
224,2162,-10,-427,-4761,22,-174,-65,71
225,2161,11,-427,-4773,22,-169,-81,65
226,2166,6,-423,-4759,23,-175,-71,72
227,2159,-3,-437,-4763,22,-165,-77,75
228,2164,5,-420,-4778,22,-169,-81,75
229,2165,0,-430,-4778,22,-180,-79,67
230,2156,8,-415,-4767,22,-171,-83,68
231,2159,9,-425,-4755,23,-170,-81,65
232,2156,-5,-424,-4761,22,-170,-69,70
233,2158,-1,-421,-4764,22,-177,-85,59
234,2165,-3,-413,-4758,23,-179,-66,63
235,2157,5,-417,-4757,23,-171,-78,68
236,2163,1,-419,-4750,23,-167,-77,76
237,2157,0,-443,-4749,23,-176,-68,71
238,2155,10,-423,-4770,22,-176,-74,70
239,2165,4,-433,-4769,22,-168,-78,71
240,2157,0,-420,-4772,22,-175,-73,70
241,2146,3,-430,-4759,23,-179,-80,67
242,2159,-5,-436,-4774,22,-177,-74,74
243,2162,0,-428,-4763,22,-179,-68,71
244,2163,11,-414,-4777,22,-172,-77,68
245,2172,-5,-421,-4762,22,-185,-77,78
246,2168,-1,-427,-4763,22,-171,-77,72
247,2160,-5,-417,-4769,22,-178,-78,63
248,2166,3,-434,-4767,22,-176,-74,72
249,2163,0,-427,-4764,22,-176,-77,70
250,2159,-1,-431,-4751,23,-173,-79,61
251,2159,8,-416,-4766,22,-179,-65,73
252,2163,-1,-418,-4764,22,-167,-85,74
253,2156,2,-422,-4772,22,-180,-68,69
254,2166,-3,-435,-4769,22,-176,-73,75
255,2163,-6,-421,-4777,22,-181,-73,61
256,2165,5,-418,-4763,22,-174,-74,59
257,2165,-1,-417,-4761,22,-167,-68,69
258,2156,-12,-425,-4754,23,-169,-73,70
259,2163,-1,-407,-4766,22,-175,-77,75
260,2154,2,-429,-4760,22,-176,-77,71
261,2160,2,-429,-4762,22,-173,-70,64
262,2157,9,-413,-4766,22,-178,-77,70
263,2164,11,-423,-4766,22,-171,-77,68
264,2151,0,-415,-4758,23,-169,-79,66
265,2150,-1,-425,-4756,23,-169,-76,64
266,2164,7,-419,-4763,22,-170,-78,69
267,2162,1,-427,-4777,22,-173,-73,62
268,2159,2,-448,-4781,22,-175,-71,76
269,2167,-4,-419,-4767,22,-172,-71,75
270,2161,3,-436,-4781,22,-167,-78,67
271,2166,1,-420,-4787,22,-180,-77,72
272,2156,-5,-428,-4766,22,-173,-65,64
273,2149,4,-428,-4770,22,-179,-78,70
274,2161,-6,-412,-4769,22,-180,-82,68
275,2160,-1,-421,-4781,22,-167,-87,72
276,2152,-1,-428,-4753,23,-170,-71,76
277,2153,5,-434,-4763,22,-180,-66,67
278,2164,1,-425,-4759,23,-180,-69,76
279,2162,6,-436,-4759,23,-183,-72,64
280,2165,5,-412,-4761,22,-181,-70,60
281,2157,2,-422,-4755,23,-177,-68,72
282,2151,-8,-423,-4778,22,-173,-72,68
283,2154,3,-448,-4774,22,-180,-84,68
284,2155,-6,-434,-4767,22,-171,-69,72
285,2152,7,-431,-4763,22,-170,-84,73
286,2169,-3,-431,-4774,22,-173,-76,70
287,2163,5,-423,-4765,22,-165,-77,63
288,2156,12,-443,-4761,22,-168,-74,69
289,2162,8,-416,-4754,23,-177,-80,59
290,2167,9,-420,-4764,22,-178,-70,68
291,2165,0,-432,-4768,22,-176,-74,69
292,2158,1,-423,-4756,23,-180,-73,76
293,2157,-1,-425,-4769,22,-171,-79,70
294,2157,0,-418,-4758,23,-174,-77,65
295,2156,2,-423,-4774,22,-173,-79,71
296,2152,1,-438,-4776,22,-172,-71,70
297,2151,11,-414,-4769,22,-168,-77,68
298,2164,10,-431,-4761,22,-178,-74,55
299,2167,4,-419,-4764,22,-171,-73,77
300,2162,-4,-429,-4753,23,-172,-74,71
301,2156,-4,-425,-4763,22,-170,-71,67
302,2163,4,-429,-4766,22,-179,-73,66
303,2159,-1,-436,-4761,22,-168,-74,74
304,2157,-3,-414,-4755,23,-174,-73,69
305,2155,5,-412,-4770,22,-169,-75,61
306,2153,4,-426,-4765,22,-175,-72,68
307,2158,6,-433,-4767,22,-169,-77,70
308,2159,6,-422,-4772,22,-170,-76,64
309,2165,8,-424,-4772,22,-176,-80,71
310,2155,-5,-432,-4751,23,-160,-78,74
311,2163,1,-428,-4760,22,-178,-86,68
312,2160,-4,-426,-4767,22,-172,-67,65
313,2162,4,-425,-4756,23,-172,-78,65
314,2157,-4,-438,-4768,22,-178,-80,75
315,2157,1,-418,-4769,22,-176,-72,70
316,2163,-5,-419,-4771,22,-171,-82,64
317,2155,1,-427,-4762,22,-175,-72,74
318,2166,-1,-437,-4765,22,-169,-79,80
319,2163,5,-430,-4767,22,-172,-87,71
320,2161,3,-416,-4757,23,-170,-71,73
321,2158,6,-413,-4759,23,-173,-69,74
322,2167,3,-438,-4766,22,-177,-78,73
323,2155,-3,-422,-4763,22,-174,-68,65
324,2154,-5,-434,-4760,22,-172,-74,66
325,2156,-2,-430,-4756,23,-169,-84,63
326,2158,-4,-419,-4759,23,-178,-69,67
327,2161,4,-421,-4757,23,-162,-81,65
328,2156,-9,-419,-4758,23,-178,-72,69
329,2158,-4,-417,-4770,22,-173,-78,72
330,2145,5,-423,-4766,22,-176,-71,67
331,2164,-2,-426,-4763,22,-172,-76,73
332,2165,0,-418,-4762,22,-176,-75,72
333,2160,0,-425,-4766,22,-166,-83,75
334,2165,7,-436,-4767,22,-169,-85,66
335,2153,16,-431,-4761,22,-166,-77,68
336,2161,-3,-420,-4770,22,-177,-75,72
337,2153,0,-424,-4765,22,-178,-71,62
338,2163,4,-418,-4777,22,-161,-73,77
339,2149,8,-436,-4770,22,-178,-71,83
340,2169,10,-423,-4753,23,-174,-69,66
341,2157,-1,-420,-4765,22,-167,-72,75
342,2162,4,-415,-4755,23,-181,-69,69
343,2152,-1,-411,-4775,22,-170,-85,64
344,2165,-1,-426,-4768,22,-165,-76,62
345,2149,-5,-421,-4761,22,-169,-75,65
346,2163,5,-424,-4771,22,-168,-74,64
347,2154,2,-427,-4769,22,-166,-75,68
348,2157,-5,-429,-4770,22,-176,-87,70
349,2163,3,-441,-4760,22,-170,-73,63
350,2152,3,-428,-4767,22,-170,-77,71
351,2157,-9,-413,-4767,22,-170,-78,76
352,2157,-3,-429,-4763,22,-168,-72,71
353,2167,-1,-416,-4767,22,-174,-70,75
354,2157,-1,-418,-4773,22,-162,-79,71
355,2168,-6,-423,-4760,22,-180,-78,72
356,2160,9,-418,-4769,22,-174,-74,71
357,2153,4,-427,-4767,22,-174,-72,76
358,2163,2,-413,-4772,22,-178,-82,64
359,2162,7,-427,-4766,22,-170,-75,65
360,2156,6,-415,-4756,23,-173,-85,74
361,2166,-4,-415,-4760,22,-166,-78,71
362,2168,-3,-412,-4753,23,-176,-77,72
363,2155,-11,-419,-4758,23,-181,-68,73
364,2153,-6,-425,-4751,23,-169,-79,70
365,2156,4,-403,-4757,23,-176,-74,65
366,2158,3,-434,-4758,23,-176,-76,68
367,2168,-1,-419,-4760,22,-177,-75,64
368,2161,2,-414,-4765,22,-176,-74,71
369,2162,-1,-427,-4762,22,-172,-70,67
370,2164,-4,-436,-4753,23,-171,-78,75
371,2162,0,-413,-4760,22,-176,-68,64
372,2152,6,-417,-4756,23,-167,-77,65
373,2160,-1,-428,-4765,22,-167,-83,67
374,2162,4,-425,-4762,22,-169,-70,67
375,2156,-6,-426,-4757,23,-172,-68,61
376,2157,-2,-427,-4762,22,-177,-81,69
377,2156,6,-433,-4767,22,-177,-73,70
378,2162,-3,-424,-4746,23,-181,-68,55
379,2164,0,-431,-4754,23,-178,-75,66
380,2163,4,-417,-4761,22,-173,-73,73
381,2155,0,-413,-4751,23,-174,-79,70
382,2161,-12,-426,-4766,22,-176,-76,70
383,2159,12,-404,-4752,23,-175,-70,68
384,2169,0,-425,-4758,23,-183,-88,70
385,2163,-2,-421,-4765,22,-172,-74,75
386,2165,3,-431,-4772,22,-181,-81,70
387,2167,-6,-428,-4768,22,-173,-75,70
388,2162,2,-431,-4766,22,-169,-73,72
389,2161,4,-427,-4770,22,-177,-69,74
390,2159,4,-417,-4756,23,-175,-74,72
391,2157,6,-432,-4751,23,-178,-80,71
392,2163,-1,-412,-4769,22,-171,-80,65
393,2139,6,-430,-4756,23,-179,-82,66
394,2157,7,-414,-4766,22,-182,-84,66
395,2156,-2,-422,-4770,22,-170,-73,72
396,2166,-6,-426,-4758,23,-171,-73,65
397,2147,-7,-423,-4756,23,-172,-74,72
398,2154,2,-425,-4774,22,-175,-76,72
399,2157,-1,-423,-4752,23,-179,-81,70
400,2157,-6,-415,-4758,23,-176,-78,63
401,2161,-5,-415,-4748,23,-173,-69,74
402,2155,4,-419,-4755,23,-180,-82,64
403,2166,-7,-421,-4761,22,-165,-87,68
404,2157,9,-422,-4765,22,-175,-90,69
405,2159,3,-423,-4771,22,-167,-73,68
406,2153,-13,-424,-4748,23,-166,-77,79
407,2149,5,-417,-4748,23,-166,-76,68
408,2167,1,-431,-4756,23,-172,-89,74
409,2160,8,-425,-4752,23,-177,-64,68
410,2163,0,-434,-4766,22,-174,-75,70
411,2158,-4,-423,-4761,22,-174,-74,71
412,2157,7,-430,-4750,23,-172,-78,74
413,2168,8,-422,-4749,23,-171,-72,63
414,2158,-4,-413,-4762,22,-168,-74,60
415,2155,-5,-424,-4756,23,-176,-69,69
416,2157,11,-430,-4761,22,-177,-71,67
417,2166,-2,-438,-4765,22,-178,-73,73
418,2153,4,-425,-4763,22,-173,-64,64
419,2161,-1,-424,-4754,23,-174,-79,77
420,2163,-6,-430,-4763,22,-178,-81,66
421,2157,-3,-425,-4745,23,-171,-70,65
422,2160,-5,-418,-4764,22,-173,-67,74
423,2163,-2,-430,-4747,23,-178,-73,72
424,2162,-3,-433,-4764,22,-172,-78,70
425,2156,-3,-445,-4767,22,-176,-87,65
426,2163,2,-415,-4758,23,-170,-82,68
427,2162,-2,-425,-4757,23,-176,-73,66
428,2165,2,-432,-4758,23,-169,-75,66
429,2160,3,-416,-4757,23,-169,-70,69
430,2162,9,-436,-4763,22,-168,-72,62
431,2159,1,-427,-4763,22,-169,-63,74
432,2162,9,-412,-4769,22,-169,-84,73
433,2155,-3,-417,-4754,23,-175,-74,77
434,2165,-1,-424,-4747,23,-177,-78,70
435,2146,3,-421,-4747,23,-169,-72,67
436,2155,6,-430,-4778,22,-174,-71,65
437,2160,1,-427,-4755,23,-179,-73,71
438,2164,6,-421,-4756,23,-167,-75,75
439,2158,-3,-421,-4767,22,-173,-74,66
440,2155,-2,-430,-4755,23,-171,-71,75
441,2165,8,-423,-4760,22,-173,-70,78
442,2164,1,-427,-4757,23,-173,-73,62
443,2155,8,-446,-4753,23,-166,-77,67
444,2164,-8,-418,-4762,22,-178,-75,69
445,2157,7,-407,-4748,23,-173,-76,63
446,2156,6,-424,-4760,22,-171,-84,69
447,2155,3,-411,-4761,22,-166,-73,68
448,2160,1,-432,-4748,23,-180,-74,66
449,2164,-5,-416,-4766,22,-172,-78,67
450,2156,2,-424,-4761,22,-170,-75,66
451,2168,-5,-423,-4772,22,-177,-79,67
452,2168,9,-433,-4758,23,-165,-75,63
453,2160,-13,-433,-4767,22,-173,-68,66
454,2154,12,-427,-4759,23,-172,-77,68
455,2158,-3,-434,-4753,23,-160,-70,71
456,2157,2,-432,-4753,23,-175,-85,69
457,2170,-5,-429,-4765,22,-177,-74,61
458,2157,-3,-437,-4758,23,-172,-73,71
459,2155,9,-426,-4770,22,-169,-86,72
460,2149,10,-422,-4765,22,-173,-70,64
461,2174,-3,-428,-4756,23,-178,-70,71
462,2152,-5,-439,-4760,22,-168,-80,68
463,2160,2,-431,-4753,23,-175,-75,71
464,2159,3,-424,-4772,22,-170,-75,64
465,2161,5,-425,-4765,22,-169,-73,74
466,2149,2,-434,-4768,22,-165,-74,71
467,2165,11,-425,-4761,22,-178,-74,70
468,2150,6,-416,-4772,22,-177,-71,71
469,2152,8,-429,-4747,23,-168,-73,64
470,2156,-1,-429,-4762,22,-175,-65,76
471,2159,-2,-420,-4757,23,-178,-77,76
472,2161,7,-418,-4759,23,-171,-83,73
473,2162,-1,-430,-4758,23,-177,-84,65
474,2157,-5,-444,-4767,22,-180,-75,67
475,2166,-4,-422,-4759,23,-174,-81,63
476,2151,0,-415,-4766,22,-173,-79,67
477,2151,1,-439,-4752,23,-177,-84,65
478,2158,-5,-417,-4781,22,-177,-63,71
479,2167,1,-426,-4766,22,-172,-68,69
480,2158,9,-417,-4770,22,-169,-78,73
481,2154,-7,-426,-4768,22,-177,-75,67
482,2171,6,-432,-4763,22,-170,-91,68
483,2149,6,-439,-4765,22,-176,-77,73
484,2167,0,-435,-4750,23,-173,-82,69
485,2167,2,-421,-4760,22,-171,-76,69
486,2164,-7,-422,-4762,22,-174,-72,75
487,2157,5,-432,-4756,23,-176,-80,66
488,2161,-2,-419,-4775,22,-180,-84,59
489,2162,-3,-422,-4754,23,-177,-79,61
490,2157,-1,-432,-4768,22,-167,-86,71
491,2164,5,-421,-4762,22,-172,-74,73
492,2164,5,-432,-4766,22,-171,-71,77
493,2162,-1,-445,-4753,23,-172,-72,69
494,2164,3,-423,-4769,22,-178,-81,68
495,2152,1,-433,-4766,22,-172,-79,69
496,2155,2,-431,-4772,22,-170,-81,69
497,2158,4,-419,-4781,22,-174,-76,70
498,2157,-3,-427,-4760,22,-175,-83,64
499,2159,1,-439,-4761,22,-170,-75,64
500,2162,1,-413,-4764,22,-177,-71,75
501,2162,1,-434,-4769,22,-174,-75,70
502,2159,-6,-436,-4748,23,-177,-68,63
503,2159,8,-424,-4753,23,-173,-76,75
504,2160,2,-427,-4760,22,-171,-70,71
505,2162,1,-430,-4755,23,-167,-82,69
506,2164,8,-429,-4752,23,-170,-79,60
507,2163,5,-425,-4751,23,-169,-72,61
508,2159,-1,-433,-4756,23,-171,-68,68
509,2157,11,-424,-4761,22,-171,-78,67
510,2158,10,-439,-4766,22,-171,-78,67
511,2151,5,-426,-4762,22,-169,-76,70
512,2161,-4,-425,-4753,23,-172,-69,64
513,2163,-11,-415,-4771,22,-173,-75,66
514,2153,9,-439,-4757,23,-183,-66,70
515,2157,3,-435,-4770,22,-172,-87,73
516,2162,-5,-431,-4758,23,-181,-83,69
517,2152,7,-420,-4757,23,-171,-75,73
518,2160,7,-435,-4766,22,-170,-73,73
519,2159,-2,-417,-4767,22,-166,-69,70
520,2155,5,-416,-4758,23,-172,-72,67
521,2164,-2,-418,-4761,22,-175,-76,66
522,2157,3,-425,-4756,23,-170,-74,71
523,2165,-2,-421,-4735,23,-178,-61,60
524,2157,2,-429,-4755,23,-176,-77,71
525,2157,12,-432,-4758,23,-185,-76,72
526,2159,-4,-425,-4770,22,-174,-69,68
527,2149,9,-439,-4746,23,-171,-68,67
528,2159,-1,-420,-4757,23,-172,-75,66
529,2157,-8,-424,-4764,22,-164,-80,73
530,2160,4,-414,-4753,23,-174,-73,71
531,2163,9,-427,-4755,23,-165,-72,70
532,2167,6,-434,-4757,23,-173,-76,69
533,2158,6,-427,-4754,23,-163,-77,57
534,2151,2,-427,-4762,22,-174,-70,64
535,2150,1,-427,-4747,23,-178,-69,66
536,2164,5,-421,-4736,23,-169,-72,74
537,2162,7,-422,-4759,23,-172,-74,68
538,2157,-4,-429,-4762,22,-180,-70,61
539,2158,0,-425,-4757,23,-170,-73,70
540,2151,1,-432,-4778,22,-168,-86,67
541,2159,1,-431,-4765,22,-182,-84,59
542,2154,-10,-420,-4746,23,-176,-71,68
543,2167,-5,-420,-4762,22,-174,-70,69
544,2152,0,-424,-4764,22,-181,-84,76
545,2157,-3,-441,-4758,23,-169,-68,73
546,2159,-5,-428,-4761,22,-173,-68,64
547,2170,6,-432,-4760,22,-161,-85,73
548,2168,6,-412,-4766,22,-174,-75,70
549,2164,3,-440,-4753,23,-169,-78,80
550,2158,-1,-425,-4756,23,-168,-79,66
551,2166,0,-432,-4757,23,-177,-78,76
552,2164,4,-422,-4754,23,-177,-81,67
553,2158,-3,-419,-4771,22,-189,-85,64
554,2162,-4,-415,-4771,22,-168,-81,67
555,2151,9,-426,-4763,22,-165,-69,68
556,2161,4,-416,-4760,22,-172,-81,68
557,2168,2,-421,-4762,22,-175,-74,68
558,2158,2,-425,-4759,23,-170,-69,70
559,2155,3,-432,-4764,22,-173,-71,68
560,2154,2,-430,-4753,23,-173,-76,66
561,2155,3,-421,-4748,23,-169,-68,71
562,2163,7,-411,-4767,22,-170,-70,77
563,2162,3,-426,-4753,23,-170,-80,68
564,2167,8,-414,-4766,22,-174,-75,59
565,2154,4,-429,-4764,22,-179,-76,67
566,2157,-3,-422,-4768,22,-172,-75,69
567,2154,0,-431,-4765,22,-172,-77,71
568,2162,7,-423,-4758,23,-175,-71,65
569,2166,-8,-440,-4761,22,-175,-75,67
570,2156,1,-428,-4770,22,-170,-76,63
571,2162,7,-420,-4753,23,-175,-71,68
572,2149,1,-422,-4761,22,-173,-74,75
573,2161,3,-422,-4766,22,-169,-69,68
574,2159,-6,-414,-4768,22,-166,-78,78
575,2155,-1,-426,-4749,23,-175,-75,66
576,2158,5,-411,-4756,23,-165,-74,72
577,2155,3,-440,-4765,22,-173,-69,70
578,2154,-5,-427,-4758,23,-176,-70,64
579,2158,5,-422,-4760,22,-184,-75,65
580,2156,-9,-413,-4759,23,-174,-76,70
581,2158,0,-433,-4753,23,-166,-71,65
582,2154,4,-424,-4754,23,-172,-82,74
583,2161,10,-424,-4776,22,-172,-74,71
584,2149,0,-429,-4770,22,-167,-74,65
585,2150,-3,-415,-4748,23,-180,-67,71
586,2169,-10,-431,-4757,23,-174,-78,64
587,2166,-3,-420,-4747,23,-173,-73,69
588,2160,8,-418,-4750,23,-163,-69,68
589,2165,-7,-433,-4750,23,-174,-74,73
590,2150,7,-427,-4753,23,-170,-70,71
591,2163,0,-434,-4760,22,-176,-73,71
592,2172,7,-423,-4754,23,-173,-76,71
593,2164,5,-426,-4758,23,-181,-83,65
594,2166,-6,-422,-4756,23,-171,-68,73
595,2151,4,-417,-4766,22,-168,-83,69
596,2165,-1,-413,-4755,23,-165,-84,72
597,2155,9,-421,-4747,23,-179,-72,70
598,2151,7,-421,-4756,23,-169,-77,61
599,2159,-3,-415,-4756,23,-162,-85,67
600,2158,1,-425,-4748,23,-166,-80,72
601,2162,-2,-435,-4741,23,-171,-76,71
602,2166,0,-422,-4759,23,-165,-76,74
603,2161,9,-439,-4775,22,-165,-72,65
604,2148,-5,-416,-4763,22,-177,-78,72
605,2153,7,-436,-4756,23,-173,-79,63
606,2163,2,-426,-4754,23,-169,-85,68
607,2163,2,-431,-4760,22,-174,-71,61
608,2158,4,-408,-4751,23,-175,-76,69
609,2156,-1,-436,-4744,23,-180,-85,72
610,2157,2,-441,-4756,23,-169,-78,69
611,2154,-9,-424,-4762,22,-175,-73,69
612,2158,-6,-431,-4749,23,-177,-86,62
613,2161,8,-416,-4761,22,-170,-85,60
614,2166,-2,-424,-4758,23,-173,-83,73
615,2155,9,-421,-4749,23,-176,-80,67
616,2163,-1,-430,-4760,22,-165,-74,64
617,2145,0,-413,-4762,22,-175,-72,70
618,2163,15,-421,-4764,22,-167,-73,68
619,2154,-9,-436,-4757,23,-173,-77,73
620,2161,9,-427,-4747,23,-167,-69,63
621,2167,-11,-427,-4753,23,-173,-78,68
622,2163,10,-423,-4744,23,-173,-70,71
623,2161,10,-402,-4747,23,-179,-80,68
624,2161,5,-427,-4755,23,-174,-72,69
625,2161,9,-423,-4741,23,-172,-79,69
626,2156,-4,-419,-4766,22,-172,-79,66
627,2157,-2,-434,-4764,22,-176,-78,67
628,2159,-1,-421,-4750,23,-172,-81,73
629,2163,10,-409,-4765,22,-172,-69,61
630,2156,-6,-421,-4755,23,-177,-81,67
631,2156,1,-440,-4752,23,-176,-69,69
632,2156,-2,-419,-4758,23,-177,-87,75
633,2163,3,-439,-4747,23,-184,-69,76
634,2152,-5,-422,-4749,23,-164,-72,74
635,2148,4,-428,-4751,23,-170,-75,80
636,2157,-4,-434,-4759,23,-176,-77,64
637,2166,9,-441,-4756,23,-170,-76,75
638,2159,7,-417,-4758,23,-169,-71,68
639,2163,0,-413,-4762,22,-184,-80,70
640,2166,3,-435,-4762,22,-177,-75,65
641,2153,2,-432,-4751,23,-170,-78,68
642,2159,6,-438,-4758,23,-173,-77,73
643,2159,2,-431,-4756,23,-175,-71,68
644,2154,5,-436,-4751,23,-172,-81,80
645,2157,6,-425,-4753,23,-170,-63,64
646,2160,0,-408,-4742,23,-174,-78,69
647,2161,-6,-402,-4757,23,-176,-70,68
648,2160,-2,-432,-4756,23,-186,-68,69
649,2148,14,-421,-4759,23,-166,-77,70
650,2153,-1,-441,-4751,23,-181,-77,75
651,2149,-5,-406,-4761,22,-168,-74,66
652,2157,-9,-413,-4759,23,-171,-73,66
653,2159,-1,-430,-4764,22,-165,-68,73
654,2153,7,-429,-4762,22,-175,-69,70
655,2154,-6,-418,-4749,23,-168,-68,71
656,2162,1,-429,-4749,23,-174,-79,62
657,2149,3,-420,-4760,22,-169,-75,67
658,2157,2,-430,-4757,23,-170,-72,68
659,2162,0,-412,-4749,23,-175,-81,59
660,2171,5,-426,-4749,23,-180,-71,63
661,2160,4,-425,-4760,22,-171,-77,64
662,2158,2,-425,-4749,23,-174,-74,73
663,2156,1,-427,-4756,23,-173,-74,67
664,2162,-3,-424,-4745,23,-171,-80,71
665,2161,7,-411,-4744,23,-171,-78,64
666,2159,4,-409,-4757,23,-175,-79,70
667,2165,-2,-417,-4753,23,-175,-80,70
668,2163,-9,-419,-4740,23,-179,-69,66
669,2160,-5,-417,-4772,22,-173,-75,73
670,2154,-2,-443,-4756,23,-173,-67,75
671,2154,-5,-428,-4753,23,-173,-71,71
672,2160,-5,-454,-4758,23,-172,-66,67
673,2162,3,-438,-4744,23,-180,-75,74
674,2159,-3,-418,-4760,22,-165,-72,69
675,2158,1,-423,-4754,23,-172,-82,66
676,2164,-2,-411,-4757,23,-174,-80,64
677,2164,-5,-420,-4774,22,-173,-73,64
678,2151,0,-415,-4759,23,-173,-75,69
679,2156,9,-422,-4756,23,-180,-79,69
680,2157,4,-432,-4770,22,-174,-70,70
681,2150,13,-421,-4775,22,-166,-71,69
682,2165,-9,-422,-4748,23,-171,-79,62
683,2165,-1,-436,-4760,22,-160,-73,66
684,2170,8,-426,-4747,23,-175,-63,59
685,2162,-4,-421,-4755,23,-169,-84,74
686,2166,1,-438,-4762,22,-171,-69,72
687,2166,6,-433,-4758,23,-166,-81,66
688,2166,6,-432,-4757,23,-174,-83,74
689,2164,11,-439,-4752,23,-174,-71,70
690,2165,7,-423,-4761,22,-159,-80,62
691,2156,12,-430,-4748,23,-171,-66,72
692,2152,7,-411,-4768,22,-179,-83,61
693,2158,-9,-424,-4751,23,-173,-69,71
694,2160,0,-427,-4749,23,-185,-72,63
695,2165,-6,-423,-4756,23,-168,-80,66
696,2153,7,-416,-4772,22,-179,-72,68
697,2168,-10,-432,-4756,23,-173,-76,70
698,2149,-4,-430,-4745,23,-167,-76,61
699,2161,9,-432,-4762,22,-174,-77,71
700,2148,3,-431,-4747,23,-168,-72,72
701,2164,-3,-429,-4750,23,-166,-80,66
702,2162,9,-432,-4760,22,-179,-76,72
703,2152,0,-430,-4753,23,-175,-70,72
704,2159,-3,-434,-4765,22,-168,-83,65
705,2152,5,-432,-4753,23,-164,-73,66
706,2155,6,-431,-4764,22,-169,-75,67
707,2158,-2,-428,-4747,23,-171,-84,66
708,2156,5,-421,-4750,23,-168,-76,66
709,2159,-10,-431,-4756,23,-176,-76,63
710,2159,11,-421,-4758,23,-170,-75,64
711,2166,-2,-419,-4760,22,-176,-89,69
712,2152,-16,-413,-4756,23,-176,-68,74
713,2164,-3,-416,-4754,23,-171,-70,69
714,2154,6,-425,-4759,23,-171,-70,66
715,2156,4,-420,-4753,23,-169,-77,73
716,2153,4,-422,-4754,23,-174,-78,64
717,2154,0,-419,-4745,23,-166,-79,67
718,2164,-1,-435,-4758,23,-171,-70,67
719,2153,-5,-422,-4764,22,-168,-70,77
720,2165,7,-431,-4751,23,-175,-85,69
721,2158,6,-423,-4768,22,-173,-78,73
722,2166,-6,-421,-4744,23,-171,-71,73
723,2164,1,-426,-4761,22,-169,-75,66
724,2148,7,-426,-4762,22,-181,-75,67
725,2155,-8,-425,-4736,23,-173,-74,73
726,2164,6,-424,-4745,23,-163,-78,67
727,2156,-7,-433,-4762,22,-173,-71,69
728,2156,0,-402,-4756,23,-169,-76,71
729,2156,-2,-435,-4750,23,-168,-82,67
730,2165,7,-427,-4750,23,-168,-90,77
731,2151,-3,-415,-4753,23,-176,-75,63
732,2165,-8,-422,-4755,23,-165,-83,67
733,2160,2,-420,-4749,23,-171,-83,73
734,2162,-3,-429,-4759,23,-171,-79,65
735,2161,5,-435,-4752,23,-178,-70,74
736,2161,-1,-424,-4759,23,-175,-72,67
737,2151,0,-427,-4759,23,-170,-74,74
738,2154,13,-438,-4764,22,-170,-73,75
739,2159,3,-424,-4750,23,-165,-81,71
740,2165,5,-423,-4767,22,-170,-76,72
741,2158,3,-409,-4772,22,-168,-71,55
742,2162,3,-417,-4743,23,-168,-79,65
743,2153,7,-423,-4762,22,-168,-72,72
744,2157,1,-416,-4760,22,-165,-73,74
745,2153,-1,-424,-4749,23,-163,-75,69
746,2164,-2,-423,-4756,23,-177,-62,73
747,2160,-4,-429,-4774,22,-166,-72,73
748,2161,-5,-423,-4742,23,-176,-74,62
749,2160,2,-423,-4750,23,-176,-70,70
750,2155,-1,-425,-4754,23,-180,-79,68
751,2151,-10,-435,-4766,22,-175,-78,65
752,2165,0,-427,-4751,23,-169,-77,65
753,2157,1,-421,-4755,23,-165,-83,73
754,2151,-7,-421,-4751,23,-176,-79,70
755,2162,4,-421,-4760,22,-176,-79,66
756,2160,-3,-426,-4761,22,-174,-74,69
757,2147,-2,-414,-4760,22,-175,-72,71
758,2166,0,-424,-4762,22,-174,-63,65
759,2157,8,-429,-4746,23,-173,-76,69
760,2163,6,-430,-4753,23,-177,-74,72
761,2157,1,-428,-4752,23,-179,-73,68
762,2160,0,-431,-4746,23,-185,-76,74
763,2158,4,-417,-4755,23,-170,-73,70
764,2165,2,-412,-4763,22,-174,-71,80
765,2157,7,-422,-4754,23,-165,-71,69
766,2154,-2,-419,-4753,23,-173,-78,67
767,2156,7,-428,-4760,22,-172,-79,65
768,2169,-2,-427,-4754,23,-170,-73,70
769,2160,-2,-440,-4747,23,-179,-74,66
770,2159,2,-445,-4751,23,-173,-79,69
771,2156,10,-421,-4757,23,-177,-78,71
772,2161,9,-422,-4761,22,-181,-72,71
773,2160,4,-419,-4737,23,-177,-70,64
774,2158,4,-412,-4759,23,-183,-70,64
775,2164,0,-408,-4743,23,-169,-79,74
776,2156,5,-430,-4759,23,-175,-82,63
777,2161,-2,-428,-4740,23,-169,-81,71
778,2161,0,-415,-4750,23,-167,-75,70
779,2162,0,-422,-4762,22,-172,-67,70
780,2163,-5,-422,-4756,23,-178,-78,70
781,2154,-5,-420,-4773,22,-166,-61,73
782,2151,-2,-429,-4763,22,-171,-76,67
783,2158,-3,-406,-4754,23,-176,-79,69
784,2160,-1,-426,-4743,23,-178,-84,70
785,2166,1,-404,-4756,23,-179,-75,78
786,2160,0,-422,-4757,23,-176,-73,74
787,2159,1,-431,-4755,23,-176,-76,69
788,2159,5,-415,-4758,23,-172,-85,64
789,2169,3,-425,-4746,23,-172,-77,65
790,2167,5,-435,-4756,23,-169,-81,75
791,2153,-2,-428,-4756,23,-165,-76,74
792,2165,-5,-430,-4759,23,-186,-82,68
793,2160,0,-402,-4750,23,-173,-73,67
794,2155,-3,-425,-4747,23,-179,-73,70
795,2163,18,-410,-4747,23,-174,-80,66
796,2160,-2,-432,-4755,23,-176,-71,77
797,2153,-6,-430,-4753,23,-175,-70,67
798,2164,5,-427,-4767,22,-175,-72,66
799,2163,-2,-438,-4752,23,-180,-79,68
800,2165,4,-423,-4752,23,-174,-77,72
801,2166,-6,-416,-4757,23,-174,-77,67
802,2160,3,-445,-4753,23,-179,-78,67
803,2169,4,-423,-4760,22,-173,-75,66
804,2159,0,-415,-4755,23,-175,-67,63
805,2165,-11,-429,-4754,23,-174,-79,79
806,2156,6,-448,-4756,23,-175,-83,63
807,2159,0,-413,-4767,22,-173,-72,68
808,2160,9,-425,-4753,23,-177,-85,72
809,2154,3,-425,-4764,22,-167,-81,72
810,2160,11,-429,-4758,23,-171,-75,73
811,2149,2,-435,-4742,23,-172,-73,58
812,2156,-2,-427,-4745,23,-169,-79,73
813,2158,9,-409,-4750,23,-168,-71,72
814,2164,-1,-426,-4751,23,-164,-84,65
815,2166,7,-430,-4749,23,-173,-82,62
816,2163,-2,-420,-4752,23,-171,-85,64
817,2166,-5,-428,-4761,22,-175,-75,58
818,2166,-16,-424,-4751,23,-174,-78,68
819,2159,-5,-428,-4746,23,-175,-80,72
820,2153,1,-432,-4754,23,-170,-72,70
821,2161,-8,-422,-4728,23,-167,-82,74
822,2167,-8,-435,-4755,23,-167,-75,72
823,2158,7,-433,-4757,23,-175,-82,72
824,2162,8,-422,-4748,23,-176,-79,62
825,2168,-2,-419,-4742,23,-164,-72,72
826,2158,-6,-426,-4751,23,-175,-82,73
827,2163,4,-420,-4754,23,-170,-77,80
828,2170,6,-424,-4759,23,-171,-81,77
829,2154,-3,-416,-4765,22,-166,-77,66
830,2166,9,-429,-4745,23,-170,-74,74
831,2161,2,-424,-4757,23,-177,-71,75
832,2164,-8,-436,-4761,22,-178,-73,66
833,2157,-3,-415,-4747,23,-167,-66,72
834,2165,-9,-410,-4751,23,-182,-80,67
835,2168,-6,-428,-4752,23,-167,-81,71
836,2157,-1,-416,-4755,23,-169,-79,73
837,2156,-2,-423,-4754,23,-171,-77,63
838,2162,7,-423,-4753,23,-172,-77,72
839,2154,-5,-428,-4759,23,-167,-72,76
840,2154,-4,-423,-4751,23,-170,-73,66
841,2159,12,-431,-4756,23,-179,-81,67
842,2165,-3,-417,-4750,23,-166,-76,69
843,2153,-6,-428,-4760,22,-175,-72,68
844,2159,0,-430,-4759,23,-169,-67,63
845,2155,-2,-423,-4761,22,-174,-87,76
846,2158,3,-428,-4756,23,-171,-73,71
847,2158,-17,-425,-4759,23,-174,-77,75
848,2148,5,-419,-4750,23,-165,-83,65
849,2168,2,-425,-4755,23,-171,-76,67
850,2154,11,-434,-4762,22,-172,-79,59
851,2156,10,-420,-4754,23,-184,-71,69
852,2159,5,-418,-4752,23,-179,-70,73
853,2149,-6,-424,-4764,22,-170,-73,70
854,2163,-13,-437,-4755,23,-172,-75,70
855,2157,8,-424,-4750,23,-171,-77,67
856,2155,5,-424,-4751,23,-171,-79,66
857,2156,-4,-412,-4756,23,-165,-89,64
858,2168,2,-435,-4762,22,-180,-88,65
859,2154,1,-427,-4747,23,-181,-79,71
860,2158,-4,-437,-4738,23,-173,-75,73
861,2173,3,-422,-4758,23,-179,-72,73
862,2158,2,-436,-4753,23,-174,-79,71
863,2165,-8,-418,-4751,23,-177,-79,65
864,2160,2,-416,-4751,23,-163,-66,66
865,2164,8,-420,-4757,23,-177,-75,73
866,2160,4,-414,-4749,23,-169,-74,66
867,2152,-5,-416,-4757,23,-167,-82,68
868,2151,-1,-421,-4744,23,-175,-83,67
869,2156,-2,-422,-4754,23,-172,-72,64
870,2162,4,-424,-4736,23,-177,-75,72
871,2170,-4,-428,-4757,23,-178,-76,67
872,2152,-4,-430,-4745,23,-170,-84,67
873,2153,-4,-422,-4747,23,-167,-69,67
874,2158,6,-422,-4753,23,-162,-74,68
875,2166,2,-437,-4757,23,-175,-70,75
876,2162,2,-427,-4752,23,-170,-75,70
877,2161,4,-409,-4749,23,-175,-79,73
878,2151,2,-436,-4756,23,-168,-78,69
879,2158,5,-422,-4751,23,-172,-85,70
880,2161,-6,-430,-4759,23,-182,-80,75
881,2160,-5,-424,-4742,23,-173,-75,68
882,2157,-1,-422,-4752,23,-179,-78,69
883,2168,-2,-432,-4752,23,-176,-81,72
884,2157,4,-427,-4741,23,-173,-77,64
885,2157,9,-432,-4750,23,-177,-81,70
886,2155,-11,-435,-4749,23,-166,-78,59
887,2153,0,-421,-4751,23,-176,-81,75
888,2164,-11,-423,-4738,23,-183,-82,64
889,2155,0,-432,-4763,22,-173,-75,74
890,2156,4,-420,-4753,23,-180,-73,75
891,2158,0,-419,-4753,23,-168,-71,68
892,2163,4,-418,-4746,23,-175,-79,68
893,2163,3,-425,-4754,23,-174,-78,68
894,2157,5,-412,-4752,23,-172,-80,69
895,2157,-6,-428,-4767,22,-169,-76,64
896,2160,-2,-434,-4753,23,-178,-76,74
897,2158,5,-421,-4753,23,-169,-68,75
898,2157,-1,-420,-4753,23,-183,-81,71
899,2163,7,-432,-4763,22,-172,-73,64
900,2162,2,-430,-4753,23,-176,-73,72
901,2164,1,-410,-4743,23,-170,-77,73
902,2156,1,-436,-4744,23,-162,-78,66
903,2159,-4,-428,-4756,23,-168,-81,74
904,2167,0,-423,-4749,23,-180,-78,77
905,2160,-2,-438,-4736,23,-160,-68,73
906,2150,5,-409,-4752,23,-175,-82,71
907,2158,4,-417,-4748,23,-166,-78,66
908,2158,8,-419,-4752,23,-174,-73,68
909,2167,-6,-424,-4754,23,-170,-70,71
910,2159,-3,-412,-4764,22,-176,-84,61
911,2158,10,-443,-4767,22,-177,-72,74
912,2159,7,-417,-4762,22,-172,-80,66
913,2159,6,-416,-4744,23,-167,-70,68
914,2164,-1,-432,-4755,23,-175,-73,73
915,2158,2,-418,-4750,23,-180,-73,64
916,2163,4,-424,-4758,23,-179,-73,68
917,2164,1,-439,-4738,23,-168,-73,65
918,2162,4,-422,-4758,23,-179,-74,66
919,2150,9,-426,-4740,23,-171,-67,76
920,2160,0,-413,-4745,23,-174,-80,69
921,2152,2,-417,-4761,22,-169,-68,70
922,2157,6,-426,-4763,22,-179,-77,64
923,2157,1,-419,-4753,23,-171,-76,73
924,2161,-4,-420,-4743,23,-175,-77,68
925,2153,0,-420,-4750,23,-171,-83,70
926,2161,-3,-428,-4761,22,-179,-76,66
927,2154,-4,-426,-4753,23,-176,-82,75
928,2170,-1,-421,-4755,23,-168,-79,68
929,2167,-1,-422,-4751,23,-171,-78,69
930,2163,-1,-436,-4763,22,-174,-75,71
931,2154,3,-437,-4763,22,-178,-76,70
932,2160,0,-426,-4751,23,-173,-70,63
933,2161,-3,-436,-4760,22,-166,-86,69
934,2151,1,-442,-4746,23,-177,-78,66
935,2167,-7,-415,-4753,23,-168,-77,65
936,2162,-3,-431,-4747,23,-177,-81,67
937,2158,11,-436,-4760,22,-169,-91,63
938,2167,7,-442,-4757,23,-166,-81,61
939,2167,5,-424,-4753,23,-172,-73,73
940,2152,8,-419,-4747,23,-179,-76,70
941,2147,3,-427,-4733,23,-174,-72,76
942,2166,5,-428,-4758,23,-170,-77,67
943,2151,-5,-423,-4754,23,-179,-78,70
944,2152,4,-431,-4747,23,-169,-74,67
945,2163,0,-429,-4756,23,-169,-77,65
946,2160,6,-418,-4767,22,-174,-76,65
947,2163,5,-403,-4754,23,-157,-82,68
948,2161,1,-423,-4758,23,-178,-81,72
949,2155,5,-434,-4759,23,-170,-78,73
950,2160,0,-423,-4760,22,-175,-84,62
951,2157,3,-418,-4756,23,-170,-75,75
952,2162,2,-427,-4750,23,-171,-77,72
953,2158,-1,-420,-4751,23,-166,-77,67
954,2161,1,-416,-4754,23,-169,-74,60
955,2160,-3,-427,-4766,22,-163,-71,68
956,2159,-3,-429,-4752,23,-172,-78,68
957,2161,-5,-440,-4757,23,-173,-76,66
958,2160,10,-422,-4755,23,-170,-79,75
959,2160,-2,-419,-4751,23,-185,-76,63
960,2158,-1,-421,-4748,23,-176,-76,66
961,2164,-2,-423,-4753,23,-176,-79,71
962,2155,3,-417,-4747,23,-174,-68,74
963,2163,2,-419,-4741,23,-178,-74,66
964,2157,-6,-426,-4743,23,-170,-72,69
965,2158,3,-413,-4750,23,-177,-79,64
966,2163,-3,-416,-4742,23,-172,-80,63
967,2167,6,-420,-4749,23,-178,-74,68
968,2159,6,-422,-4740,23,-170,-74,65
969,2166,-1,-438,-4753,23,-172,-66,69
970,2166,-3,-422,-4751,23,-177,-79,66
971,2158,-5,-425,-4761,22,-172,-74,72
972,2157,-6,-438,-4743,23,-175,-81,66
973,2159,-5,-425,-4756,23,-175,-79,66
974,2156,-3,-427,-4762,22,-173,-82,58
975,2156,4,-421,-4740,23,-177,-73,65
976,2167,4,-423,-4751,23,-166,-81,68
977,2167,7,-422,-4735,23,-174,-72,64
978,2159,-5,-421,-4743,23,-174,-77,71
979,2160,-2,-432,-4751,23,-169,-72,64
980,2151,2,-428,-4746,23,-176,-76,69
981,2158,1,-411,-4754,23,-169,-82,62
982,2160,-6,-430,-4748,23,-170,-79,59
983,2154,-6,-435,-4742,23,-174,-74,68
984,2155,2,-439,-4753,23,-175,-75,69
985,2153,13,-432,-4754,23,-163,-85,75
986,2171,2,-428,-4751,23,-170,-64,67
987,2163,2,-416,-4743,23,-166,-78,72
988,2162,5,-423,-4765,22,-177,-71,69
989,2165,6,-426,-4753,23,-173,-74,67
990,2160,-4,-424,-4749,23,-177,-69,68
991,2154,-9,-426,-4757,23,-177,-75,77
992,2161,11,-431,-4755,23,-168,-75,69
993,2157,-3,-431,-4731,23,-165,-70,67
994,2156,2,-432,-4754,23,-171,-82,71
995,2148,-16,-433,-4760,22,-170,-79,64
996,2156,-3,-424,-4764,22,-177,-83,55
997,2155,5,-412,-4738,23,-175,-69,69
998,2159,2,-425,-4748,23,-177,-72,69
