,acc_X,acc_Y,acc_Z,temp,tempC,gyr_X,gyr_Y,gyr_Z
0,17278,24,-3438,-4859,22,-172,-78,69
1,17276,18,-3434,-4862,22,-173,-77,69
2,17270,10,-3430,-4861,22,-172,-78,70
3,17256,4,-3424,-4858,22,-170,-77,71
4,17248,-2,-3434,-4862,22,-172,-78,70
5,17248,12,-3442,-4859,22,-174,-76,69
6,17246,24,-3458,-4853,22,-172,-76,68
7,17252,26,-3452,-4850,22,-171,-75,69
8,17240,10,-3458,-4850,22,-171,-74,71
9,17248,8,-3452,-4849,22,-173,-74,71
10,17266,18,-3444,-4854,22,-173,-76,71
11,17286,12,-3440,-4853,22,-172,-75,69
12,17288,12,-3420,-4853,22,-172,-76,69
13,17274,2,-3424,-4854,22,-171,-76,68
14,17256,14,-3430,-4855,22,-171,-75,70
15,17264,28,-3412,-4854,22,-172,-77,69
16,17276,32,-3418,-4854,22,-173,-77,68
17,17262,24,-3422,-4850,22,-171,-77,68
18,17256,20,-3432,-4852,22,-170,-78,69
19,17244,16,-3394,-4850,22,-171,-75,69
20,17250,16,-3408,-4847,22,-168,-75,69
21,17250,6,-3404,-4844,22,-169,-75,69
22,17256,12,-3420,-4847,22,-171,-75,68
23,17270,16,-3426,-4849,22,-169,-76,68
24,17276,30,-3418,-4851,22,-171,-75,68
25,17272,24,-3414,-4848,22,-171,-74,69
26,17286,30,-3434,-4847,22,-170,-72,68
27,17280,8,-3424,-4848,22,-170,-74,68
28,17266,12,-3426,-4850,22,-171,-76,69
29,17252,10,-3430,-4846,22,-172,-77,69
30,17256,4,-3416,-4845,22,-171,-76,68
31,17266,16,-3418,-4846,22,-171,-75,69
32,17262,16,-3428,-4843,22,-171,-75,69
33,17264,24,-3422,-4844,22,-172,-76,68
34,17258,20,-3432,-4845,22,-174,-76,70
35,17262,14,-3428,-4845,22,-174,-76,68
36,17270,12,-3432,-4842,22,-172,-78,69
37,17282,-4,-3414,-4844,22,-173,-78,70
38,17264,-6,-3420,-4848,22,-174,-76,70
39,17256,0,-3412,-4845,22,-173,-75,68
40,17262,18,-3420,-4844,22,-174,-76,67
41,17286,12,-3426,-4846,22,-173,-77,70
42,17288,20,-3436,-4845,22,-173,-79,70
43,17282,36,-3432,-4842,22,-173,-80,71
44,17286,26,-3426,-4840,22,-172,-79,70
45,17290,32,-3446,-4840,22,-170,-77,71
46,17260,12,-3426,-4842,22,-169,-76,72
47,17258,12,-3436,-4843,22,-171,-76,71
48,17274,-8,-3426,-4840,22,-171,-74,68
49,17264,8,-3406,-4839,22,-171,-72,68
50,17268,-6,-3418,-4842,22,-171,-75,69
51,17272,4,-3432,-4842,22,-170,-76,70
52,17268,14,-3448,-4840,22,-170,-78,70
53,17266,2,-3454,-4839,22,-172,-76,69
54,17266,4,-3408,-4836,22,-173,-78,70
55,17270,10,-3402,-4838,22,-171,-76,69
56,17276,2,-3396,-4837,22,-173,-78,70
57,17272,6,-3420,-4836,22,-172,-77,70
58,17250,10,-3426,-4838,22,-171,-77,70
59,17252,12,-3428,-4837,22,-172,-77,69
60,17258,26,-3408,-4837,22,-173,-76,68
61,17258,14,-3450,-4839,22,-173,-77,67
62,17262,22,-3446,-4836,22,-174,-76,67
63,17266,16,-3430,-4832,22,-172,-76,68
64,17266,22,-3414,-4831,22,-173,-75,70
65,17238,2,-3434,-4832,22,-171,-75,72
66,17254,18,-3444,-4834,22,-170,-75,70
67,17266,8,-3410,-4830,22,-172,-77,68
68,17252,12,-3422,-4836,22,-172,-78,68
69,17272,8,-3394,-4834,22,-173,-78,67
70,17272,14,-3410,-4831,22,-172,-79,68
71,17252,26,-3414,-4832,22,-172,-78,69
72,17258,6,-3406,-4834,22,-173,-78,67
73,17258,10,-3400,-4834,22,-173,-78,69
74,17282,-2,-3408,-4834,22,-173,-75,71
75,17264,6,-3422,-4830,22,-172,-75,72
76,17272,16,-3412,-4829,22,-170,-74,70
77,17298,14,-3390,-4828,22,-171,-75,70
78,17276,10,-3410,-4830,22,-170,-76,69
79,17278,26,-3406,-4830,22,-170,-75,69
80,17276,28,-3400,-4831,22,-172,-75,69
81,17272,14,-3424,-4829,22,-172,-76,68
82,17290,12,-3424,-4827,22,-172,-77,68
83,17300,16,-3420,-4828,22,-172,-78,67
84,17276,20,-3396,-4828,22,-173,-76,68
85,17262,32,-3420,-4829,22,-172,-76,68
86,17250,28,-3436,-4828,22,-171,-74,67
87,17254,34,-3462,-4829,22,-170,-73,68
88,17248,22,-3418,-4829,22,-172,-75,68
89,17248,20,-3440,-4830,22,-173,-75,68
90,17278,6,-3440,-4831,22,-172,-74,68
91,17282,-4,-3422,-4829,22,-169,-76,68
92,17280,18,-3440,-4829,22,-170,-74,69
93,17268,28,-3424,-4825,22,-171,-73,70
94,17270,26,-3402,-4826,22,-172,-75,71
95,17250,2,-3406,-4825,22,-174,-74,70
96,17252,16,-3402,-4825,22,-173,-75,69
97,17252,14,-3418,-4826,22,-174,-75,69
98,17262,24,-3440,-4824,22,-172,-74,69
99,17270,6,-3426,-4826,22,-171,-73,69
100,17262,4,-3434,-4823,22,-171,-75,70
101,17270,-4,-3438,-4824,22,-169,-77,70
102,17258,12,-3436,-4823,22,-170,-76,71
103,17262,24,-3440,-4824,22,-170,-77,69
104,17284,18,-3442,-4822,22,-172,-76,67
105,17282,14,-3434,-4821,22,-175,-77,70
106,17286,16,-3410,-4822,22,-174,-78,70
107,17272,34,-3438,-4822,22,-173,-75,69
108,17270,28,-3438,-4821,22,-170,-76,69
109,17274,12,-3466,-4820,22,-169,-76,69
110,17282,8,-3442,-4821,22,-171,-76,67
111,17294,8,-3438,-4821,22,-173,-75,68
112,17286,14,-3442,-4819,22,-174,-75,69
113,17278,18,-3462,-4822,22,-175,-76,69
114,17260,12,-3458,-4822,22,-174,-77,69
115,17246,10,-3448,-4820,22,-174,-78,70
116,17250,-2,-3462,-4819,22,-175,-77,71
117,17262,20,-3440,-4820,22,-175,-77,69
118,17278,18,-3448,-4820,22,-175,-77,69
119,17270,30,-3438,-4824,22,-173,-78,72
120,17286,36,-3454,-4819,22,-173,-77,72
121,17290,38,-3448,-4821,22,-173,-76,71
122,17270,18,-3434,-4825,22,-172,-77,72
123,17268,2,-3422,-4823,22,-172,-77,71
124,17254,2,-3406,-4822,22,-172,-77,70
125,17248,-6,-3414,-4824,22,-173,-78,68
126,17264,8,-3440,-4824,22,-173,-79,68
127,17262,2,-3458,-4824,22,-173,-76,67
128,17266,0,-3424,-4821,22,-172,-74,67
129,17264,14,-3436,-4819,22,-170,-75,67
130,17278,38,-3432,-4817,22,-172,-74,68
131,17286,24,-3434,-4817,22,-172,-74,67
132,17290,14,-3414,-4818,22,-174,-75,66
133,17270,12,-3402,-4816,22,-172,-75,66
134,17264,0,-3396,-4815,22,-170,-76,68
135,17284,10,-3422,-4816,22,-170,-78,69
136,17284,12,-3428,-4816,22,-170,-78,68
137,17288,28,-3406,-4819,22,-169,-74,70
138,17298,26,-3410,-4817,22,-170,-73,69
139,17276,24,-3414,-4816,22,-172,-74,69
140,17288,10,-3418,-4816,22,-170,-74,68
141,17284,-6,-3432,-4814,22,-170,-77,69
142,17278,-4,-3454,-4813,22,-172,-77,70
143,17266,-2,-3438,-4815,22,-172,-77,71
144,17266,-2,-3432,-4816,22,-171,-77,70
145,17262,22,-3436,-4813,22,-171,-76,71
146,17266,2,-3400,-4816,22,-172,-78,70
147,17270,12,-3408,-4816,22,-171,-77,68
148,17262,26,-3434,-4817,22,-172,-77,69
149,17282,22,-3436,-4815,22,-173,-78,69
150,17292,34,-3412,-4815,22,-173,-79,68
151,17282,16,-3436,-4813,22,-172,-75,70
152,17284,12,-3432,-4812,22,-172,-74,70
153,17280,24,-3438,-4817,22,-171,-76,71
154,17268,14,-3444,-4817,22,-171,-74,70
155,17266,16,-3424,-4815,22,-173,-75,69
156,17268,4,-3392,-4814,22,-173,-74,68
157,17298,10,-3404,-4815,22,-173,-75,67
158,17284,12,-3464,-4816,22,-172,-74,69
159,17282,20,-3452,-4813,22,-172,-73,69
160,17270,20,-3432,-4813,22,-171,-73,69
161,17254,10,-3434,-4816,22,-171,-75,68
162,17274,16,-3406,-4819,22,-174,-74,69
163,17278,4,-3412,-4816,22,-173,-74,69
164,17278,-14,-3442,-4814,22,-171,-73,68
165,17276,14,-3436,-4813,22,-170,-75,66
166,17280,6,-3426,-4812,22,-170,-76,67
167,17270,18,-3432,-4813,22,-170,-75,68
168,17286,6,-3420,-4813,22,-170,-74,69
169,17304,4,-3394,-4812,22,-170,-74,69
170,17292,18,-3384,-4813,22,-170,-76,68
171,17288,28,-3396,-4811,22,-170,-76,70
172,17290,38,-3416,-4810,22,-168,-77,69
173,17268,22,-3432,-4811,22,-171,-75,71
174,17282,22,-3444,-4808,22,-171,-73,69
175,17300,16,-3428,-4810,22,-171,-72,69
176,17304,20,-3456,-4811,22,-170,-74,70
177,17288,26,-3432,-4812,22,-170,-74,70
178,17280,22,-3414,-4812,22,-171,-76,70
179,17286,6,-3412,-4809,22,-169,-75,69
180,17272,4,-3446,-4806,22,-168,-71,68
181,17258,16,-3470,-4806,22,-169,-74,67
182,17260,20,-3466,-4808,22,-169,-72,67
183,17274,14,-3472,-4810,22,-169,-72,68
184,17292,8,-3442,-4810,22,-171,-73,66
185,17278,12,-3434,-4809,22,-174,-75,67
186,17264,6,-3424,-4810,22,-173,-72,69
187,17254,8,-3426,-4805,22,-174,-73,69
188,17250,0,-3416,-4809,22,-171,-76,69
189,17272,2,-3420,-4807,22,-172,-77,69
190,17270,20,-3428,-4807,22,-172,-76,67
191,17280,28,-3420,-4807,22,-172,-77,67
192,17284,20,-3412,-4808,22,-171,-74,68
193,17268,14,-3420,-4808,22,-172,-75,67
194,17260,4,-3424,-4809,22,-171,-73,69
195,17262,0,-3422,-4807,22,-171,-75,69
196,17272,0,-3432,-4807,22,-171,-77,69
197,17280,10,-3426,-4803,22,-172,-76,67
198,17282,16,-3426,-4802,22,-173,-74,67
199,17278,24,-3418,-4804,22,-173,-75,67
200,17278,36,-3400,-4809,22,-173,-76,67
201,17284,0,-3414,-4810,22,-174,-76,68
202,17272,10,-3416,-4811,22,-173,-76,68
203,17288,-12,-3430,-4806,22,-171,-75,69
204,17290,8,-3432,-4806,22,-173,-74,69
205,17272,28,-3426,-4805,22,-172,-74,68
206,17274,16,-3414,-4805,22,-173,-76,67
207,17288,24,-3444,-4804,22,-172,-78,66
208,17284,22,-3440,-4803,22,-173,-77,67
209,17264,14,-3424,-4802,22,-173,-79,65
210,17286,26,-3434,-4805,22,-173,-79,68
211,17288,46,-3456,-4802,22,-172,-78,68
212,17292,30,-3452,-4802,22,-171,-77,69
213,17290,26,-3456,-4806,22,-171,-75,69
214,17284,8,-3452,-4807,22,-173,-74,69
215,17268,8,-3428,-4803,22,-172,-75,67
216,17272,8,-3410,-4802,22,-171,-76,68
217,17278,18,-3432,-4800,22,-173,-75,70
218,17276,20,-3466,-4802,22,-174,-76,70
219,17274,18,-3466,-4802,22,-174,-76,69
220,17284,20,-3446,-4800,22,-173,-76,68
221,17284,2,-3460,-4802,22,-175,-75,69
222,17266,14,-3416,-4802,22,-173,-78,69
223,17256,18,-3434,-4798,22,-173,-76,69
224,17238,10,-3404,-4800,22,-172,-77,68
225,17240,14,-3408,-4799,22,-171,-77,67
226,17264,14,-3408,-4801,22,-171,-76,67
227,17272,18,-3424,-4802,22,-170,-78,66
228,17274,18,-3426,-4800,22,-170,-77,68
229,17266,20,-3452,-4801,22,-171,-76,67
230,17294,8,-3438,-4802,22,-170,-76,68
231,17288,-14,-3438,-4802,22,-172,-77,66
232,17274,8,-3456,-4804,22,-170,-77,67
233,17264,6,-3432,-4800,22,-171,-76,67
234,17274,30,-3428,-4803,22,-170,-76,67
235,17280,20,-3422,-4803,22,-171,-76,68
236,17276,10,-3418,-4800,22,-172,-76,69
237,17280,20,-3410,-4801,22,-170,-75,70
238,17292,32,-3414,-4804,22,-171,-75,69
239,17280,20,-3422,-4804,22,-172,-74,69
240,17280,30,-3438,-4802,22,-171,-75,68
241,17276,34,-3406,-4804,22,-170,-74,68
242,17242,36,-3422,-4802,22,-170,-75,69
243,17258,40,-3400,-4801,22,-169,-75,69
244,17252,30,-3408,-4801,22,-171,-75,68
245,17264,22,-3386,-4800,22,-171,-76,69
246,17280,20,-3404,-4799,22,-172,-76,70
247,17270,22,-3392,-4797,22,-171,-76,71
248,17282,8,-3398,-4795,22,-170,-76,71
249,17278,0,-3430,-4795,22,-170,-75,69
250,17284,6,-3428,-4797,22,-171,-78,69
251,17276,20,-3424,-4800,22,-173,-77,69
252,17272,4,-3440,-4799,22,-173,-75,71
253,17256,14,-3424,-4793,22,-172,-75,72
254,17246,22,-3402,-4793,22,-172,-78,71
255,17270,10,-3434,-4794,22,-173,-78,71
256,17274,12,-3414,-4796,22,-173,-77,69
257,17270,16,-3402,-4797,22,-173,-78,71
258,17266,10,-3408,-4797,22,-173,-77,69
259,17256,10,-3372,-4797,22,-173,-79,67
260,17268,-4,-3392,-4794,22,-173,-76,68
261,17252,10,-3398,-4797,22,-173,-75,68
262,17270,30,-3384,-4800,22,-172,-74,69
263,17282,26,-3398,-4797,22,-173,-77,70
264,17284,18,-3422,-4797,22,-174,-78,70
265,17274,22,-3394,-4796,22,-173,-77,70
266,17268,28,-3414,-4795,22,-175,-78,67
267,17254,38,-3424,-4798,22,-175,-77,70
268,17280,34,-3454,-4800,22,-174,-75,71
269,17288,26,-3432,-4794,22,-172,-77,69
270,17262,52,-3426,-4792,22,-174,-76,71
271,17256,56,-3458,-4792,22,-174,-74,69
272,17256,36,-3416,-4794,22,-171,-76,71
273,17260,28,-3436,-4792,22,-172,-78,69
274,17266,20,-3424,-4793,22,-170,-77,68
275,17274,26,-3408,-4793,22,-172,-78,68
276,17264,22,-3416,-4793,22,-173,-78,67
277,17260,12,-3426,-4799,22,-173,-76,68
278,17268,22,-3454,-4799,22,-173,-78,69
279,17268,8,-3430,-4802,22,-174,-76,69
280,17272,10,-3438,-4798,22,-172,-77,69
281,17276,8,-3444,-4798,22,-171,-75,69
282,17272,16,-3422,-4797,22,-171,-75,67
283,17280,22,-3442,-4797,22,-171,-76,69
284,17282,28,-3406,-4797,22,-171,-75,68
285,17280,14,-3410,-4799,22,-173,-75,68
286,17280,16,-3428,-4795,22,-172,-75,69
287,17290,4,-3436,-4795,22,-172,-77,69
288,17292,32,-3444,-4793,22,-173,-78,68
289,17294,18,-3426,-4796,22,-173,-77,67
290,17304,18,-3426,-4796,22,-173,-75,67
291,17296,2,-3408,-4798,22,-174,-76,69
292,17278,10,-3420,-4797,22,-174,-75,69
293,17274,14,-3410,-4800,22,-173,-74,68
294,17272,-10,-3432,-4795,22,-170,-75,68
295,17290,4,-3428,-4797,22,-174,-76,68
296,17280,2,-3442,-4795,22,-173,-76,68
297,17264,18,-3464,-4796,22,-172,-77,69
298,17274,22,-3456,-4794,22,-171,-76,68
299,17276,6,-3448,-4795,22,-169,-76,68
300,17278,-8,-3456,-4796,22,-171,-77,67
301,17272,8,-3440,-4792,22,-172,-74,68
302,17280,14,-3430,-4793,22,-174,-76,67
303,17278,6,-3426,-4793,22,-175,-77,66
304,17276,16,-3434,-4793,22,-172,-74,66
305,17266,8,-3422,-4791,22,-172,-78,67
306,17266,8,-3418,-4793,22,-172,-78,65
307,17274,12,-3424,-4792,22,-172,-78,67
308,17276,8,-3444,-4791,22,-171,-77,67
309,17284,0,-3422,-4792,22,-170,-78,66
310,17290,-2,-3418,-4792,22,-170,-77,69
311,17280,-12,-3446,-4791,22,-169,-75,67
312,17294,-4,-3446,-4796,22,-171,-76,68
313,17280,14,-3424,-4796,22,-171,-77,69
314,17278,36,-3464,-4794,22,-172,-77,69
315,17272,26,-3426,-4791,22,-174,-76,69
316,17268,14,-3410,-4790,22,-174,-76,71
317,17264,16,-3404,-4789,22,-175,-77,71
318,17266,10,-3386,-4788,22,-173,-77,72
319,17272,18,-3428,-4784,22,-173,-77,71
320,17276,22,-3428,-4787,22,-173,-77,70
321,17256,12,-3420,-4790,22,-170,-74,70
322,17270,14,-3412,-4791,22,-171,-74,69
323,17258,24,-3408,-4791,22,-172,-74,69
324,17252,16,-3412,-4792,22,-172,-74,69
325,17256,10,-3440,-4793,22,-173,-76,70
326,17260,8,-3432,-4792,22,-174,-76,68
327,17272,24,-3438,-4794,22,-172,-76,70
328,17280,20,-3420,-4796,22,-172,-77,70
329,17278,26,-3398,-4795,22,-174,-77,70
330,17294,16,-3378,-4792,22,-174,-77,68
331,17288,2,-3402,-4790,22,-172,-78,69
332,17286,6,-3406,-4791,22,-173,-77,68
333,17278,14,-3414,-4789,22,-171,-76,65
334,17286,-6,-3418,-4792,22,-171,-78,67
335,17276,-18,-3408,-4791,22,-174,-78,67
336,17268,-14,-3420,-4789,22,-173,-76,69
337,17258,-6,-3424,-4792,22,-174,-79,70
338,17254,16,-3412,-4793,22,-174,-76,70
339,17252,10,-3426,-4791,22,-173,-78,71
340,17248,12,-3408,-4790,22,-173,-79,70
341,17246,10,-3426,-4788,22,-173,-77,69
342,17258,12,-3448,-4790,22,-173,-79,68
343,17274,6,-3414,-4789,22,-173,-77,67
344,17272,4,-3420,-4793,22,-173,-76,69
345,17288,4,-3420,-4791,22,-174,-75,69
346,17288,20,-3396,-4790,22,-174,-74,70
347,17284,28,-3402,-4792,22,-174,-74,68
348,17266,8,-3406,-4793,22,-175,-76,70
349,17258,26,-3438,-4794,22,-174,-75,70
350,17246,6,-3442,-4789,22,-175,-77,69
351,17244,-2,-3422,-4791,22,-171,-77,69
352,17228,2,-3418,-4792,22,-172,-77,70
353,17248,30,-3426,-4790,22,-173,-76,69
354,17258,10,-3460,-4790,22,-175,-77,69
355,17250,14,-3484,-4790,22,-174,-76,67
356,17254,14,-3462,-4786,22,-173,-75,69
357,17258,26,-3410,-4789,22,-172,-75,67
358,17264,24,-3420,-4789,22,-173,-76,70
359,17260,18,-3436,-4787,22,-173,-75,70
360,17288,12,-3446,-4787,22,-172,-76,70
361,17274,14,-3434,-4788,22,-172,-78,70
362,17276,4,-3402,-4787,22,-175,-77,69
363,17290,12,-3404,-4787,22,-172,-77,68
364,17282,4,-3438,-4785,22,-173,-75,68
365,17266,12,-3450,-4785,22,-176,-76,68
366,17262,10,-3468,-4784,22,-174,-74,68
367,17252,8,-3458,-4787,22,-173,-71,68
368,17266,2,-3446,-4786,22,-173,-73,70
369,17256,-2,-3444,-4786,22,-172,-74,68
370,17268,8,-3436,-4787,22,-171,-75,68
371,17260,2,-3454,-4785,22,-172,-75,67
372,17262,22,-3434,-4785,22,-171,-73,68
373,17258,8,-3422,-4787,22,-172,-74,69
374,17270,4,-3434,-4788,22,-171,-74,69
375,17270,2,-3428,-4785,22,-172,-76,69
376,17260,6,-3428,-4784,22,-174,-75,67
377,17256,-8,-3452,-4782,22,-171,-77,68
378,17278,8,-3450,-4783,22,-173,-75,70
379,17274,14,-3446,-4785,22,-172,-74,69
380,17260,26,-3446,-4783,22,-173,-75,69
381,17270,16,-3466,-4782,22,-172,-77,69
382,17272,6,-3432,-4779,22,-175,-76,68
383,17288,2,-3446,-4781,22,-172,-76,68
384,17276,2,-3446,-4780,22,-175,-76,68
385,17264,-2,-3456,-4782,22,-174,-76,66
386,17266,-8,-3442,-4780,22,-174,-76,67
387,17270,-20,-3422,-4783,22,-173,-76,67
388,17278,-4,-3406,-4786,22,-171,-77,68
389,17262,6,-3412,-4780,22,-171,-77,67
390,17258,16,-3426,-4782,22,-173,-79,67
391,17268,20,-3420,-4781,22,-172,-76,68
392,17266,10,-3428,-4781,22,-174,-76,68
393,17264,16,-3430,-4784,22,-173,-76,69
394,17264,-2,-3434,-4782,22,-173,-77,70
395,17264,0,-3448,-4782,22,-172,-75,72
396,17266,22,-3426,-4783,22,-171,-77,70
397,17290,14,-3440,-4785,22,-172,-74,71
398,17282,-4,-3430,-4786,22,-172,-74,69
399,17300,8,-3424,-4785,22,-172,-75,68
400,17302,14,-3416,-4785,22,-172,-74,68
401,17276,8,-3442,-4784,22,-172,-75,70
402,17268,12,-3458,-4781,22,-173,-77,71
403,17260,10,-3462,-4781,22,-172,-77,70
404,17264,14,-3440,-4782,22,-172,-77,71
405,17288,18,-3432,-4782,22,-172,-77,71
406,17268,18,-3418,-4784,22,-172,-78,72
407,17270,12,-3416,-4781,22,-171,-78,72
408,17264,4,-3446,-4782,22,-174,-78,70
409,17264,12,-3432,-4782,22,-173,-77,70
410,17278,6,-3426,-4781,22,-172,-75,69
411,17280,-6,-3414,-4778,22,-171,-76,67
412,17284,8,-3416,-4777,22,-170,-75,66
413,17274,10,-3436,-4777,22,-172,-75,66
414,17290,12,-3458,-4779,22,-171,-73,65
415,17268,-2,-3442,-4782,22,-171,-74,66
416,17290,0,-3450,-4781,22,-172,-73,67
417,17290,-2,-3440,-4784,22,-172,-74,67
418,17270,10,-3436,-4784,22,-171,-73,70
419,17272,12,-3448,-4781,22,-171,-73,71
420,17250,22,-3452,-4782,22,-173,-75,71
421,17258,14,-3444,-4779,22,-173,-77,71
422,17258,18,-3440,-4782,22,-171,-76,71
423,17256,12,-3458,-4782,22,-171,-76,69
424,17244,26,-3444,-4779,22,-172,-74,67
425,17260,32,-3450,-4782,22,-174,-76,67
426,17262,12,-3422,-4783,22,-172,-76,67
427,17258,24,-3418,-4783,22,-171,-74,68
428,17278,12,-3412,-4780,22,-172,-75,70
429,17278,18,-3428,-4780,22,-172,-73,69
430,17256,28,-3430,-4781,22,-170,-74,71
431,17254,28,-3426,-4780,22,-171,-73,69
432,17242,46,-3422,-4782,22,-172,-76,67
433,17258,42,-3442,-4776,22,-172,-75,68
434,17252,20,-3434,-4782,22,-173,-72,68
435,17270,-2,-3454,-4780,22,-172,-74,68
436,17284,12,-3438,-4782,22,-171,-76,68
437,17290,18,-3432,-4783,22,-171,-74,69
438,17290,18,-3424,-4785,22,-174,-75,70
439,17288,22,-3418,-4783,22,-175,-74,68
440,17274,18,-3406,-4781,22,-173,-78,68
441,17270,26,-3436,-4781,22,-173,-77,68
442,17254,16,-3436,-4784,22,-172,-76,68
443,17254,18,-3434,-4779,22,-173,-74,69
444,17270,20,-3456,-4778,22,-173,-75,69
445,17284,22,-3444,-4779,22,-173,-76,68
446,17306,24,-3430,-4780,22,-174,-76,69
447,17294,14,-3444,-4780,22,-175,-76,71
448,17280,2,-3424,-4777,22,-176,-74,71
449,17270,20,-3456,-4779,22,-174,-74,68
450,17270,2,-3458,-4779,22,-171,-77,66
451,17254,-4,-3452,-4777,22,-171,-78,68
452,17254,4,-3458,-4779,22,-172,-77,70
453,17254,8,-3446,-4779,22,-174,-77,68
454,17260,2,-3430,-4778,22,-173,-76,69
455,17278,24,-3424,-4778,22,-171,-77,70
456,17286,24,-3430,-4780,22,-172,-77,68
457,17282,4,-3420,-4781,22,-174,-76,68
458,17276,18,-3436,-4783,22,-173,-75,69
459,17272,28,-3436,-4780,22,-171,-75,68
460,17282,18,-3416,-4780,22,-172,-74,69
461,17280,4,-3410,-4777,22,-171,-76,70
462,17274,0,-3418,-4780,22,-169,-77,70
463,17284,18,-3452,-4778,22,-170,-76,70
464,17276,10,-3412,-4779,22,-170,-76,68
465,17264,28,-3426,-4777,22,-169,-74,69
466,17268,6,-3394,-4779,22,-171,-77,71
467,17270,4,-3420,-4781,22,-170,-73,69
468,17274,24,-3408,-4782,22,-171,-75,69
469,17276,6,-3410,-4780,22,-171,-74,69
470,17268,32,-3410,-4777,22,-171,-72,69
471,17270,48,-3416,-4777,22,-174,-74,70
472,17254,44,-3406,-4778,22,-173,-75,68
473,17250,10,-3432,-4780,22,-175,-74,69
474,17258,12,-3442,-4780,22,-173,-75,69
475,17266,18,-3446,-4776,22,-172,-76,68
476,17284,28,-3468,-4777,22,-171,-77,67
477,17298,26,-3436,-4776,22,-173,-76,69
478,17300,16,-3426,-4777,22,-172,-76,69
479,17286,26,-3416,-4780,22,-172,-76,71
480,17274,30,-3436,-4778,22,-174,-76,70
481,17270,8,-3434,-4783,22,-171,-74,70
482,17256,6,-3424,-4783,22,-172,-74,70
483,17268,12,-3428,-4781,22,-173,-74,69
484,17258,18,-3420,-4781,22,-173,-73,69
485,17268,6,-3398,-4783,22,-173,-73,70
486,17266,8,-3402,-4779,22,-173,-75,69
487,17284,8,-3436,-4779,22,-173,-74,69
488,17274,12,-3454,-4776,22,-172,-75,68
489,17272,6,-3448,-4782,22,-173,-74,68
490,17274,10,-3442,-4782,22,-174,-74,69
491,17294,20,-3474,-4780,22,-174,-75,69
492,17314,24,-3448,-4778,22,-173,-75,69
493,17292,10,-3460,-4774,22,-172,-72,68
494,17284,24,-3442,-4778,22,-174,-75,67
495,17298,34,-3438,-4776,22,-172,-75,67
496,17300,12,-3412,-4778,22,-173,-75,69
497,17278,8,-3438,-4779,22,-174,-75,70
498,17264,10,-3452,-4774,22,-172,-75,70
499,17276,16,-3424,-4775,22,-172,-76,68
500,17264,8,-3452,-4773,22,-173,-77,70
501,17258,10,-3448,-4773,22,-172,-76,68
502,17262,14,-3436,-4776,22,-171,-77,68
503,17282,-4,-3444,-4777,22,-171,-76,67
504,17280,12,-3428,-4777,22,-171,-76,67
505,17270,4,-3442,-4776,22,-173,-74,68
506,17280,20,-3424,-4775,22,-174,-76,67
507,17284,24,-3418,-4772,22,-175,-75,69
508,17274,28,-3440,-4776,22,-175,-76,69
509,17272,22,-3422,-4779,22,-173,-76,69
510,17272,-2,-3438,-4778,22,-172,-76,68
511,17268,-6,-3436,-4776,22,-172,-77,69
512,17282,10,-3420,-4776,22,-174,-76,67
513,17250,12,-3424,-4777,22,-174,-76,66
514,17254,12,-3412,-4778,22,-172,-78,68
515,17258,14,-3410,-4779,22,-171,-77,67
516,17268,24,-3404,-4779,22,-174,-76,67
517,17270,34,-3438,-4777,22,-174,-75,67
518,17250,32,-3432,-4780,22,-173,-75,69
519,17260,30,-3434,-4778,22,-174,-75,71
520,17246,2,-3434,-4775,22,-172,-73,70
521,17242,-2,-3406,-4778,22,-174,-74,68
522,17268,12,-3406,-4778,22,-173,-76,67
523,17246,12,-3400,-4778,22,-172,-78,69
524,17260,14,-3400,-4778,22,-172,-78,68
525,17246,-6,-3426,-4777,22,-172,-78,68
526,17256,22,-3420,-4774,22,-173,-76,67
527,17246,22,-3428,-4773,22,-172,-75,69
528,17254,10,-3406,-4775,22,-173,-78,70
529,17256,4,-3408,-4771,22,-173,-77,69
530,17266,14,-3392,-4771,22,-170,-78,69
531,17262,16,-3412,-4772,22,-172,-79,70
532,17284,24,-3434,-4774,22,-174,-76,68
533,17284,12,-3432,-4776,22,-174,-73,68
534,17280,22,-3432,-4772,22,-172,-74,70
535,17274,2,-3418,-4776,22,-172,-75,71
536,17266,16,-3440,-4775,22,-170,-77,70
537,17268,12,-3444,-4776,22,-169,-77,70
538,17274,18,-3422,-4773,22,-172,-79,68
539,17276,24,-3416,-4778,22,-171,-77,68
540,17266,4,-3410,-4775,22,-173,-75,68
541,17266,18,-3440,-4779,22,-173,-74,71
542,17264,0,-3438,-4781,22,-173,-74,68
543,17270,22,-3456,-4778,22,-174,-77,68
544,17264,26,-3446,-4776,22,-175,-75,69
545,17288,20,-3442,-4772,22,-172,-76,67
546,17280,26,-3434,-4773,22,-174,-77,67
547,17272,20,-3436,-4776,22,-172,-75,69
548,17256,16,-3434,-4777,22,-172,-75,68
549,17264,8,-3450,-4776,22,-173,-75,67
550,17272,8,-3448,-4774,22,-172,-73,68
551,17262,4,-3446,-4775,22,-172,-71,68
552,17256,18,-3454,-4774,22,-173,-72,68
553,17256,14,-3442,-4776,22,-173,-73,70
554,17242,12,-3446,-4775,22,-175,-77,70
555,17254,-22,-3450,-4778,22,-174,-77,70
556,17254,6,-3430,-4778,22,-174,-76,70
557,17244,20,-3430,-4780,22,-174,-74,70
558,17270,20,-3450,-4778,22,-174,-77,69
559,17260,22,-3424,-4776,22,-174,-74,69
560,17260,20,-3416,-4778,22,-173,-76,69
561,17280,12,-3440,-4778,22,-174,-74,68
562,17268,28,-3452,-4776,22,-173,-76,70
563,17270,12,-3432,-4776,22,-174,-78,70
564,17282,6,-3422,-4776,22,-174,-78,71
565,17280,8,-3408,-4779,22,-172,-78,70
566,17284,-2,-3400,-4780,22,-171,-77,68
567,17272,8,-3414,-4782,22,-172,-73,69
568,17288,12,-3410,-4781,22,-173,-71,70
569,17286,-6,-3400,-4778,22,-173,-71,69
570,17276,4,-3402,-4777,22,-172,-73,67
571,17278,28,-3402,-4775,22,-173,-73,67
572,17278,-6,-3408,-4775,22,-172,-73,68
573,17254,2,-3438,-4771,22,-172,-76,67
574,17258,-8,-3434,-4773,22,-173,-78,68
575,17256,-10,-3444,-4775,22,-175,-77,69
576,17254,-20,-3418,-4775,22,-174,-75,71
577,17278,-2,-3424,-4772,22,-173,-76,70
578,17260,-2,-3408,-4774,22,-176,-74,71
579,17264,2,-3398,-4774,22,-176,-72,69
580,17274,22,-3406,-4775,22,-174,-76,70
581,17280,10,-3432,-4776,22,-174,-76,69
582,17280,10,-3418,-4773,22,-175,-76,70
583,17272,20,-3414,-4772,22,-173,-74,70
584,17288,28,-3414,-4772,22,-172,-74,70
585,17272,0,-3424,-4773,22,-172,-75,70
586,17278,-4,-3420,-4773,22,-172,-76,69
587,17282,12,-3394,-4771,22,-171,-76,68
588,17262,18,-3400,-4770,22,-171,-76,68
589,17260,20,-3412,-4772,22,-172,-76,69
590,17264,12,-3428,-4773,22,-174,-77,71
591,17270,-4,-3440,-4775,22,-172,-75,68
592,17278,-14,-3438,-4776,22,-173,-76,69
593,17272,-26,-3420,-4773,22,-171,-76,68
594,17260,-24,-3416,-4773,22,-172,-75,69
595,17266,-2,-3400,-4774,22,-173,-76,68
596,17278,32,-3408,-4772,22,-173,-76,68
597,17282,30,-3414,-4774,22,-169,-75,69
598,17278,24,-3442,-4773,22,-168,-75,69
599,17282,32,-3428,-4769,22,-171,-73,70
600,17276,14,-3416,-4772,22,-175,-75,70
601,17274,2,-3420,-4771,22,-173,-75,70
602,17274,-4,-3410,-4773,22,-172,-73,69
603,17266,8,-3424,-4773,22,-171,-75,69
604,17268,-14,-3442,-4773,22,-173,-74,70
605,17276,-8,-3444,-4772,22,-170,-76,68
606,17278,16,-3446,-4773,22,-170,-76,68
607,17278,14,-3414,-4773,22,-172,-77,67
608,17270,14,-3440,-4771,22,-173,-77,70
609,17278,18,-3416,-4771,22,-171,-75,70
610,17274,18,-3402,-4773,22,-171,-75,67
611,17256,32,-3416,-4773,22,-171,-73,68
612,17260,38,-3450,-4772,22,-172,-72,69
613,17256,30,-3424,-4771,22,-172,-74,70
614,17280,22,-3438,-4772,22,-172,-75,67
615,17278,22,-3444,-4771,22,-174,-76,67
616,17276,26,-3446,-4770,22,-174,-76,68
617,17284,8,-3450,-4769,22,-174,-75,67
618,17282,-12,-3436,-4772,22,-172,-76,69
619,17292,12,-3424,-4770,22,-170,-76,69
620,17294,22,-3412,-4773,22,-172,-77,69
621,17284,14,-3414,-4771,22,-172,-78,69
622,17288,18,-3426,-4771,22,-174,-76,70
623,17296,44,-3422,-4768,22,-173,-75,68
624,17268,38,-3424,-4767,22,-172,-77,69
625,17274,24,-3422,-4766,22,-172,-77,68
626,17294,32,-3394,-4771,22,-172,-77,68
627,17278,8,-3412,-4771,22,-172,-77,68
628,17284,12,-3414,-4772,22,-173,-77,68
629,17272,-2,-3410,-4772,22,-173,-76,69
630,17264,4,-3416,-4771,22,-171,-76,69
631,17266,18,-3418,-4767,22,-174,-77,69
632,17252,24,-3448,-4768,22,-174,-76,69
633,17244,20,-3440,-4770,22,-174,-77,69
634,17254,18,-3448,-4772,22,-174,-77,70
635,17264,12,-3422,-4771,22,-173,-77,69
636,17286,18,-3408,-4766,22,-174,-78,68
637,17296,34,-3402,-4767,22,-173,-75,68
638,17298,20,-3398,-4766,22,-173,-75,69
639,17302,12,-3416,-4767,22,-174,-76,69
640,17284,26,-3424,-4771,22,-174,-79,68
641,17274,20,-3416,-4771,22,-174,-78,67
642,17286,14,-3426,-4769,22,-172,-75,68
643,17292,12,-3402,-4769,22,-172,-74,68
644,17296,26,-3408,-4771,22,-171,-75,69
645,17282,6,-3414,-4766,22,-173,-77,70
646,17282,8,-3398,-4769,22,-172,-75,70
647,17282,12,-3394,-4770,22,-173,-74,71
648,17284,6,-3410,-4772,22,-173,-75,69
649,17278,12,-3422,-4768,22,-173,-74,70
650,17284,14,-3432,-4763,22,-172,-74,70
651,17280,16,-3430,-4767,22,-171,-75,70
652,17288,38,-3428,-4767,22,-170,-76,69
653,17268,22,-3442,-4765,22,-171,-77,67
654,17264,20,-3422,-4765,22,-172,-77,67
655,17272,20,-3396,-4765,22,-172,-74,70
656,17268,28,-3404,-4766,22,-173,-75,71
657,17270,32,-3410,-4768,22,-172,-74,71
658,17274,6,-3416,-4768,22,-172,-75,71
659,17266,20,-3416,-4767,22,-172,-76,70
660,17258,22,-3416,-4768,22,-173,-78,69
661,17254,26,-3416,-4768,22,-173,-77,70
662,17244,44,-3414,-4767,22,-173,-77,69
663,17258,26,-3408,-4767,22,-171,-75,67
664,17292,36,-3426,-4767,22,-173,-74,68
665,17276,12,-3402,-4766,22,-171,-72,69
666,17268,10,-3408,-4764,22,-171,-72,71
667,17268,20,-3410,-4764,22,-172,-73,72
668,17270,26,-3418,-4763,22,-171,-74,71
669,17266,30,-3440,-4761,22,-173,-75,71
670,17272,16,-3432,-4763,22,-174,-75,70
671,17270,10,-3432,-4762,22,-173,-75,70
672,17276,0,-3444,-4762,22,-172,-77,70
673,17270,4,-3450,-4762,22,-171,-76,69
674,17268,12,-3444,-4765,22,-170,-77,68
675,17268,10,-3436,-4766,22,-170,-76,68
676,17270,8,-3424,-4764,22,-172,-77,69
677,17262,20,-3446,-4764,22,-172,-74,70
678,17276,12,-3436,-4766,22,-172,-75,71
679,17288,26,-3436,-4765,22,-172,-77,70
680,17304,12,-3420,-4763,22,-173,-75,69
681,17296,16,-3410,-4763,22,-174,-76,68
682,17278,18,-3410,-4765,22,-176,-75,69
683,17262,14,-3416,-4764,22,-174,-76,68
684,17254,2,-3434,-4764,22,-174,-76,69
685,17272,-2,-3432,-4766,22,-174,-75,71
686,17252,-6,-3448,-4765,22,-172,-75,69
687,17258,16,-3408,-4764,22,-173,-77,68
688,17272,10,-3408,-4765,22,-172,-77,69
689,17284,12,-3426,-4761,22,-175,-80,69
690,17280,-10,-3430,-4764,22,-173,-77,70
691,17274,-8,-3406,-4766,22,-173,-78,71
692,17250,-8,-3426,-4765,22,-174,-75,70
693,17280,6,-3444,-4767,22,-174,-75,69
694,17278,8,-3398,-4764,22,-170,-76,68
695,17286,12,-3434,-4764,22,-170,-73,69
696,17288,-4,-3440,-4760,22,-171,-77,69
697,17284,18,-3456,-4759,23,-170,-76,72
698,17288,8,-3444,-4761,22,-171,-76,70
699,17282,22,-3444,-4760,22,-172,-75,69
700,17268,16,-3426,-4762,22,-172,-74,70
701,17278,-2,-3416,-4764,22,-172,-73,68
702,17274,-8,-3432,-4763,22,-172,-76,69
703,17280,10,-3432,-4761,22,-173,-75,67
704,17288,20,-3424,-4761,22,-172,-74,68
705,17292,24,-3406,-4761,22,-172,-75,69
706,17300,30,-3438,-4759,23,-170,-75,71
707,17294,16,-3416,-4763,22,-174,-75,71
708,17288,-10,-3442,-4761,22,-174,-78,71
709,17266,-4,-3426,-4764,22,-173,-79,69
710,17258,0,-3422,-4761,22,-173,-76,67
711,17256,0,-3434,-4767,22,-172,-75,68
712,17264,2,-3414,-4765,22,-170,-76,69
713,17268,4,-3402,-4765,22,-171,-76,69
714,17274,10,-3390,-4763,22,-172,-77,70
715,17270,8,-3398,-4762,22,-172,-75,70
716,17260,14,-3426,-4760,22,-174,-76,66
717,17254,14,-3450,-4760,22,-173,-75,67
718,17272,2,-3458,-4764,22,-171,-74,66
719,17278,2,-3436,-4761,22,-170,-73,66
720,17270,34,-3436,-4761,22,-172,-73,67
721,17268,24,-3462,-4762,22,-168,-74,68
722,17278,18,-3472,-4761,22,-170,-74,68
723,17270,28,-3428,-4761,22,-169,-76,70
724,17290,18,-3442,-4762,22,-171,-77,68
725,17284,18,-3436,-4760,22,-171,-78,69
726,17282,6,-3440,-4760,22,-172,-75,69
727,17268,18,-3444,-4760,22,-172,-75,70
728,17276,10,-3452,-4762,22,-172,-77,70
729,17268,6,-3432,-4764,22,-171,-76,69
730,17270,0,-3406,-4762,22,-170,-77,69
731,17282,6,-3434,-4764,22,-171,-76,67
732,17274,10,-3466,-4763,22,-170,-78,67
733,17268,16,-3456,-4763,22,-172,-75,70
734,17276,20,-3458,-4762,22,-173,-74,68
735,17300,10,-3436,-4765,22,-174,-73,69
736,17296,-2,-3416,-4764,22,-174,-74,69
737,17290,14,-3410,-4762,22,-174,-73,69
738,17282,-6,-3414,-4761,22,-175,-72,69
739,17304,4,-3412,-4763,22,-173,-76,69
740,17290,18,-3428,-4764,22,-173,-75,70
741,17268,24,-3442,-4763,22,-175,-74,68
742,17252,14,-3426,-4764,22,-173,-75,67
743,17258,16,-3440,-4763,22,-173,-76,69
744,17280,16,-3418,-4761,22,-174,-74,66
745,17280,-8,-3408,-4763,22,-173,-76,68
746,17266,14,-3438,-4767,22,-174,-76,68
747,17270,6,-3424,-4765,22,-174,-80,68
748,17284,20,-3422,-4765,22,-174,-78,67
749,17276,24,-3424,-4762,22,-174,-77,69
750,17270,20,-3406,-4761,22,-175,-75,68
751,17272,28,-3402,-4764,22,-173,-75,69
752,17270,20,-3430,-4764,22,-172,-76,69
753,17282,20,-3452,-4761,22,-173,-77,70
754,17262,8,-3454,-4760,22,-172,-73,71
755,17258,-16,-3444,-4762,22,-174,-74,70
756,17260,-8,-3418,-4763,22,-174,-72,70
757,17264,4,-3412,-4765,22,-174,-75,69
758,17252,28,-3410,-4761,22,-174,-74,68
759,17250,22,-3396,-4763,22,-174,-76,69
760,17262,18,-3410,-4762,22,-173,-76,67
761,17274,18,-3430,-4762,22,-174,-77,67
762,17272,20,-3416,-4761,22,-174,-78,67
763,17260,24,-3410,-4765,22,-173,-75,67
764,17272,16,-3406,-4764,22,-173,-79,69
765,17282,16,-3410,-4761,22,-173,-76,69
766,17266,10,-3410,-4758,23,-171,-76,69
767,17286,12,-3420,-4760,22,-173,-76,67
768,17276,-6,-3402,-4758,23,-172,-76,68
769,17284,6,-3422,-4759,23,-171,-76,69
770,17286,14,-3418,-4761,22,-172,-76,69
771,17268,6,-3428,-4761,22,-174,-74,70
772,17274,10,-3418,-4761,22,-174,-75,70
773,17276,12,-3406,-4767,22,-174,-74,72
774,17282,28,-3420,-4766,22,-172,-75,70
775,17278,32,-3410,-4767,22,-172,-77,68
776,17284,8,-3420,-4766,22,-172,-77,69
777,17304,-4,-3394,-4759,23,-169,-75,70
778,17286,-4,-3424,-4761,22,-172,-75,71
779,17286,4,-3414,-4758,23,-174,-75,69
780,17300,22,-3414,-4760,22,-173,-76,69
781,17292,32,-3442,-4763,22,-174,-76,68
782,17288,32,-3430,-4763,22,-174,-76,69
783,17282,20,-3430,-4763,22,-173,-74,71
784,17274,10,-3440,-4762,22,-172,-76,69
785,17272,40,-3438,-4764,22,-174,-77,69
786,17294,28,-3438,-4762,22,-174,-76,69
787,17288,18,-3434,-4763,22,-173,-75,69
788,17280,22,-3444,-4763,22,-171,-77,69
789,17258,10,-3416,-4763,22,-172,-75,71
790,17266,12,-3408,-4764,22,-171,-75,71
791,17278,20,-3438,-4763,22,-172,-74,68
792,17300,22,-3446,-4763,22,-171,-75,68
793,17284,8,-3406,-4759,23,-172,-76,69
794,17278,26,-3396,-4756,23,-173,-74,68
795,17274,6,-3420,-4757,23,-172,-74,69
796,17266,10,-3446,-4758,23,-172,-73,69
797,17266,12,-3458,-4756,23,-172,-75,69
798,17282,6,-3438,-4758,23,-172,-78,69
799,17270,-2,-3452,-4758,23,-171,-78,68
800,17270,6,-3450,-4758,23,-171,-75,69
801,17290,12,-3446,-4757,23,-173,-76,67
802,17280,10,-3422,-4761,22,-175,-73,67
803,17300,26,-3406,-4760,22,-172,-74,69
804,17262,22,-3410,-4761,22,-173,-76,70
805,17278,18,-3422,-4759,23,-170,-76,70
806,17292,18,-3430,-4760,22,-174,-78,72
807,17278,12,-3434,-4760,22,-174,-79,72
808,17274,10,-3438,-4760,22,-173,-76,71
809,17274,26,-3436,-4761,22,-172,-77,71
810,17274,10,-3442,-4760,22,-173,-77,71
811,17260,2,-3460,-4757,23,-174,-77,71
812,17274,6,-3454,-4758,23,-173,-77,70
813,17258,14,-3440,-4760,22,-173,-77,69
814,17260,26,-3456,-4757,23,-172,-77,69
815,17266,0,-3450,-4756,23,-172,-76,70
816,17282,10,-3422,-4757,23,-171,-75,68
817,17284,2,-3408,-4757,23,-175,-74,68
818,17276,-12,-3406,-4761,22,-175,-75,69
819,17272,-16,-3402,-4759,23,-172,-76,69
820,17272,-6,-3412,-4763,22,-173,-75,69
821,17274,-2,-3424,-4764,22,-173,-74,68
822,17298,10,-3402,-4765,22,-174,-76,68
823,17290,16,-3426,-4767,22,-175,-75,68
824,17288,2,-3430,-4762,22,-173,-76,67
825,17290,14,-3432,-4760,22,-174,-78,67
826,17302,22,-3424,-4760,22,-173,-76,66
827,17270,-2,-3420,-4759,23,-176,-75,68
828,17276,0,-3428,-4761,22,-177,-74,66
829,17278,4,-3444,-4760,22,-176,-74,68
830,17280,-6,-3468,-4759,23,-177,-75,70
831,17258,-2,-3452,-4760,22,-173,-75,70
832,17264,16,-3444,-4758,23,-174,-76,68
833,17254,30,-3426,-4761,22,-174,-75,69
834,17252,18,-3444,-4759,23,-174,-75,68
835,17244,32,-3432,-4762,22,-172,-74,69
836,17250,26,-3420,-4758,23,-172,-78,68
837,17258,6,-3422,-4754,23,-171,-76,71
838,17264,6,-3448,-4750,23,-171,-75,70
839,17274,10,-3432,-4754,23,-171,-76,71
840,17260,14,-3414,-4756,23,-172,-75,70
841,17274,12,-3430,-4758,23,-171,-74,69
842,17272,14,-3446,-4752,23,-172,-74,68
843,17256,8,-3452,-4757,23,-174,-73,70
844,17274,20,-3446,-4756,23,-173,-73,72
845,17264,22,-3418,-4754,23,-174,-76,71
846,17268,30,-3408,-4756,23,-173,-76,72
847,17272,18,-3438,-4759,23,-172,-76,72
848,17286,14,-3442,-4757,23,-172,-75,69
849,17280,26,-3432,-4758,23,-173,-76,67
850,17268,4,-3448,-4757,23,-174,-74,66
851,17264,16,-3446,-4756,23,-173,-75,68
852,17270,4,-3438,-4755,23,-173,-75,66
853,17266,16,-3420,-4758,23,-172,-76,69
854,17266,14,-3392,-4758,23,-173,-74,68
855,17264,20,-3420,-4758,23,-172,-75,71
856,17272,12,-3428,-4756,23,-172,-76,70
857,17274,6,-3424,-4756,23,-172,-76,70
858,17274,14,-3460,-4755,23,-173,-75,69
859,17292,22,-3450,-4756,23,-172,-78,70
860,17290,14,-3432,-4757,23,-172,-76,69
861,17272,16,-3430,-4756,23,-172,-77,67
862,17268,24,-3400,-4755,23,-171,-78,70
863,17260,12,-3420,-4756,23,-171,-79,68
864,17256,14,-3432,-4752,23,-171,-77,70
865,17280,16,-3422,-4753,23,-171,-78,69
866,17280,16,-3424,-4754,23,-173,-77,71
867,17258,8,-3426,-4753,23,-173,-77,70
868,17260,14,-3406,-4754,23,-171,-75,69
869,17254,8,-3392,-4755,23,-174,-75,71
870,17252,22,-3406,-4756,23,-173,-77,69
871,17270,12,-3438,-4755,23,-173,-77,69
872,17270,20,-3426,-4757,23,-172,-76,70
873,17274,20,-3418,-4757,23,-171,-76,68
874,17286,14,-3426,-4754,23,-171,-76,69
875,17278,12,-3442,-4756,23,-173,-76,68
876,17268,24,-3432,-4757,23,-172,-78,69
877,17282,28,-3432,-4758,23,-170,-77,68
878,17276,10,-3398,-4755,23,-171,-78,70
879,17278,6,-3422,-4758,23,-172,-78,70
880,17284,-2,-3424,-4759,23,-172,-77,67
881,17288,-4,-3414,-4761,22,-171,-75,68
882,17284,4,-3438,-4759,23,-170,-76,68
883,17280,8,-3438,-4758,23,-174,-76,69
884,17296,6,-3428,-4758,23,-173,-74,70
885,17286,14,-3452,-4762,22,-174,-76,71
886,17300,0,-3448,-4763,22,-174,-75,71
887,17280,-4,-3430,-4763,22,-173,-76,69
888,17302,6,-3442,-4759,23,-173,-75,69
889,17304,-10,-3438,-4756,23,-172,-74,68
890,17280,4,-3426,-4756,23,-173,-76,68
891,17270,12,-3424,-4757,23,-175,-75,68
892,17274,24,-3396,-4756,23,-175,-76,68
893,17268,26,-3406,-4757,23,-173,-76,70
894,17272,22,-3396,-4759,23,-174,-77,70
895,17298,10,-3400,-4754,23,-173,-78,70
896,17276,18,-3404,-4753,23,-172,-75,73
897,17274,18,-3422,-4756,23,-172,-77,74
898,17264,18,-3434,-4758,23,-170,-78,71
899,17282,6,-3436,-4757,23,-171,-77,70
900,17288,26,-3420,-4758,23,-169,-78,68
901,17296,22,-3412,-4756,23,-172,-77,67
902,17288,8,-3422,-4755,23,-174,-77,69
903,17294,16,-3408,-4753,23,-174,-75,67
904,17290,12,-3392,-4754,23,-174,-76,68
905,17302,16,-3398,-4751,23,-174,-75,69
906,17292,8,-3390,-4756,23,-173,-72,69
907,17294,8,-3408,-4757,23,-174,-74,69
908,17276,8,-3408,-4756,23,-175,-75,69
909,17286,16,-3420,-4759,23,-173,-74,69
910,17288,8,-3424,-4758,23,-172,-76,68
911,17274,-4,-3420,-4760,22,-171,-75,71
912,17278,10,-3408,-4758,23,-170,-74,71
913,17270,14,-3442,-4752,23,-172,-76,71
914,17254,14,-3466,-4753,23,-173,-75,72
915,17244,6,-3448,-4754,23,-173,-77,70
916,17270,4,-3436,-4755,23,-174,-77,69
917,17274,-6,-3428,-4756,23,-174,-78,71
918,17280,16,-3420,-4757,23,-174,-77,71
919,17276,20,-3374,-4758,23,-172,-78,71
920,17266,20,-3360,-4755,23,-172,-75,72
921,17258,20,-3408,-4756,23,-174,-74,70
922,17268,20,-3412,-4759,23,-174,-74,70
923,17282,-10,-3434,-4759,23,-174,-74,69
924,17252,20,-3406,-4757,23,-176,-73,71
925,17270,22,-3418,-4754,23,-173,-73,71
926,17268,20,-3414,-4754,23,-173,-75,70
927,17280,22,-3440,-4754,23,-173,-75,70
928,17272,-4,-3418,-4757,23,-173,-75,68
929,17268,4,-3426,-4756,23,-171,-75,68
930,17272,16,-3428,-4760,22,-173,-74,70
931,17284,14,-3426,-4757,23,-173,-73,71
932,17318,22,-3412,-4757,23,-173,-74,70
933,17286,28,-3404,-4758,23,-171,-76,70
934,17278,16,-3438,-4755,23,-173,-77,69
935,17280,10,-3454,-4752,23,-174,-77,68
936,17282,0,-3422,-4753,23,-174,-77,70
937,17274,0,-3432,-4752,23,-173,-76,70
938,17266,6,-3456,-4752,23,-171,-75,69
939,17266,18,-3422,-4755,23,-173,-78,69
940,17266,-8,-3396,-4756,23,-172,-78,69
941,17270,4,-3408,-4758,23,-172,-76,68
942,17266,0,-3412,-4755,23,-172,-76,68
943,17262,0,-3410,-4753,23,-170,-76,67
944,17270,8,-3384,-4753,23,-170,-75,68
945,17268,14,-3396,-4755,23,-170,-76,69
946,17256,14,-3408,-4756,23,-171,-76,67
947,17282,6,-3408,-4757,23,-171,-75,69
948,17286,2,-3410,-4757,23,-173,-76,68
949,17296,-4,-3424,-4758,23,-172,-76,70
950,17294,-8,-3444,-4759,23,-172,-75,70
951,17286,-2,-3464,-4758,23,-171,-76,69
952,17304,4,-3456,-4757,23,-171,-76,70
953,17290,4,-3430,-4754,23,-171,-76,71
954,17282,14,-3434,-4750,23,-173,-77,68
955,17280,16,-3446,-4752,23,-172,-77,69
956,17284,20,-3438,-4750,23,-173,-75,68
957,17276,22,-3448,-4751,23,-171,-75,66
958,17292,6,-3440,-4754,23,-173,-76,68
959,17272,44,-3430,-4752,23,-173,-78,68
960,17268,28,-3418,-4752,23,-172,-79,67
961,17274,6,-3422,-4749,23,-174,-78,68
962,17250,0,-3422,-4751,23,-176,-77,70
963,17242,10,-3440,-4750,23,-175,-75,71
964,17256,28,-3454,-4753,23,-172,-73,68
965,17282,26,-3470,-4756,23,-173,-75,70
966,17272,28,-3438,-4756,23,-174,-75,70
967,17266,24,-3440,-4756,23,-171,-76,70
968,17274,22,-3428,-4755,23,-171,-74,68
969,17292,18,-3428,-4754,23,-172,-73,70
970,17280,8,-3418,-4753,23,-172,-75,68
971,17288,16,-3422,-4754,23,-170,-75,68
972,17304,14,-3428,-4752,23,-170,-76,65
973,17288,18,-3416,-4753,23,-169,-78,66
974,17280,12,-3394,-4752,23,-172,-78,67
975,17282,8,-3428,-4750,23,-171,-76,68
976,17270,16,-3444,-4750,23,-170,-76,71
977,17284,8,-3450,-4752,23,-170,-74,70
978,17286,6,-3460,-4752,23,-170,-74,68
979,17278,14,-3436,-4754,23,-171,-75,66
980,17292,-4,-3426,-4755,23,-170,-76,67
981,17284,0,-3418,-4755,23,-174,-75,66
982,17272,0,-3418,-4753,23,-175,-74,67
983,17276,8,-3454,-4755,23,-174,-75,68
984,17258,4,-3428,-4754,23,-175,-74,70
985,17268,18,-3408,-4751,23,-171,-74,69
986,17254,18,-3424,-4751,23,-171,-75,69
987,17272,28,-3424,-4751,23,-174,-73,68
988,17262,24,-3432,-4752,23,-174,-75,68
989,17264,40,-3412,-4748,23,-173,-75,68
990,17272,28,-3424,-4745,23,-172,-77,70
991,17272,16,-3432,-4748,23,-172,-75,70
992,17264,12,-3436,-4748,23,-171,-77,69
993,17272,10,-3434,-4748,23,-172,-75,70
994,17268,14,-3452,-4749,23,-172,-74,71
995,17264,16,-3462,-4749,23,-172,-74,70
