,acc_X,acc_Y,acc_Z,temp,tempC,gyr_X,gyr_Y,gyr_Z
0,2160,3,-424,-4699,23,-88,-38,33
1,2157,4,-428,-4700,23,-88,-38,34
2,2160,-1,-425,-4696,23,-86,-38,33
3,2160,0,-430,-4695,23,-87,-38,33
4,2158,-1,-429,-4696,23,-88,-38,33
5,2159,1,-429,-4695,23,-88,-38,35
6,2160,2,-429,-4695,23,-88,-36,35
7,2162,2,-432,-4694,23,-88,-36,33
8,2158,1,-435,-4697,23,-89,-38,34
9,2158,0,-434,-4693,23,-87,-38,36
10,2160,1,-431,-4691,23,-88,-39,35
11,2161,0,-423,-4690,23,-87,-37,34
12,2159,1,-426,-4692,23,-86,-36,34
13,2158,4,-426,-4695,23,-87,-37,35
14,2157,2,-423,-4696,23,-88,-37,33
15,2156,0,-426,-4692,23,-88,-37,34
16,2158,-1,-428,-4691,23,-86,-39,35
17,2158,0,-426,-4695,23,-86,-39,34
18,2157,3,-431,-4693,23,-85,-40,35
19,2154,3,-428,-4693,23,-85,-39,35
20,2155,3,-426,-4698,23,-87,-39,33
21,2160,3,-425,-4695,23,-88,-39,34
22,2158,3,-425,-4693,23,-87,-40,34
23,2158,3,-426,-4691,23,-88,-39,36
24,2159,6,-427,-4692,23,-87,-38,35
25,2157,4,-423,-4691,23,-86,-38,35
26,2158,0,-425,-4695,23,-86,-38,35
27,2161,3,-428,-4695,23,-87,-37,36
28,2160,4,-430,-4698,23,-86,-37,36
29,2160,3,-435,-4695,23,-87,-37,37
30,2159,4,-427,-4695,23,-86,-36,35
31,2155,2,-430,-4691,23,-88,-35,35
32,2156,0,-426,-4695,23,-85,-37,34
33,2158,0,-425,-4694,23,-85,-38,36
34,2159,1,-434,-4698,23,-85,-37,35
35,2157,3,-429,-4695,23,-84,-36,34
36,2153,-2,-426,-4695,23,-84,-36,35
37,2159,-1,-422,-4694,23,-87,-36,35
38,2156,-1,-427,-4695,23,-88,-37,34
39,2155,4,-430,-4686,23,-88,-37,34
40,2158,-2,-432,-4689,23,-88,-37,35
41,2153,-6,-430,-4686,23,-88,-38,34
42,2154,-1,-425,-4690,23,-87,-37,35
43,2153,-1,-427,-4694,23,-87,-38,35
44,2155,0,-431,-4693,23,-87,-39,35
45,2158,-3,-436,-4695,23,-85,-39,36
46,2158,1,-433,-4691,23,-87,-39,35
47,2160,1,-425,-4689,23,-87,-39,34
48,2155,2,-428,-4692,23,-87,-37,34
49,2158,-1,-427,-4692,23,-85,-37,35
50,2160,-1,-433,-4690,23,-85,-37,35
51,2159,1,-432,-4687,23,-85,-37,34
52,2161,3,-431,-4693,23,-86,-37,35
53,2160,1,-430,-4690,23,-85,-38,35
54,2156,-1,-429,-4694,23,-86,-38,35
55,2155,1,-426,-4693,23,-88,-39,33
56,2157,-2,-421,-4693,23,-88,-38,34
57,2158,-2,-424,-4694,23,-85,-38,35
58,2160,-2,-425,-4694,23,-86,-39,33
59,2156,-2,-430,-4690,23,-87,-39,34
60,2160,-2,-428,-4688,23,-87,-38,35
61,2158,4,-430,-4693,23,-88,-38,36
62,2159,5,-427,-4694,23,-88,-38,34
63,2159,1,-425,-4694,23,-88,-38,34
64,2164,0,-432,-4691,23,-88,-38,34
65,2165,0,-431,-4691,23,-87,-38,35
66,2157,0,-427,-4691,23,-88,-37,35
67,2159,0,-428,-4694,23,-86,-37,35
68,2154,-1,-428,-4695,23,-84,-37,35
69,2158,2,-430,-4690,23,-87,-38,36
70,2158,4,-430,-4698,23,-88,-38,34
71,2155,4,-428,-4698,23,-88,-38,36
72,2157,2,-428,-4695,23,-87,-38,36
73,2158,0,-430,-4699,23,-88,-39,36
74,2160,0,-429,-4699,23,-87,-38,34
75,2162,-2,-425,-4698,23,-87,-39,33
76,2161,-3,-428,-4691,23,-88,-36,34
77,2160,3,-428,-4696,23,-89,-37,36
78,2159,3,-430,-4695,23,-89,-38,34
79,2159,2,-432,-4691,23,-88,-38,34
80,2159,0,-424,-4691,23,-88,-38,33
81,2160,-1,-418,-4697,23,-88,-38,34
82,2159,-2,-426,-4696,23,-86,-39,34
83,2158,2,-431,-4696,23,-87,-39,35
84,2157,2,-432,-4697,23,-87,-39,35
85,2154,3,-433,-4697,23,-87,-38,36
86,2156,2,-432,-4696,23,-88,-38,36
87,2157,5,-436,-4695,23,-88,-36,35
88,2154,3,-434,-4697,23,-87,-38,36
89,2158,4,-425,-4700,23,-87,-39,36
90,2157,1,-426,-4698,23,-86,-39,36
91,2160,3,-425,-4693,23,-86,-37,36
92,2156,0,-429,-4694,23,-87,-38,35
93,2162,2,-431,-4694,23,-86,-38,35
94,2164,3,-430,-4696,23,-87,-38,34
95,2157,3,-420,-4694,23,-87,-39,34
96,2156,3,-423,-4692,23,-87,-39,33
97,2154,0,-431,-4687,23,-86,-38,34
98,2157,1,-430,-4693,23,-86,-39,35
99,2161,0,-429,-4696,23,-86,-40,34
100,2160,-1,-431,-4695,23,-90,-40,35
101,2159,-2,-428,-4690,23,-88,-40,32
102,2159,3,-435,-4688,23,-87,-38,34
103,2158,4,-432,-4689,23,-89,-39,35
104,2157,5,-427,-4691,23,-89,-38,36
105,2159,2,-430,-4695,23,-88,-39,35
106,2158,-1,-431,-4694,23,-87,-40,36
107,2158,2,-431,-4701,23,-87,-40,35
108,2158,-1,-429,-4702,23,-86,-40,36
109,2161,1,-430,-4697,23,-86,-37,35
110,2159,1,-426,-4700,23,-85,-38,35
111,2159,2,-427,-4692,23,-86,-39,34
112,2161,4,-430,-4696,23,-85,-38,34
113,2161,5,-428,-4690,23,-87,-38,34
114,2157,3,-428,-4688,23,-88,-40,33
115,2158,1,-433,-4691,23,-88,-38,35
116,2158,-1,-429,-4695,23,-88,-40,35
117,2156,0,-428,-4690,23,-88,-39,35
118,2158,3,-431,-4694,23,-85,-39,35
119,2158,2,-426,-4695,23,-88,-41,33
120,2155,4,-426,-4695,23,-88,-39,33
121,2159,2,-424,-4692,23,-87,-39,33
122,2158,2,-426,-4690,23,-87,-38,34
123,2159,-1,-425,-4690,23,-87,-37,36
124,2158,1,-430,-4693,23,-87,-37,36
125,2160,1,-433,-4690,23,-86,-37,34
126,2155,3,-432,-4689,23,-86,-36,34
127,2154,0,-431,-4690,23,-86,-36,34
128,2158,2,-436,-4686,23,-86,-38,34
129,2157,2,-427,-4688,23,-87,-38,34
130,2154,-2,-427,-4692,23,-88,-37,33
131,2154,3,-416,-4691,23,-88,-38,35
132,2153,5,-420,-4691,23,-89,-37,34
133,2155,1,-427,-4695,23,-87,-36,35
134,2158,0,-429,-4695,23,-86,-37,34
135,2161,2,-433,-4695,23,-86,-39,35
136,2160,2,-427,-4701,23,-87,-39,36
137,2158,-1,-425,-4696,23,-86,-38,36
138,2158,1,-432,-4695,23,-85,-38,35
139,2160,3,-430,-4690,23,-85,-38,35
140,2159,2,-428,-4688,23,-85,-37,35
141,2159,5,-428,-4686,23,-86,-39,33
142,2159,2,-429,-4688,23,-86,-37,35
143,2158,2,-429,-4695,23,-86,-39,35
144,2156,3,-431,-4695,23,-88,-39,34
145,2161,3,-429,-4694,23,-88,-37,34
146,2157,-1,-431,-4699,23,-88,-37,35
147,2159,1,-434,-4694,23,-87,-38,34
148,2159,4,-430,-4696,23,-88,-37,34
149,2159,0,-427,-4689,23,-86,-39,34
150,2158,1,-430,-4689,23,-88,-39,34
151,2159,6,-435,-4690,23,-88,-39,34
152,2159,8,-428,-4695,23,-87,-38,35
153,2161,6,-427,-4698,23,-88,-38,36
154,2159,2,-428,-4691,23,-88,-36,34
155,2159,-2,-430,-4695,23,-87,-38,34
156,2163,0,-432,-4694,23,-87,-39,35
157,2163,1,-433,-4697,23,-88,-39,35
158,2165,1,-429,-4704,23,-87,-39,34
159,2160,5,-429,-4702,23,-87,-39,34
160,2156,2,-428,-4696,23,-85,-39,34
161,2160,5,-429,-4695,23,-86,-37,35
162,2163,4,-427,-4695,23,-87,-38,35
163,2159,1,-430,-4702,23,-86,-39,37
164,2155,3,-431,-4695,23,-87,-40,36
165,2157,2,-433,-4694,23,-87,-38,35
166,2157,0,-432,-4694,23,-86,-38,34
167,2158,-2,-437,-4692,23,-86,-37,33
168,2156,1,-430,-4690,23,-86,-39,34
169,2154,1,-424,-4693,23,-86,-37,34
170,2158,1,-423,-4693,23,-87,-37,34
171,2159,-2,-420,-4694,23,-85,-36,36
172,2155,-2,-421,-4691,23,-87,-36,35
173,2157,0,-423,-4697,23,-86,-35,33
174,2157,1,-424,-4691,23,-87,-37,34
175,2158,2,-423,-4689,23,-87,-37,37
176,2157,1,-422,-4697,23,-87,-36,34
177,2158,2,-428,-4695,23,-86,-38,36
178,2163,0,-432,-4699,23,-86,-37,36
179,2161,3,-424,-4692,23,-85,-38,35
180,2162,-4,-431,-4687,23,-87,-38,35
181,2163,-2,-429,-4690,23,-86,-37,34
182,2162,-3,-430,-4692,23,-87,-37,35
183,2159,-4,-426,-4692,23,-86,-35,36
184,2160,0,-429,-4690,23,-85,-37,34
185,2159,0,-432,-4696,23,-85,-39,35
186,2161,1,-426,-4697,23,-87,-39,34
187,2160,-1,-430,-4698,23,-87,-39,34
188,2161,2,-434,-4694,23,-87,-39,34
189,2159,1,-434,-4691,23,-86,-39,34
190,2158,-2,-427,-4694,23,-87,-39,35
191,2158,3,-431,-4692,23,-88,-38,35
192,2156,2,-427,-4691,23,-88,-38,34
193,2160,2,-428,-4696,23,-88,-39,33
194,2160,5,-431,-4694,23,-88,-40,34
195,2161,0,-437,-4689,23,-87,-40,34
196,2157,-1,-428,-4689,23,-87,-38,34
197,2156,3,-433,-4693,23,-87,-38,35
198,2164,1,-428,-4693,23,-87,-38,35
199,2162,-1,-430,-4698,23,-86,-39,34
200,2159,-1,-428,-4696,23,-85,-39,33
201,2161,1,-426,-4695,23,-85,-39,33
202,2160,-1,-427,-4692,23,-86,-38,34
203,2162,-3,-426,-4688,23,-86,-36,35
204,2159,-2,-421,-4688,23,-88,-39,33
205,2163,0,-423,-4688,23,-88,-38,35
206,2161,0,-432,-4686,23,-87,-37,34
207,2161,2,-428,-4691,23,-87,-36,34
208,2158,5,-429,-4686,23,-86,-37,36
209,2158,5,-427,-4692,23,-86,-36,36
210,2159,0,-426,-4693,23,-86,-36,35
211,2159,-2,-426,-4691,23,-86,-38,35
212,2158,-2,-426,-4688,23,-86,-38,35
213,2157,-1,-425,-4688,23,-86,-37,35
214,2159,1,-426,-4689,23,-87,-39,35
215,2162,3,-430,-4688,23,-84,-38,36
216,2158,1,-434,-4694,23,-84,-38,38
217,2158,1,-424,-4690,23,-86,-38,37
218,2155,6,-428,-4688,23,-87,-37,35
219,2155,1,-431,-4694,23,-87,-38,36
220,2158,3,-429,-4687,23,-86,-37,36
221,2156,5,-432,-4689,23,-86,-37,35
222,2159,2,-430,-4691,23,-89,-36,34
223,2159,-2,-426,-4685,23,-87,-38,33
224,2160,0,-423,-4689,23,-86,-40,34
225,2161,1,-427,-4686,23,-86,-40,35
226,2157,1,-429,-4689,23,-88,-38,36
227,2157,3,-434,-4689,23,-88,-38,34
228,2158,1,-433,-4691,23,-87,-38,36
229,2158,-1,-425,-4689,23,-87,-37,36
230,2158,-1,-419,-4687,23,-87,-38,35
231,2161,2,-425,-4691,23,-87,-39,35
232,2163,4,-425,-4692,23,-86,-40,36
233,2157,5,-428,-4690,23,-87,-40,34
234,2161,1,-426,-4691,23,-87,-38,34
235,2156,2,-432,-4686,23,-86,-38,34
236,2158,2,-428,-4688,23,-87,-38,34
237,2158,2,-427,-4685,23,-87,-36,35
238,2158,4,-427,-4690,23,-87,-38,33
239,2157,4,-429,-4687,23,-86,-38,34
240,2158,2,-424,-4688,23,-85,-38,33
241,2157,0,-431,-4687,23,-87,-38,34
242,2157,0,-433,-4690,23,-88,-38,34
243,2159,1,-428,-4693,23,-86,-37,34
244,2160,0,-433,-4691,23,-87,-37,34
245,2159,2,-426,-4690,23,-87,-39,34
246,2162,8,-430,-4693,23,-87,-36,34
247,2159,1,-430,-4698,23,-88,-37,35
248,2161,1,-431,-4695,23,-87,-37,34
249,2165,2,-430,-4697,23,-88,-35,36
250,2162,2,-434,-4692,23,-88,-37,34
251,2161,3,-435,-4699,23,-89,-38,37
252,2162,2,-437,-4695,23,-87,-39,35
253,2159,0,-430,-4689,23,-88,-37,34
254,2160,-1,-430,-4689,23,-87,-36,35
255,2156,-1,-426,-4689,23,-88,-39,35
256,2159,-3,-430,-4684,23,-87,-39,36
257,2161,-2,-434,-4688,23,-85,-39,37
258,2159,3,-434,-4694,23,-86,-37,35
259,2158,0,-431,-4698,23,-87,-37,35
260,2162,0,-424,-4692,23,-88,-38,35
261,2159,1,-428,-4688,23,-88,-37,36
262,2159,5,-431,-4691,23,-86,-37,35
263,2155,0,-431,-4688,23,-87,-38,35
264,2154,1,-430,-4693,23,-87,-37,35
265,2159,4,-429,-4694,23,-87,-38,35
266,2159,0,-425,-4697,23,-87,-40,35
267,2156,4,-426,-4691,23,-87,-40,37
268,2157,1,-430,-4691,23,-87,-38,36
269,2159,4,-425,-4691,23,-86,-38,35
270,2160,3,-425,-4691,23,-86,-39,35
271,2161,4,-423,-4693,23,-87,-39,35
272,2158,2,-425,-4689,23,-87,-39,35
273,2157,4,-424,-4692,23,-87,-39,35
274,2156,3,-424,-4699,23,-87,-39,35
275,2161,1,-425,-4692,23,-86,-38,36
276,2162,3,-427,-4697,23,-87,-37,35
277,2161,0,-422,-4690,23,-88,-38,34
278,2160,0,-428,-4687,23,-87,-40,34
279,2156,1,-426,-4686,23,-87,-37,33
280,2159,-1,-427,-4695,23,-87,-40,35
281,2157,-1,-426,-4694,23,-87,-40,34
282,2156,-2,-428,-4693,23,-87,-39,34
283,2155,-4,-433,-4688,23,-87,-39,33
284,2156,-2,-429,-4686,23,-87,-37,34
285,2158,-2,-427,-4686,23,-87,-38,34
286,2159,0,-430,-4689,23,-87,-36,36
287,2159,1,-428,-4694,23,-84,-36,36
288,2163,4,-426,-4694,23,-86,-39,35
289,2158,0,-426,-4687,23,-86,-37,35
290,2157,-1,-424,-4688,23,-87,-39,33
291,2158,2,-430,-4689,23,-88,-39,34
292,2161,3,-434,-4689,23,-87,-38,33
293,2161,2,-427,-4690,23,-88,-39,35
294,2162,2,-433,-4688,23,-88,-39,36
295,2158,2,-427,-4686,23,-87,-40,36
296,2157,3,-435,-4689,23,-86,-36,34
297,2154,0,-434,-4686,23,-86,-35,34
298,2156,-1,-429,-4686,23,-87,-36,33
299,2159,4,-424,-4687,23,-87,-37,34
300,2158,1,-421,-4685,23,-86,-38,35
301,2155,3,-423,-4691,23,-87,-39,34
302,2156,0,-428,-4693,23,-88,-38,35
303,2162,2,-431,-4692,23,-90,-37,34
304,2159,3,-431,-4688,23,-87,-38,34
305,2158,-1,-429,-4692,23,-89,-37,34
306,2157,1,-428,-4689,23,-89,-37,34
307,2156,0,-425,-4688,23,-87,-35,36
308,2158,0,-428,-4692,23,-87,-37,35
309,2160,0,-429,-4696,23,-85,-36,34
310,2159,1,-427,-4695,23,-86,-36,34
311,2160,3,-430,-4698,23,-86,-39,34
312,2157,2,-432,-4693,23,-85,-38,32
313,2159,2,-430,-4692,23,-87,-36,34
314,2160,-1,-434,-4691,23,-86,-37,33
315,2161,0,-430,-4691,23,-87,-37,34
316,2162,-1,-430,-4693,23,-86,-38,34
317,2161,-2,-426,-4689,23,-86,-38,34
318,2160,-3,-434,-4691,23,-88,-40,35
319,2163,0,-430,-4688,23,-88,-39,34
320,2159,1,-424,-4690,23,-87,-37,34
321,2163,2,-420,-4687,23,-88,-38,34
322,2159,2,-422,-4684,23,-88,-37,34
323,2155,4,-427,-4682,23,-87,-39,33
324,2157,3,-430,-4686,23,-88,-37,34
325,2160,0,-432,-4692,23,-85,-35,35
326,2157,3,-431,-4685,23,-87,-38,35
327,2158,4,-430,-4687,23,-87,-39,36
328,2159,5,-435,-4687,23,-86,-40,35
329,2160,2,-434,-4689,23,-88,-39,35
330,2161,7,-433,-4687,23,-87,-38,36
331,2163,6,-431,-4688,23,-85,-34,36
332,2161,2,-427,-4684,23,-85,-36,36
333,2158,1,-432,-4689,23,-86,-35,38
334,2157,4,-436,-4688,23,-86,-35,38
335,2158,3,-434,-4690,23,-87,-32,36
336,2157,2,-433,-4692,23,-86,-32,39
337,2155,3,-430,-4690,23,-85,-32,40
338,2159,2,-431,-4686,23,-87,-32,39
339,2162,0,-428,-4688,23,-88,-32,40
340,2160,3,-430,-4686,23,-88,-32,40
341,2158,0,-426,-4690,23,-88,-30,39
342,2160,1,-424,-4693,23,-87,-30,40
343,2162,0,-418,-4690,23,-87,-30,38
344,2162,-2,-425,-4690,23,-85,-30,37
345,2156,-4,-421,-4690,23,-87,-31,39
346,2156,-6,-421,-4686,23,-87,-32,39
347,2160,-5,-419,-4691,23,-86,-32,38
348,2159,-5,-426,-4689,23,-87,-32,38
349,2157,-9,-420,-4690,23,-87,-35,36
350,2159,-7,-416,-4692,23,-89,-36,36
351,2162,-5,-414,-4693,23,-87,-37,36
352,2161,-6,-414,-4687,23,-86,-35,35
353,2162,-2,-420,-4694,23,-86,-40,36
354,2161,-2,-417,-4698,23,-86,-39,34
355,2156,-4,-423,-4691,23,-84,-39,35
356,2157,-4,-426,-4690,23,-87,-39,34
357,2156,-3,-428,-4692,23,-87,-38,34
358,2159,-3,-430,-4693,23,-87,-38,34
359,2157,-1,-428,-4695,23,-86,-41,33
360,2160,-2,-429,-4692,23,-87,-40,31
361,2162,-2,-427,-4687,23,-86,-41,33
362,2160,-4,-428,-4681,23,-85,-40,34
363,2160,-1,-427,-4689,23,-86,-40,33
364,2160,-1,-425,-4692,23,-85,-40,32
365,2158,-1,-430,-4692,23,-85,-39,31
366,2158,5,-439,-4690,23,-86,-39,33
367,2160,3,-435,-4691,23,-88,-40,34
368,2159,5,-427,-4697,23,-88,-40,34
369,2154,5,-425,-4692,23,-87,-38,34
370,2157,5,-426,-4688,23,-89,-37,34
371,2160,2,-426,-4688,23,-87,-39,33
372,2159,3,-431,-4688,23,-87,-39,33
373,2159,3,-422,-4684,23,-87,-38,33
374,2159,6,-431,-4687,23,-87,-38,34
375,2159,1,-429,-4688,23,-87,-38,34
376,2161,0,-438,-4687,23,-86,-38,35
377,2160,0,-434,-4686,23,-87,-37,36
378,2159,2,-437,-4688,23,-88,-35,36
379,2159,3,-431,-4691,23,-88,-34,36
380,2162,-2,-426,-4690,23,-87,-36,35
381,2161,-3,-422,-4687,23,-88,-38,35
382,2162,-1,-427,-4689,23,-88,-37,37
383,2165,-3,-425,-4690,23,-88,-38,36
384,2159,3,-426,-4687,23,-86,-39,35
385,2155,0,-428,-4691,23,-86,-38,36
386,2155,1,-429,-4693,23,-84,-37,35
387,2153,3,-434,-4696,23,-85,-36,35
388,2157,3,-435,-4686,23,-87,-35,36
389,2161,2,-427,-4686,23,-87,-34,36
390,2160,3,-430,-4689,23,-87,-36,36
391,2161,1,-430,-4688,23,-86,-34,37
392,2159,1,-428,-4689,23,-86,-35,36
393,2156,0,-423,-4690,23,-87,-36,37
394,2160,3,-422,-4684,23,-87,-35,38
395,2157,-1,-423,-4689,23,-88,-36,38
396,2160,3,-424,-4692,23,-87,-36,37
397,2165,1,-423,-4693,23,-87,-37,36
398,2162,1,-430,-4692,23,-86,-37,37
399,2159,2,-427,-4689,23,-87,-37,35
400,2159,-1,-427,-4693,23,-87,-37,35
401,2161,-2,-428,-4693,23,-88,-40,34
402,2162,-2,-427,-4690,23,-89,-38,34
403,2158,-5,-427,-4688,23,-88,-38,33
404,2159,-1,-425,-4690,23,-87,-39,32
405,2162,-3,-426,-4689,23,-87,-39,32
406,2162,-2,-425,-4690,23,-86,-41,32
407,2159,-2,-426,-4692,23,-87,-42,32
408,2160,-2,-428,-4691,23,-87,-43,32
409,2157,-3,-424,-4686,23,-85,-43,33
410,2159,-4,-423,-4687,23,-87,-42,31
411,2161,-2,-422,-4691,23,-87,-42,30
412,2159,-3,-418,-4693,23,-87,-44,29
413,2159,-4,-427,-4695,23,-86,-45,30
414,2157,0,-424,-4689,23,-86,-46,32
415,2160,-1,-428,-4687,23,-86,-45,31
416,2159,1,-428,-4687,23,-84,-44,31
417,2159,1,-429,-4687,23,-86,-44,28
418,2155,6,-430,-4688,23,-86,-45,31
419,2155,6,-429,-4683,23,-86,-44,31
420,2158,5,-429,-4689,23,-85,-43,32
421,2159,6,-435,-4689,23,-87,-41,33
422,2155,9,-435,-4690,23,-89,-40,32
423,2157,8,-448,-4690,23,-88,-38,33
424,2156,5,-439,-4694,23,-87,-37,33
425,2159,7,-438,-4692,23,-87,-37,34
426,2159,4,-440,-4688,23,-86,-37,36
427,2157,5,-433,-4692,23,-87,-36,35
428,2158,1,-432,-4689,23,-87,-36,37
429,2156,1,-431,-4683,23,-88,-35,37
430,2160,-1,-428,-4688,23,-88,-34,36
431,2157,3,-427,-4689,23,-86,-33,37
432,2158,0,-430,-4695,23,-85,-35,39
433,2160,2,-429,-4693,23,-87,-34,38
434,2156,3,-428,-4689,23,-87,-32,38
435,2156,1,-433,-4689,23,-87,-31,38
436,2156,3,-427,-4694,23,-88,-30,38
437,2160,-2,-428,-4695,23,-89,-33,36
438,2160,1,-425,-4689,23,-87,-31,37
439,2158,1,-419,-4689,23,-88,-34,38
440,2158,0,-423,-4688,23,-87,-34,37
441,2159,-3,-426,-4695,23,-86,-35,37
442,2161,-3,-426,-4690,23,-87,-35,37
443,2159,0,-429,-4689,23,-87,-34,36
444,2158,-1,-431,-4686,23,-87,-35,37
445,2157,1,-427,-4686,23,-89,-36,38
446,2156,1,-427,-4688,23,-87,-37,38
447,2156,-1,-424,-4692,23,-89,-35,36
448,2161,-5,-429,-4689,23,-87,-34,35
449,2164,-4,-423,-4691,23,-86,-36,34
450,2163,-2,-424,-4686,23,-85,-37,34
451,2157,-3,-424,-4688,23,-85,-41,33
452,2155,-1,-427,-4689,23,-86,-40,33
453,2159,3,-436,-4695,23,-87,-39,32
454,2161,3,-427,-4691,23,-86,-38,33
455,2161,3,-424,-4684,23,-87,-38,32
456,2157,1,-422,-4689,23,-87,-35,34
457,2162,2,-422,-4690,23,-87,-37,32
458,2160,2,-425,-4687,23,-87,-40,34
459,2160,1,-419,-4688,23,-89,-39,33
460,2159,1,-424,-4691,23,-88,-41,34
461,2160,0,-429,-4689,23,-89,-41,33
462,2156,-3,-424,-4689,23,-88,-40,34
463,2161,-2,-425,-4685,23,-89,-40,34
464,2161,-1,-427,-4686,23,-86,-42,33
465,2157,-3,-427,-4686,23,-86,-41,33
466,2162,-2,-430,-4692,23,-86,-38,31
467,2163,0,-431,-4689,23,-86,-42,31
468,2160,3,-430,-4687,23,-89,-42,32
469,2162,4,-426,-4690,23,-88,-40,32
470,2160,-2,-424,-4692,23,-88,-39,33
471,2161,2,-422,-4691,23,-86,-38,34
472,2160,5,-428,-4691,23,-86,-38,35
473,2153,4,-427,-4691,23,-84,-40,32
474,2160,3,-437,-4689,23,-85,-40,33
475,2160,5,-433,-4689,23,-85,-39,33
476,2159,3,-429,-4690,23,-87,-40,33
477,2161,4,-423,-4688,23,-88,-40,33
478,2158,3,-425,-4687,23,-87,-38,35
479,2156,2,-433,-4690,23,-86,-37,35
480,2157,0,-435,-4689,23,-87,-38,34
481,2159,-5,-436,-4692,23,-87,-35,35
482,2158,-1,-432,-4687,23,-88,-36,36
483,2155,4,-425,-4691,23,-85,-37,36
484,2156,3,-430,-4686,23,-86,-37,36
485,2156,1,-433,-4684,23,-88,-36,35
486,2157,-2,-429,-4688,23,-86,-37,35
487,2161,-2,-430,-4689,23,-86,-35,35
488,2155,-1,-425,-4689,23,-88,-37,36
489,2157,1,-430,-4694,23,-87,-39,36
490,2157,0,-425,-4694,23,-88,-38,36
491,2160,2,-425,-4689,23,-88,-36,36
492,2160,2,-428,-4685,23,-87,-37,37
493,2160,1,-426,-4686,23,-87,-37,36
494,2161,-1,-425,-4683,23,-87,-38,36
495,2160,2,-425,-4684,23,-87,-39,35
496,2161,0,-429,-4684,23,-86,-37,35
497,2158,3,-428,-4687,23,-86,-40,35
498,2159,3,-426,-4684,23,-86,-40,35
499,2159,1,-428,-4683,23,-86,-39,35
500,2160,-3,-425,-4686,23,-86,-41,36
501,2159,-1,-425,-4687,23,-87,-40,34
502,2161,-1,-436,-4691,23,-88,-40,34
503,2163,2,-437,-4691,23,-88,-40,34
504,2161,2,-429,-4689,23,-86,-42,34
505,2160,4,-434,-4688,23,-87,-41,34
506,2156,1,-435,-4686,23,-86,-40,33
507,2160,2,-434,-4685,23,-85,-39,32
508,2158,5,-427,-4683,23,-87,-39,34
509,2159,3,-433,-4686,23,-87,-38,33
510,2158,3,-428,-4684,23,-85,-39,34
511,2157,1,-429,-4688,23,-86,-40,36
512,2160,4,-432,-4694,23,-87,-39,35
513,2165,-1,-429,-4688,23,-85,-37,33
514,2159,0,-429,-4693,23,-88,-38,33
515,2158,3,-431,-4690,23,-89,-38,34
516,2156,2,-433,-4689,23,-87,-38,35
517,2159,1,-432,-4682,23,-86,-38,35
518,2162,4,-427,-4689,23,-85,-39,35
519,2160,3,-427,-4688,23,-86,-38,34
520,2160,3,-435,-4684,23,-87,-37,36
521,2156,5,-434,-4689,23,-86,-36,34
522,2160,1,-431,-4684,23,-84,-38,34
523,2158,2,-428,-4686,23,-86,-36,34
524,2159,3,-435,-4686,23,-85,-36,35
525,2158,6,-428,-4690,23,-86,-35,37
526,2156,-1,-426,-4685,23,-86,-35,36
527,2160,-2,-429,-4688,23,-87,-35,35
528,2162,-1,-427,-4690,23,-86,-35,37
529,2157,5,-427,-4694,23,-86,-35,36
530,2158,2,-425,-4694,23,-88,-36,35
531,2158,1,-424,-4690,23,-86,-35,35
532,2157,2,-426,-4693,23,-86,-35,33
533,2158,5,-425,-4690,23,-88,-36,35
534,2157,1,-428,-4685,23,-87,-35,34
535,2158,1,-434,-4689,23,-88,-35,35
536,2156,1,-436,-4689,23,-87,-37,36
537,2155,-2,-428,-4687,23,-87,-36,36
538,2161,0,-423,-4689,23,-88,-36,36
539,2161,-1,-427,-4687,23,-88,-36,35
540,2162,-4,-424,-4685,23,-87,-37,35
541,2159,-3,-427,-4685,23,-85,-38,35
542,2159,-1,-426,-4682,23,-86,-37,36
543,2157,0,-428,-4682,23,-87,-38,36
544,2163,-3,-423,-4680,23,-88,-38,35
545,2162,-3,-423,-4684,23,-88,-40,34
546,2161,-1,-424,-4685,23,-88,-40,34
547,2158,0,-430,-4682,23,-88,-41,33
548,2160,0,-427,-4683,23,-88,-40,33
549,2159,0,-426,-4689,23,-87,-41,33
550,2159,-2,-425,-4687,23,-86,-40,33
551,2158,-4,-427,-4684,23,-86,-40,32
552,2159,2,-424,-4687,23,-88,-39,32
553,2160,2,-420,-4685,23,-88,-40,32
554,2162,5,-425,-4689,23,-87,-41,33
555,2157,3,-424,-4686,23,-88,-38,32
556,2162,5,-426,-4684,23,-88,-39,33
557,2158,4,-430,-4680,23,-87,-41,34
558,2160,7,-426,-4679,23,-87,-40,33
559,2160,2,-425,-4685,23,-86,-39,32
560,2156,0,-427,-4681,23,-88,-41,34
561,2158,1,-431,-4683,23,-87,-39,33
562,2155,0,-421,-4686,23,-86,-38,33
563,2156,5,-431,-4690,23,-85,-39,35
564,2159,2,-431,-4688,23,-86,-39,34
565,2161,1,-428,-4691,23,-86,-39,34
566,2159,1,-421,-4687,23,-87,-37,34
567,2158,3,-428,-4689,23,-86,-40,34
568,2160,3,-428,-4683,23,-86,-37,35
569,2159,5,-430,-4690,23,-85,-36,37
570,2158,3,-426,-4688,23,-86,-38,35
571,2160,3,-431,-4682,23,-86,-36,36
572,2159,4,-432,-4682,23,-85,-36,36
573,2157,3,-433,-4688,23,-86,-35,35
574,2162,3,-428,-4687,23,-86,-37,35
575,2160,3,-424,-4690,23,-86,-35,37
576,2160,2,-428,-4686,23,-87,-35,37
577,2157,2,-424,-4684,23,-87,-34,35
578,2161,-2,-423,-4688,23,-86,-36,37
579,2155,-3,-428,-4688,23,-87,-36,35
580,2155,-3,-421,-4687,23,-87,-37,35
581,2158,-5,-423,-4688,23,-85,-37,35
582,2157,-2,-425,-4693,23,-86,-37,36
583,2157,2,-426,-4692,23,-87,-35,34
584,2159,5,-420,-4690,23,-89,-36,34
585,2157,4,-426,-4687,23,-87,-37,35
586,2158,-1,-429,-4688,23,-87,-37,35
587,2157,5,-426,-4690,23,-88,-37,35
588,2157,2,-426,-4690,23,-88,-38,34
589,2159,2,-425,-4687,23,-87,-39,35
590,2160,-3,-426,-4689,23,-88,-38,34
591,2161,-4,-422,-4690,23,-88,-39,34
592,2156,2,-428,-4687,23,-86,-39,34
593,2158,-1,-432,-4686,23,-87,-38,36
594,2161,-1,-426,-4689,23,-87,-39,35
595,2158,1,-427,-4689,23,-87,-38,35
596,2159,2,-432,-4689,23,-87,-39,35
597,2162,-2,-429,-4689,23,-87,-40,35
598,2157,-6,-429,-4690,23,-88,-40,36
599,2158,1,-429,-4688,23,-85,-41,35
600,2156,3,-429,-4694,23,-86,-38,33
601,2161,1,-424,-4692,23,-87,-38,32
602,2159,1,-424,-4690,23,-88,-38,33
603,2156,3,-427,-4685,23,-87,-38,32
604,2156,3,-429,-4688,23,-88,-39,34
605,2158,5,-429,-4688,23,-87,-39,35
606,2160,4,-426,-4688,23,-86,-40,35
607,2161,4,-428,-4689,23,-88,-40,34
608,2155,1,-425,-4695,23,-87,-39,33
609,2157,2,-436,-4692,23,-85,-39,33
610,2156,-1,-436,-4691,23,-84,-38,34
611,2160,-2,-437,-4687,23,-86,-38,33
612,2158,-2,-431,-4686,23,-89,-35,33
613,2157,-2,-433,-4690,23,-87,-39,35
614,2160,-1,-431,-4687,23,-87,-39,35
615,2157,1,-433,-4687,23,-87,-37,34
616,2158,2,-433,-4688,23,-86,-37,34
617,2157,4,-426,-4688,23,-86,-37,33
618,2160,4,-427,-4687,23,-88,-37,35
619,2160,4,-431,-4689,23,-88,-38,35
620,2161,3,-425,-4690,23,-89,-36,36
621,2161,2,-427,-4686,23,-88,-37,36
622,2160,1,-426,-4686,23,-88,-37,37
623,2163,0,-420,-4688,23,-88,-35,37
624,2159,0,-430,-4690,23,-88,-35,35
625,2160,5,-424,-4692,23,-88,-37,37
626,2156,1,-433,-4689,23,-88,-38,37
627,2160,4,-424,-4691,23,-87,-38,36
628,2159,2,-426,-4688,23,-87,-37,36
629,2159,0,-424,-4690,23,-87,-37,35
630,2160,-1,-421,-4689,23,-87,-36,36
631,2160,-2,-420,-4685,23,-87,-36,37
632,2160,0,-426,-4684,23,-85,-38,37
633,2162,1,-418,-4689,23,-88,-36,36
634,2161,-4,-421,-4682,23,-88,-37,34
635,2160,2,-424,-4684,23,-86,-37,37
636,2157,2,-427,-4686,23,-88,-38,35
637,2157,0,-423,-4688,23,-89,-37,36
638,2160,3,-424,-4690,23,-88,-39,34
639,2159,3,-426,-4687,23,-88,-40,34
640,2160,1,-426,-4688,23,-87,-39,34
641,2156,0,-426,-4684,23,-88,-39,33
642,2156,1,-427,-4689,23,-87,-39,33
643,2162,3,-424,-4688,23,-87,-40,32
644,2157,1,-424,-4683,23,-86,-40,33
645,2161,1,-424,-4684,23,-87,-40,35
646,2156,-1,-426,-4685,23,-87,-40,32
647,2159,0,-426,-4688,23,-87,-40,33
648,2158,0,-432,-4683,23,-87,-39,33
649,2160,-1,-433,-4680,23,-88,-40,33
650,2161,3,-428,-4682,23,-87,-39,32
651,2156,2,-429,-4684,23,-87,-39,32
652,2160,0,-437,-4687,23,-86,-40,34
653,2158,3,-434,-4684,23,-87,-38,35
654,2158,5,-434,-4686,23,-86,-39,34
655,2157,3,-431,-4682,23,-86,-39,33
656,2156,1,-430,-4687,23,-87,-38,34
657,2156,0,-428,-4686,23,-88,-39,33
658,2157,0,-431,-4685,23,-87,-39,34
659,2160,1,-427,-4683,23,-87,-39,34
660,2160,-2,-424,-4683,23,-87,-39,34
661,2159,1,-429,-4687,23,-87,-38,34
662,2167,1,-426,-4690,23,-87,-39,36
663,2158,0,-427,-4686,23,-87,-37,36
664,2158,0,-424,-4693,23,-87,-36,37
665,2157,2,-429,-4693,23,-86,-37,34
666,2156,3,-424,-4687,23,-87,-37,34
667,2160,4,-425,-4689,23,-88,-37,36
668,2160,0,-420,-4684,23,-86,-38,36
669,2161,1,-428,-4687,23,-87,-38,36
670,2159,1,-424,-4685,23,-86,-39,35
671,2161,3,-423,-4684,23,-86,-38,36
672,2159,4,-422,-4685,23,-88,-36,35
673,2159,0,-423,-4688,23,-86,-36,35
674,2153,3,-424,-4690,23,-86,-36,35
675,2159,0,-424,-4687,23,-85,-38,34
676,2158,4,-428,-4690,23,-87,-38,34
677,2157,3,-426,-4692,23,-87,-38,34
678,2157,0,-424,-4690,23,-86,-37,33
679,2160,-2,-423,-4683,23,-86,-36,34
680,2161,0,-424,-4691,23,-86,-36,34
681,2158,-3,-426,-4686,23,-86,-38,33
682,2156,-2,-422,-4682,23,-86,-39,33
683,2159,-2,-425,-4685,23,-85,-39,34
684,2158,1,-426,-4688,23,-87,-38,35
685,2158,-1,-429,-4691,23,-88,-38,36
686,2157,0,-432,-4688,23,-86,-40,35
687,2162,-1,-425,-4681,23,-86,-39,34
688,2162,-1,-424,-4685,23,-89,-38,35
689,2157,-3,-418,-4688,23,-86,-39,33
690,2158,-2,-428,-4687,23,-86,-39,33
691,2155,-6,-423,-4690,23,-87,-39,34
692,2161,-5,-431,-4689,23,-87,-38,33
693,2158,-1,-429,-4691,23,-88,-39,34
694,2155,3,-427,-4690,23,-85,-38,33
695,2157,4,-426,-4691,23,-85,-37,34
696,2159,4,-427,-4691,23,-86,-39,35
697,2158,2,-430,-4688,23,-87,-38,34
698,2159,4,-432,-4690,23,-88,-39,34
699,2161,1,-430,-4691,23,-88,-40,33
700,2159,-1,-427,-4690,23,-86,-38,35
701,2154,-4,-430,-4686,23,-89,-39,34
702,2156,-1,-431,-4690,23,-88,-39,34
703,2158,0,-422,-4689,23,-89,-38,35
704,2158,1,-427,-4692,23,-88,-37,35
705,2154,-1,-427,-4690,23,-87,-37,35
706,2159,-1,-430,-4695,23,-89,-39,34
707,2158,1,-428,-4693,23,-87,-37,35
708,2159,2,-431,-4691,23,-85,-37,35
709,2158,-1,-434,-4690,23,-86,-36,36
710,2156,4,-434,-4687,23,-87,-37,37
711,2156,-1,-434,-4690,23,-87,-38,36
712,2155,-8,-432,-4687,23,-86,-36,36
713,2164,-3,-429,-4692,23,-86,-39,35
714,2156,-2,-428,-4687,23,-85,-37,35
715,2159,3,-422,-4689,23,-86,-37,35
716,2159,3,-423,-4687,23,-86,-40,34
717,2155,1,-424,-4690,23,-87,-38,36
718,2155,4,-425,-4692,23,-87,-37,35
719,2158,3,-425,-4691,23,-87,-37,36
720,2158,1,-431,-4697,23,-87,-37,36
721,2162,0,-422,-4690,23,-87,-38,33
722,2156,-2,-428,-4694,23,-86,-40,36
723,2161,0,-432,-4689,23,-87,-39,34
724,2157,0,-427,-4691,23,-86,-41,33
725,2160,-1,-426,-4686,23,-86,-38,33
726,2155,-1,-429,-4689,23,-86,-39,32
727,2155,-4,-428,-4691,23,-86,-39,34
728,2159,-2,-431,-4693,23,-87,-41,34
729,2160,-1,-430,-4696,23,-87,-39,35
730,2159,0,-433,-4689,23,-88,-40,34
731,2160,0,-428,-4687,23,-88,-40,35
732,2158,2,-427,-4691,23,-88,-39,35
733,2157,-3,-428,-4693,23,-87,-37,32
734,2161,-1,-428,-4688,23,-87,-37,34
735,2160,-2,-434,-4687,23,-88,-38,32
736,2157,0,-432,-4693,23,-90,-39,32
737,2160,1,-429,-4691,23,-88,-38,34
738,2159,1,-426,-4689,23,-88,-38,34
739,2157,1,-424,-4691,23,-87,-39,34
740,2161,3,-429,-4690,23,-88,-39,35
741,2159,4,-429,-4692,23,-89,-37,35
742,2158,3,-423,-4690,23,-89,-39,34
743,2157,1,-426,-4687,23,-89,-37,36
744,2159,2,-428,-4689,23,-87,-38,34
745,2158,2,-433,-4693,23,-87,-41,34
746,2160,3,-430,-4690,23,-88,-37,35
747,2160,-3,-427,-4690,23,-89,-37,34
748,2160,-3,-424,-4690,23,-86,-38,33
749,2159,-4,-424,-4686,23,-87,-39,35
750,2160,-1,-423,-4688,23,-86,-39,36
751,2160,0,-429,-4685,23,-87,-39,33
752,2158,1,-430,-4686,23,-88,-38,34
753,2160,-2,-430,-4691,23,-87,-38,35
754,2160,-2,-430,-4688,23,-87,-38,35
755,2158,5,-432,-4687,23,-86,-38,35
756,2160,5,-429,-4686,23,-87,-36,35
757,2160,-1,-430,-4686,23,-87,-35,36
758,2161,-1,-426,-4687,23,-87,-36,36
759,2161,1,-426,-4680,23,-89,-36,37
760,2160,3,-425,-4689,23,-88,-36,35
761,2159,0,-431,-4686,23,-87,-35,35
762,2155,-1,-427,-4684,23,-86,-36,36
763,2158,-3,-427,-4686,23,-86,-37,34
764,2162,-3,-427,-4683,23,-87,-36,35
765,2160,-1,-434,-4689,23,-89,-38,34
766,2155,-3,-431,-4691,23,-89,-36,34
767,2161,-5,-430,-4694,23,-89,-37,34
768,2161,-1,-424,-4690,23,-87,-40,35
769,2159,0,-429,-4687,23,-87,-39,37
770,2161,4,-422,-4684,23,-86,-38,34
771,2164,-1,-422,-4692,23,-86,-38,33
772,2162,-1,-422,-4694,23,-87,-38,33
773,2160,1,-424,-4688,23,-86,-38,35
774,2158,2,-424,-4688,23,-87,-37,35
775,2160,4,-421,-4686,23,-87,-38,34
776,2157,-4,-423,-4686,23,-88,-39,34
777,2158,0,-425,-4690,23,-87,-41,34
778,2158,-1,-426,-4691,23,-87,-42,35
779,2159,-2,-426,-4691,23,-87,-43,34
780,2156,0,-432,-4687,23,-89,-40,33
781,2161,1,-432,-4687,23,-86,-40,34
782,2159,-1,-431,-4684,23,-86,-39,35
783,2161,3,-426,-4685,23,-88,-38,34
784,2158,0,-427,-4684,23,-87,-38,35
785,2155,3,-430,-4696,23,-88,-36,33
786,2156,-1,-434,-4691,23,-86,-37,34
787,2160,2,-434,-4691,23,-87,-37,35
788,2159,3,-427,-4694,23,-86,-36,36
789,2156,3,-427,-4690,23,-87,-36,34
790,2157,2,-425,-4689,23,-88,-38,34
791,2158,-2,-428,-4690,23,-87,-36,35
792,2158,0,-429,-4686,23,-87,-35,35
793,2159,2,-433,-4688,23,-87,-37,34
794,2162,3,-431,-4689,23,-87,-37,33
795,2160,1,-431,-4688,23,-87,-37,35
796,2161,3,-429,-4686,23,-87,-36,35
797,2158,0,-430,-4685,23,-87,-39,35
798,2160,-2,-429,-4687,23,-86,-41,34
799,2157,1,-424,-4686,23,-87,-38,33
800,2158,1,-425,-4688,23,-87,-39,35
801,2160,1,-427,-4685,23,-86,-38,34
802,2159,-1,-421,-4689,23,-85,-37,34
803,2161,0,-428,-4689,23,-85,-38,34
804,2159,0,-423,-4685,23,-86,-37,35
805,2159,4,-423,-4687,23,-86,-36,35
806,2157,-2,-429,-4688,23,-88,-36,35
807,2160,-3,-432,-4688,23,-88,-36,35
808,2162,-1,-433,-4688,23,-88,-38,35
809,2160,-2,-427,-4689,23,-88,-36,34
810,2159,-1,-429,-4680,23,-87,-36,33
811,2156,0,-423,-4687,23,-88,-37,32
812,2156,0,-427,-4685,23,-88,-37,34
813,2158,2,-429,-4684,23,-87,-40,34
814,2159,0,-427,-4684,23,-87,-38,36
815,2159,1,-428,-4689,23,-87,-38,35
816,2161,0,-431,-4688,23,-88,-38,34
817,2160,-1,-426,-4687,23,-87,-36,33
818,2160,-3,-421,-4691,23,-87,-39,35
819,2160,-4,-423,-4690,23,-87,-39,35
820,2161,-5,-424,-4694,23,-88,-39,34
821,2159,-4,-430,-4688,23,-88,-40,34
822,2157,0,-431,-4691,23,-89,-39,33
823,2157,2,-427,-4684,23,-88,-38,34
824,2158,0,-431,-4693,23,-88,-38,36
825,2159,2,-430,-4692,23,-88,-37,35
826,2158,-1,-430,-4695,23,-86,-38,33
827,2159,2,-433,-4693,23,-86,-39,35
828,2161,4,-429,-4686,23,-86,-38,35
829,2158,2,-430,-4686,23,-87,-37,35
830,2159,1,-431,-4689,23,-86,-38,34
831,2157,2,-435,-4687,23,-87,-39,36
832,2160,-1,-431,-4683,23,-88,-38,35
833,2159,-1,-428,-4689,23,-87,-38,35
834,2159,-2,-424,-4686,23,-86,-38,34
835,2162,-1,-428,-4688,23,-87,-39,35
836,2158,-2,-426,-4685,23,-88,-39,35
837,2157,1,-426,-4686,23,-88,-39,35
838,2163,2,-424,-4687,23,-86,-36,34
839,2164,3,-420,-4692,23,-88,-38,32
840,2157,2,-423,-4691,23,-88,-38,34
841,2155,-1,-428,-4687,23,-88,-39,34
842,2159,0,-425,-4686,23,-88,-38,35
843,2159,0,-427,-4690,23,-86,-38,35
844,2161,0,-425,-4691,23,-85,-38,36
845,2161,0,-423,-4688,23,-87,-37,36
846,2159,3,-427,-4687,23,-87,-36,36
847,2157,-1,-426,-4688,23,-85,-38,34
848,2153,-2,-426,-4689,23,-86,-37,33
849,2159,2,-428,-4689,23,-87,-37,35
850,2159,0,-428,-4687,23,-86,-37,36
851,2158,-2,-428,-4682,23,-88,-37,36
852,2158,-1,-428,-4679,23,-86,-38,35
853,2160,-4,-423,-4688,23,-88,-37,35
854,2160,-1,-430,-4688,23,-88,-37,35
855,2157,-2,-431,-4687,23,-87,-38,35
856,2155,0,-427,-4688,23,-88,-38,34
857,2159,-1,-428,-4685,23,-87,-39,34
858,2161,-3,-429,-4683,23,-89,-38,33
859,2158,1,-429,-4685,23,-88,-38,33
860,2162,-4,-430,-4679,23,-88,-40,33
861,2162,-3,-429,-4679,23,-86,-38,35
862,2160,-1,-427,-4683,23,-88,-39,35
863,2159,0,-432,-4682,23,-87,-40,36
864,2157,-3,-427,-4683,23,-88,-38,34
865,2159,-2,-427,-4689,23,-88,-38,36
866,2160,3,-425,-4689,23,-88,-37,36
867,2159,1,-428,-4689,23,-88,-40,35
868,2159,1,-430,-4694,23,-87,-40,35
869,2157,-1,-429,-4690,23,-89,-39,36
870,2155,0,-427,-4686,23,-88,-38,34
871,2159,1,-430,-4692,23,-87,-39,34
872,2161,2,-428,-4687,23,-87,-36,35
873,2159,0,-432,-4683,23,-87,-37,34
874,2158,1,-430,-4686,23,-86,-39,35
875,2156,3,-435,-4688,23,-87,-39,34
876,2155,2,-434,-4686,23,-88,-39,35
877,2156,4,-430,-4686,23,-88,-37,35
878,2158,1,-425,-4685,23,-88,-37,34
879,2159,-2,-428,-4688,23,-87,-37,34
880,2158,1,-434,-4688,23,-86,-37,34
881,2158,1,-431,-4685,23,-87,-38,36
882,2162,1,-427,-4685,23,-86,-38,35
883,2161,1,-426,-4687,23,-87,-37,32
884,2157,-1,-424,-4683,23,-85,-36,36
885,2159,-2,-423,-4681,23,-85,-36,34
886,2164,-4,-426,-4687,23,-88,-36,35
887,2157,-4,-425,-4687,23,-87,-36,36
888,2158,-2,-428,-4684,23,-87,-36,35
889,2161,2,-428,-4684,23,-85,-36,34
890,2158,2,-427,-4687,23,-86,-38,35
891,2158,0,-428,-4683,23,-87,-40,35
892,2158,-1,-430,-4684,23,-88,-38,36
893,2154,-1,-426,-4683,23,-88,-38,35
894,2158,-2,-428,-4682,23,-88,-38,34
895,2154,0,-427,-4686,23,-88,-38,34
896,2159,1,-426,-4685,23,-88,-38,34
897,2160,2,-426,-4681,23,-89,-39,34
898,2159,-1,-433,-4681,23,-87,-40,33
899,2158,-1,-427,-4686,23,-87,-38,34
900,2158,-1,-429,-4685,23,-88,-38,34
901,2159,1,-428,-4685,23,-86,-40,33
902,2159,1,-427,-4688,23,-86,-39,32
903,2158,-1,-427,-4687,23,-88,-36,33
904,2160,1,-428,-4682,23,-87,-37,34
905,2159,0,-428,-4681,23,-86,-38,34
906,2154,0,-429,-4686,23,-87,-37,35
907,2156,2,-430,-4684,23,-86,-40,34
908,2160,-1,-425,-4677,23,-88,-41,34
909,2163,-2,-430,-4683,23,-88,-39,33
910,2164,1,-429,-4687,23,-87,-38,33
911,2161,3,-431,-4688,23,-87,-38,35
912,2161,0,-432,-4686,23,-85,-38,34
913,2160,0,-427,-4685,23,-85,-37,35
914,2158,-1,-426,-4688,23,-86,-37,34
915,2159,3,-429,-4689,23,-88,-39,35
916,2162,2,-427,-4691,23,-86,-40,34
917,2163,1,-423,-4690,23,-86,-40,34
918,2162,-2,-427,-4690,23,-87,-40,35
919,2162,-3,-422,-4687,23,-86,-39,36
920,2158,-1,-426,-4689,23,-86,-38,36
921,2156,1,-425,-4690,23,-89,-39,35
922,2158,-3,-429,-4686,23,-87,-39,35
923,2159,-3,-428,-4686,23,-89,-39,35
924,2161,-1,-429,-4684,23,-86,-38,34
925,2159,1,-426,-4690,23,-86,-38,36
926,2159,2,-430,-4687,23,-88,-37,35
927,2157,1,-425,-4687,23,-87,-37,36
928,2158,2,-421,-4691,23,-86,-37,35
929,2157,3,-423,-4688,23,-86,-36,34
930,2159,-2,-430,-4680,23,-86,-37,35
931,2156,-3,-423,-4681,23,-87,-37,35
932,2159,-4,-428,-4678,23,-87,-38,35
933,2159,-1,-429,-4680,23,-87,-37,34
934,2157,-2,-428,-4686,23,-87,-37,34
935,2159,-1,-426,-4681,23,-87,-37,34
936,2161,1,-429,-4680,23,-87,-37,34
937,2157,1,-431,-4680,23,-88,-37,35
938,2159,1,-433,-4683,23,-88,-38,36
939,2159,-1,-424,-4686,23,-87,-40,34
940,2156,0,-430,-4688,23,-88,-38,35
941,2160,-1,-432,-4684,23,-87,-39,35
942,2161,-4,-430,-4679,23,-87,-40,34
943,2162,4,-428,-4686,23,-88,-39,35
944,2158,1,-427,-4688,23,-89,-38,35
945,2159,0,-426,-4687,23,-89,-38,34
946,2159,0,-434,-4688,23,-87,-36,35
947,2158,-1,-437,-4684,23,-86,-37,34
948,2158,4,-428,-4683,23,-86,-37,35
949,2160,-1,-426,-4686,23,-86,-39,33
950,2158,0,-424,-4685,23,-86,-38,34
951,2160,-2,-423,-4686,23,-87,-39,33
952,2160,-2,-428,-4684,23,-87,-38,33
953,2158,-1,-428,-4684,23,-86,-38,35
954,2158,-2,-421,-4686,23,-86,-39,36
955,2154,-3,-424,-4686,23,-86,-38,35
956,2158,-1,-424,-4682,23,-86,-38,34
957,2158,-2,-430,-4680,23,-87,-38,35
958,2159,-4,-428,-4684,23,-87,-38,35
959,2156,-1,-431,-4683,23,-87,-38,35
960,2157,1,-429,-4685,23,-87,-38,35
961,2163,-1,-432,-4683,23,-89,-38,36
962,2157,1,-431,-4685,23,-86,-38,35
963,2157,1,-427,-4692,23,-88,-37,36
964,2163,-1,-424,-4687,23,-87,-37,35
965,2158,-2,-428,-4689,23,-88,-36,34
966,2157,-2,-430,-4690,23,-85,-37,35
967,2156,-3,-432,-4688,23,-85,-35,35
968,2158,1,-425,-4685,23,-85,-37,34
969,2157,-1,-420,-4684,23,-84,-37,35
970,2155,-1,-427,-4683,23,-85,-38,36
971,2157,-1,-428,-4687,23,-86,-37,35
972,2157,1,-427,-4686,23,-85,-39,34
973,2156,0,-425,-4684,23,-86,-38,34
974,2159,-1,-428,-4684,23,-86,-39,35
975,2155,-2,-433,-4689,23,-87,-38,34
976,2154,1,-437,-4689,23,-86,-38,34
977,2158,-5,-431,-4685,23,-86,-36,35
978,2159,-3,-430,-4690,23,-87,-37,35
979,2159,-6,-427,-4690,23,-88,-37,34
980,2163,-1,-427,-4691,23,-86,-37,36
981,2158,-3,-427,-4692,23,-86,-39,35
982,2159,0,-424,-4691,23,-86,-39,34
983,2157,-1,-426,-4692,23,-87,-38,33
984,2161,-2,-422,-4687,23,-87,-37,34
985,2164,-3,-424,-4687,23,-88,-36,37
986,2164,0,-424,-4695,23,-87,-37,35
987,2161,0,-429,-4694,23,-87,-37,34
988,2162,2,-426,-4689,23,-87,-37,36
989,2162,0,-426,-4689,23,-88,-39,35
990,2163,0,-428,-4691,23,-86,-39,35
991,2157,0,-425,-4686,23,-86,-37,35
992,2158,4,-432,-4688,23,-86,-38,35
993,2158,-1,-426,-4688,23,-86,-39,35
994,2158,-1,-429,-4685,23,-87,-40,34
995,2161,-1,-428,-4680,23,-87,-39,35
996,2157,1,-428,-4686,23,-87,-39,35
997,2158,3,-424,-4681,23,-87,-38,34
998,2159,-4,-426,-4686,23,-87,-38,35
