,acc_X,acc_Y,acc_Z,temp,tempC,gyr_X,gyr_Y,gyr_Z
0,17284,8,-3402,-4750,23,-344,-150,136
1,17290,0,-3400,-4750,23,-344,-151,138
2,17280,6,-3400,-4750,23,-344,-152,137
3,17278,0,-3396,-4753,23,-344,-149,140
4,17278,6,-3398,-4752,23,-345,-148,138
5,17282,14,-3402,-4752,23,-346,-152,138
6,17280,12,-3390,-4753,23,-347,-152,139
7,17280,20,-3378,-4754,23,-346,-152,138
8,17274,16,-3382,-4755,23,-345,-154,137
9,17274,24,-3386,-4755,23,-346,-155,138
10,17284,24,-3396,-4754,23,-345,-152,137
11,17274,22,-3382,-4754,23,-344,-150,138
12,17276,8,-3374,-4754,23,-342,-149,138
13,17272,6,-3384,-4754,23,-345,-150,137
14,17262,2,-3394,-4752,23,-344,-150,137
15,17260,10,-3404,-4753,23,-345,-150,137
16,17256,14,-3400,-4750,23,-344,-151,137
17,17270,16,-3398,-4750,23,-345,-150,137
18,17268,14,-3396,-4749,23,-343,-150,136
19,17260,4,-3410,-4750,23,-345,-151,134
20,17274,-2,-3418,-4751,23,-344,-151,134
21,17276,-4,-3408,-4750,23,-341,-150,136
22,17282,8,-3398,-4751,23,-342,-149,138
23,17274,2,-3388,-4751,23,-344,-149,139
24,17280,0,-3390,-4752,23,-342,-148,138
25,17286,10,-3396,-4750,23,-343,-150,139
26,17288,16,-3400,-4749,23,-344,-152,139
27,17292,14,-3414,-4750,23,-343,-152,141
28,17294,16,-3414,-4752,23,-343,-152,140
29,17286,20,-3414,-4752,23,-343,-150,143
30,17288,10,-3414,-4751,23,-344,-151,141
31,17288,10,-3422,-4751,23,-343,-150,139
32,17286,10,-3420,-4750,23,-344,-151,138
33,17290,18,-3428,-4750,23,-344,-149,140
34,17292,22,-3412,-4749,23,-344,-150,138
35,17300,24,-3410,-4748,23,-342,-148,138
36,17296,18,-3412,-4746,23,-342,-148,138
37,17288,14,-3406,-4748,23,-343,-149,140
38,17284,18,-3404,-4747,23,-348,-148,140
39,17282,20,-3414,-4747,23,-346,-147,142
40,17274,28,-3424,-4747,23,-345,-147,142
41,17272,22,-3414,-4748,23,-344,-149,142
42,17280,10,-3406,-4746,23,-346,-150,141
43,17278,4,-3416,-4746,23,-344,-148,141
44,17276,10,-3418,-4745,23,-343,-146,140
45,17278,18,-3408,-4746,23,-346,-148,137
46,17284,28,-3410,-4748,23,-346,-149,138
47,17278,20,-3412,-4748,23,-345,-151,137
48,17288,18,-3406,-4749,23,-347,-152,137
49,17284,18,-3420,-4747,23,-345,-150,136
50,17274,10,-3416,-4747,23,-343,-151,138
51,17276,8,-3430,-4748,23,-345,-149,137
52,17274,6,-3424,-4748,23,-344,-148,139
53,17274,10,-3410,-4749,23,-344,-148,140
54,17268,2,-3402,-4748,23,-344,-150,139
55,17272,2,-3396,-4748,23,-344,-149,138
56,17278,10,-3386,-4750,23,-345,-150,137
57,17276,16,-3406,-4750,23,-346,-150,136
58,17276,22,-3410,-4750,23,-345,-149,138
59,17286,24,-3406,-4749,23,-345,-150,139
60,17270,20,-3412,-4750,23,-345,-148,139
61,17278,14,-3414,-4751,23,-345,-148,139
62,17284,16,-3400,-4751,23,-346,-147,138
63,17288,12,-3404,-4752,23,-348,-149,140
64,17286,6,-3404,-4753,23,-347,-150,139
65,17290,-2,-3404,-4752,23,-346,-151,138
66,17286,0,-3406,-4751,23,-346,-151,138
67,17286,2,-3394,-4753,23,-347,-151,139
68,17284,8,-3386,-4753,23,-347,-150,138
69,17288,16,-3376,-4753,23,-350,-152,138
70,17288,14,-3370,-4753,23,-350,-152,137
71,17284,24,-3388,-4753,23,-347,-153,138
72,17284,20,-3396,-4752,23,-344,-151,136
73,17272,28,-3408,-4751,23,-343,-152,137
74,17276,32,-3406,-4750,23,-342,-151,138
75,17284,44,-3416,-4752,23,-343,-151,137
76,17278,34,-3414,-4751,23,-343,-153,138
77,17272,24,-3434,-4749,23,-344,-154,138
78,17262,12,-3430,-4749,23,-343,-155,138
79,17272,8,-3428,-4749,23,-344,-153,137
80,17270,6,-3420,-4749,23,-343,-152,137
81,17284,14,-3416,-4747,23,-344,-151,137
82,17276,16,-3402,-4747,23,-344,-154,137
83,17284,12,-3402,-4748,23,-341,-152,137
84,17282,10,-3396,-4748,23,-342,-153,137
85,17284,12,-3394,-4747,23,-343,-153,135
86,17270,20,-3406,-4748,23,-344,-153,136
87,17270,28,-3406,-4748,23,-342,-152,137
88,17266,26,-3402,-4748,23,-344,-152,138
89,17262,26,-3418,-4749,23,-343,-152,139
90,17262,18,-3400,-4748,23,-343,-153,139
91,17260,16,-3388,-4748,23,-343,-154,137
92,17252,10,-3382,-4749,23,-343,-155,140
93,17262,4,-3390,-4748,23,-343,-154,140
94,17256,2,-3392,-4749,23,-344,-155,139
95,17262,12,-3382,-4749,23,-344,-154,137
96,17266,4,-3392,-4749,23,-346,-152,138
97,17260,8,-3392,-4748,23,-347,-153,141
98,17256,0,-3386,-4746,23,-344,-153,141
99,17260,-4,-3392,-4745,23,-343,-152,141
100,17266,-8,-3388,-4745,23,-347,-153,141
101,17274,-4,-3402,-4746,23,-348,-153,142
102,17272,4,-3400,-4746,23,-346,-149,141
103,17266,-6,-3388,-4746,23,-346,-148,141
104,17270,-6,-3396,-4744,23,-346,-149,140
105,17278,-4,-3398,-4744,23,-346,-151,139
106,17282,0,-3402,-4744,23,-347,-152,139
107,17270,6,-3408,-4744,23,-345,-152,139
108,17270,20,-3406,-4743,23,-346,-151,139
109,17282,24,-3416,-4743,23,-347,-151,140
110,17284,18,-3404,-4744,23,-347,-151,143
111,17280,18,-3410,-4744,23,-347,-151,142
112,17282,12,-3402,-4742,23,-348,-153,141
113,17274,4,-3404,-4744,23,-347,-155,141
114,17274,6,-3416,-4746,23,-348,-153,138
115,17268,8,-3408,-4743,23,-346,-151,138
116,17278,-4,-3408,-4746,23,-345,-150,140
117,17274,-6,-3410,-4747,23,-344,-152,140
118,17268,6,-3398,-4749,23,-345,-151,141
119,17272,8,-3394,-4749,23,-344,-151,140
120,17276,8,-3386,-4750,23,-345,-154,137
121,17268,10,-3402,-4750,23,-345,-154,135
122,17278,8,-3408,-4749,23,-346,-154,137
123,17280,10,-3402,-4749,23,-346,-154,139
124,17280,10,-3404,-4750,23,-347,-154,138
125,17290,18,-3414,-4751,23,-346,-154,138
126,17284,18,-3396,-4748,23,-345,-154,137
127,17278,16,-3400,-4745,23,-343,-153,137
128,17280,16,-3396,-4743,23,-341,-157,136
129,17274,10,-3410,-4743,23,-342,-153,137
130,17276,10,-3408,-4745,23,-344,-153,137
131,17280,14,-3404,-4744,23,-344,-155,140
132,17276,10,-3430,-4745,23,-344,-155,139
133,17272,0,-3422,-4745,23,-345,-155,138
134,17284,8,-3428,-4745,23,-346,-155,137
135,17284,16,-3428,-4746,23,-343,-153,138
136,17270,12,-3416,-4746,23,-342,-152,137
137,17268,20,-3414,-4746,23,-343,-150,136
138,17270,20,-3416,-4746,23,-345,-152,137
139,17282,18,-3412,-4747,23,-345,-149,136
140,17278,22,-3410,-4747,23,-343,-150,135
141,17288,18,-3410,-4747,23,-342,-150,134
142,17278,18,-3398,-4746,23,-341,-151,136
143,17270,28,-3400,-4745,23,-343,-151,137
144,17274,30,-3392,-4746,23,-343,-152,136
145,17276,38,-3396,-4746,23,-345,-148,139
146,17274,28,-3400,-4746,23,-344,-146,138
147,17280,26,-3406,-4746,23,-344,-149,139
148,17284,22,-3394,-4745,23,-347,-149,141
149,17280,14,-3398,-4744,23,-347,-150,142
150,17284,8,-3402,-4745,23,-348,-148,143
151,17272,8,-3410,-4746,23,-347,-148,143
152,17274,14,-3414,-4746,23,-348,-149,144
153,17276,8,-3414,-4745,23,-346,-150,145
154,17284,6,-3418,-4746,23,-346,-151,143
155,17280,12,-3412,-4746,23,-346,-150,144
156,17276,8,-3408,-4747,23,-344,-151,145
157,17276,12,-3398,-4748,23,-345,-149,143
158,17284,20,-3396,-4748,23,-346,-150,141
159,17282,12,-3400,-4749,23,-347,-150,138
160,17290,10,-3408,-4749,23,-346,-149,136
161,17288,8,-3408,-4748,23,-345,-149,137
162,17274,6,-3410,-4747,23,-343,-149,138
163,17276,6,-3412,-4747,23,-342,-150,139
164,17266,2,-3408,-4748,23,-346,-152,137
165,17272,4,-3410,-4744,23,-347,-152,140
166,17264,10,-3416,-4746,23,-349,-152,138
167,17274,16,-3426,-4745,23,-351,-153,139
168,17282,20,-3430,-4746,23,-348,-154,138
169,17290,6,-3434,-4746,23,-347,-155,139
170,17278,4,-3412,-4748,23,-347,-155,139
171,17284,8,-3412,-4746,23,-349,-153,140
172,17280,6,-3398,-4745,23,-347,-151,141
173,17276,2,-3406,-4745,23,-345,-151,140
174,17276,6,-3400,-4746,23,-345,-153,141
175,17282,4,-3412,-4746,23,-344,-153,138
176,17288,10,-3404,-4747,23,-344,-153,137
177,17288,16,-3402,-4747,23,-343,-151,138
178,17280,10,-3402,-4745,23,-343,-151,140
179,17278,-2,-3402,-4746,23,-343,-152,140
180,17278,0,-3394,-4745,23,-343,-151,140
181,17286,2,-3394,-4743,23,-343,-152,139
182,17280,2,-3402,-4743,23,-343,-152,140
183,17278,0,-3396,-4744,23,-346,-153,139
184,17276,2,-3386,-4744,23,-348,-153,138
185,17286,-2,-3390,-4745,23,-346,-153,139
186,17280,-6,-3382,-4745,23,-343,-152,139
187,17272,8,-3392,-4747,23,-344,-154,138
188,17280,12,-3400,-4746,23,-343,-153,139
189,17282,20,-3398,-4749,23,-344,-152,139
190,17284,28,-3396,-4748,23,-342,-149,137
191,17284,20,-3390,-4750,23,-343,-148,138
192,17278,24,-3404,-4748,23,-344,-148,138
193,17284,14,-3410,-4747,23,-348,-150,138
194,17284,6,-3396,-4747,23,-348,-148,137
195,17288,14,-3402,-4746,23,-348,-151,135
196,17282,12,-3398,-4746,23,-348,-149,136
197,17280,22,-3396,-4744,23,-347,-151,137
198,17272,20,-3400,-4744,23,-346,-151,136
199,17268,16,-3398,-4745,23,-345,-152,136
200,17268,18,-3388,-4747,23,-347,-152,137
201,17266,12,-3388,-4747,23,-344,-153,138
202,17280,12,-3392,-4744,23,-345,-153,139
203,17272,4,-3394,-4743,23,-345,-154,139
204,17280,0,-3398,-4744,23,-348,-153,140
205,17274,2,-3410,-4745,23,-348,-153,140
206,17286,0,-3422,-4744,23,-348,-153,141
207,17294,18,-3420,-4744,23,-346,-150,138
208,17284,14,-3404,-4745,23,-344,-150,138
209,17278,6,-3398,-4745,23,-345,-149,137
210,17284,10,-3384,-4744,23,-344,-149,138
211,17286,16,-3394,-4746,23,-347,-149,138
212,17290,18,-3392,-4746,23,-347,-152,137
213,17296,12,-3398,-4746,23,-347,-152,137
214,17294,10,-3390,-4747,23,-346,-151,139
215,17288,6,-3400,-4747,23,-345,-152,136
216,17286,14,-3388,-4747,23,-346,-154,137
217,17282,10,-3392,-4746,23,-344,-152,140
218,17278,6,-3388,-4745,23,-345,-151,142
219,17284,10,-3394,-4745,23,-346,-151,142
220,17280,2,-3388,-4745,23,-347,-149,141
221,17286,2,-3390,-4745,23,-346,-151,142
222,17288,2,-3402,-4747,23,-346,-152,144
223,17288,4,-3406,-4747,23,-345,-154,143
224,17294,4,-3402,-4746,23,-345,-152,140
225,17292,0,-3412,-4747,23,-344,-151,142
226,17292,2,-3406,-4749,23,-344,-151,143
227,17294,0,-3400,-4748,23,-344,-149,144
228,17284,-2,-3402,-4748,23,-344,-150,143
229,17278,-4,-3410,-4749,23,-343,-149,140
230,17294,0,-3402,-4748,23,-344,-149,138
231,17296,6,-3402,-4746,23,-345,-148,138
232,17298,2,-3408,-4746,23,-344,-149,136
233,17294,8,-3414,-4747,23,-345,-151,135
234,17294,14,-3416,-4745,23,-344,-150,135
235,17282,20,-3414,-4745,23,-345,-151,135
236,17286,10,-3408,-4746,23,-347,-150,136
237,17282,8,-3400,-4744,23,-347,-149,137
238,17292,8,-3392,-4743,23,-349,-148,137
239,17288,4,-3414,-4743,23,-348,-149,138
240,17280,8,-3416,-4743,23,-347,-151,138
241,17276,8,-3408,-4746,23,-344,-151,139
242,17268,4,-3396,-4746,23,-347,-150,140
243,17274,10,-3396,-4745,23,-349,-150,141
244,17290,18,-3396,-4746,23,-347,-150,140
245,17294,14,-3400,-4747,23,-346,-150,140
246,17294,20,-3398,-4747,23,-346,-151,141
247,17282,12,-3398,-4744,23,-347,-150,140
248,17278,10,-3398,-4744,23,-348,-152,141
249,17282,8,-3404,-4745,23,-347,-150,143
250,17286,4,-3414,-4745,23,-348,-151,141
251,17274,12,-3404,-4747,23,-345,-150,140
252,17270,16,-3408,-4746,23,-347,-147,141
253,17270,10,-3396,-4746,23,-347,-149,141
254,17280,2,-3390,-4745,23,-346,-150,140
255,17276,-2,-3382,-4744,23,-346,-149,139
256,17272,-2,-3386,-4745,23,-346,-149,140
257,17274,4,-3382,-4746,23,-343,-150,141
258,17272,2,-3390,-4744,23,-344,-150,139
259,17272,14,-3390,-4744,23,-343,-151,141
260,17276,8,-3400,-4745,23,-345,-151,140
261,17280,12,-3386,-4744,23,-344,-151,140
262,17288,14,-3382,-4745,23,-345,-150,141
263,17268,18,-3394,-4745,23,-347,-152,140
264,17274,24,-3398,-4745,23,-345,-152,142
265,17274,12,-3390,-4746,23,-345,-151,139
266,17276,4,-3390,-4745,23,-343,-150,139
267,17274,2,-3384,-4746,23,-344,-150,137
268,17276,2,-3388,-4745,23,-345,-148,139
269,17274,12,-3386,-4744,23,-344,-149,139
270,17276,14,-3396,-4744,23,-345,-147,138
271,17274,10,-3402,-4744,23,-347,-149,139
272,17270,8,-3412,-4743,23,-346,-150,138
273,17268,12,-3410,-4743,23,-345,-149,138
274,17278,8,-3412,-4741,23,-346,-150,141
275,17276,6,-3422,-4742,23,-344,-150,141
276,17278,10,-3394,-4744,23,-342,-150,139
277,17282,8,-3394,-4744,23,-342,-151,139
278,17276,2,-3394,-4744,23,-342,-150,139
279,17278,10,-3386,-4745,23,-341,-152,139
280,17286,20,-3366,-4746,23,-344,-153,138
281,17286,14,-3376,-4745,23,-345,-156,140
282,17282,8,-3394,-4746,23,-345,-153,139
283,17276,2,-3392,-4748,23,-346,-154,139
284,17278,2,-3388,-4748,23,-348,-153,138
285,17276,2,-3382,-4747,23,-346,-154,138
286,17270,-2,-3382,-4747,23,-346,-153,138
287,17268,2,-3380,-4746,23,-344,-153,137
288,17272,10,-3402,-4745,23,-346,-152,136
289,17272,0,-3408,-4746,23,-345,-151,137
290,17284,4,-3398,-4745,23,-344,-152,134
291,17284,8,-3408,-4744,23,-345,-150,133
292,17282,16,-3426,-4743,23,-345,-148,133
293,17284,10,-3414,-4745,23,-343,-150,132
294,17286,4,-3430,-4745,23,-340,-152,132
295,17288,12,-3412,-4745,23,-341,-150,133
296,17286,4,-3428,-4745,23,-341,-151,136
297,17286,2,-3418,-4745,23,-343,-150,136
298,17300,8,-3420,-4745,23,-345,-150,137
299,17302,14,-3422,-4746,23,-345,-152,136
300,17290,16,-3422,-4747,23,-345,-152,138
301,17286,12,-3424,-4747,23,-344,-154,139
302,17282,10,-3422,-4746,23,-346,-155,139
303,17276,8,-3420,-4747,23,-347,-152,141
304,17262,14,-3398,-4747,23,-348,-152,141
305,17270,8,-3388,-4746,23,-346,-153,143
306,17272,12,-3394,-4746,23,-347,-150,142
307,17272,10,-3384,-4744,23,-348,-151,142
308,17280,4,-3396,-4745,23,-345,-152,139
309,17274,4,-3384,-4746,23,-344,-153,138
310,17278,6,-3390,-4747,23,-345,-151,136
311,17292,18,-3380,-4748,23,-344,-151,138
312,17288,14,-3374,-4748,23,-343,-150,136
313,17278,10,-3376,-4748,23,-345,-152,138
314,17290,12,-3374,-4747,23,-345,-150,139
315,17292,8,-3380,-4746,23,-345,-151,141
316,17294,2,-3382,-4747,23,-346,-152,141
317,17288,2,-3384,-4748,23,-348,-153,138
318,17284,0,-3378,-4747,23,-348,-152,140
319,17278,10,-3388,-4745,23,-349,-154,138
320,17284,10,-3398,-4746,23,-348,-152,138
321,17286,10,-3400,-4746,23,-346,-156,139
322,17284,2,-3402,-4745,23,-344,-155,139
323,17280,2,-3394,-4745,23,-345,-154,140
324,17290,4,-3394,-4745,23,-347,-153,141
325,17290,16,-3404,-4745,23,-347,-153,140
326,17286,8,-3402,-4743,23,-347,-154,140
327,17270,0,-3402,-4744,23,-345,-153,138
328,17278,0,-3406,-4743,23,-347,-153,141
329,17276,0,-3394,-4743,23,-347,-150,141
330,17272,4,-3400,-4745,23,-345,-148,142
331,17272,2,-3394,-4745,23,-345,-147,142
332,17266,0,-3390,-4745,23,-345,-148,142
333,17256,0,-3394,-4745,23,-344,-148,144
334,17260,6,-3380,-4745,23,-343,-148,143
335,17262,4,-3386,-4747,23,-345,-149,139
336,17256,14,-3384,-4746,23,-345,-150,139
337,17266,18,-3394,-4743,23,-346,-151,140
338,17278,14,-3392,-4744,23,-349,-149,140
339,17284,14,-3384,-4744,23,-348,-149,139
340,17282,14,-3376,-4744,23,-347,-149,139
341,17276,14,-3368,-4745,23,-347,-152,139
342,17274,8,-3376,-4744,23,-347,-151,140
343,17270,6,-3394,-4745,23,-347,-151,140
344,17276,10,-3374,-4745,23,-346,-150,140
345,17274,10,-3380,-4745,23,-349,-153,141
346,17280,10,-3382,-4744,23,-350,-155,142
347,17284,4,-3380,-4744,23,-348,-153,140
348,17270,-12,-3392,-4744,23,-348,-153,142
349,17278,-12,-3400,-4744,23,-346,-153,141
350,17274,-8,-3412,-4744,23,-346,-151,142
351,17274,-4,-3402,-4744,23,-344,-151,141
352,17284,0,-3408,-4743,23,-345,-151,141
353,17284,2,-3404,-4743,23,-346,-153,140
354,17286,0,-3402,-4745,23,-345,-150,140
355,17278,2,-3392,-4746,23,-344,-151,139
356,17282,4,-3380,-4747,23,-344,-150,136
357,17290,-6,-3374,-4747,23,-344,-150,136
358,17282,-2,-3378,-4746,23,-343,-151,136
359,17284,2,-3368,-4743,23,-344,-152,137
360,17286,-4,-3378,-4745,23,-346,-153,137
361,17280,-2,-3366,-4746,23,-347,-151,139
362,17280,-4,-3364,-4746,23,-346,-152,139
363,17282,6,-3382,-4744,23,-346,-152,137
364,17274,4,-3382,-4745,23,-347,-154,136
365,17280,12,-3392,-4745,23,-350,-154,139
366,17278,18,-3388,-4744,23,-351,-155,139
367,17282,28,-3388,-4744,23,-349,-154,139
368,17284,28,-3398,-4743,23,-350,-153,139
369,17288,26,-3384,-4743,23,-347,-148,139
370,17282,28,-3384,-4744,23,-348,-146,141
371,17274,18,-3388,-4744,23,-348,-148,144
372,17274,18,-3404,-4743,23,-346,-148,142
373,17270,22,-3410,-4744,23,-346,-150,141
374,17272,24,-3400,-4744,23,-346,-153,143
375,17268,18,-3410,-4744,23,-345,-154,142
376,17270,24,-3412,-4743,23,-347,-151,140
377,17282,20,-3414,-4743,23,-345,-151,140
378,17288,20,-3414,-4742,23,-344,-153,140
379,17294,16,-3414,-4741,23,-344,-152,139
380,17286,12,-3414,-4742,23,-343,-151,138
381,17292,10,-3402,-4740,23,-343,-152,137
382,17276,20,-3404,-4741,23,-344,-151,138
383,17276,14,-3404,-4742,23,-345,-151,138
384,17272,12,-3398,-4741,23,-346,-152,139
385,17264,14,-3390,-4742,23,-345,-151,139
386,17270,22,-3388,-4743,23,-346,-151,139
387,17280,32,-3390,-4743,23,-346,-152,139
388,17282,38,-3390,-4743,23,-345,-151,138
389,17284,22,-3390,-4742,23,-345,-150,137
390,17278,16,-3388,-4744,23,-345,-151,136
391,17272,10,-3402,-4745,23,-344,-151,137
392,17278,4,-3402,-4743,23,-345,-150,137
393,17286,2,-3392,-4744,23,-346,-153,138
394,17286,2,-3398,-4743,23,-343,-151,137
395,17282,10,-3404,-4743,23,-342,-150,137
396,17280,8,-3398,-4743,23,-344,-150,135
397,17270,8,-3388,-4745,23,-345,-152,138
398,17266,8,-3394,-4745,23,-346,-151,138
399,17268,12,-3390,-4745,23,-346,-151,138
400,17264,20,-3388,-4744,23,-347,-147,140
401,17264,16,-3402,-4745,23,-346,-145,139
402,17268,22,-3402,-4745,23,-348,-147,137
403,17276,16,-3392,-4745,23,-344,-145,138
404,17278,10,-3390,-4744,23,-344,-146,140
405,17278,-2,-3378,-4743,23,-343,-148,141
406,17284,0,-3374,-4743,23,-346,-148,139
407,17276,6,-3360,-4743,23,-348,-149,140
408,17272,8,-3368,-4744,23,-349,-151,140
409,17270,6,-3370,-4742,23,-348,-150,141
410,17272,20,-3376,-4742,23,-345,-149,139
411,17272,20,-3382,-4743,23,-344,-150,138
412,17282,22,-3394,-4743,23,-343,-149,137
413,17282,32,-3404,-4742,23,-344,-148,136
414,17270,24,-3406,-4742,23,-345,-146,137
415,17276,28,-3398,-4743,23,-344,-148,136
416,17272,18,-3400,-4742,23,-344,-147,137
417,17288,16,-3392,-4741,23,-344,-150,137
418,17282,18,-3386,-4740,23,-344,-148,138
419,17290,22,-3394,-4740,23,-345,-147,137
420,17286,16,-3412,-4739,23,-345,-148,139
421,17288,18,-3406,-4741,23,-345,-149,141
422,17298,22,-3414,-4742,23,-345,-146,141
423,17294,14,-3394,-4744,23,-344,-149,139
424,17296,12,-3398,-4745,23,-344,-151,139
425,17294,6,-3408,-4744,23,-346,-150,139
426,17294,8,-3402,-4743,23,-344,-150,138
427,17300,6,-3400,-4744,23,-346,-151,138
428,17298,4,-3408,-4743,23,-347,-151,141
429,17292,10,-3400,-4743,23,-347,-154,142
430,17294,16,-3394,-4743,23,-345,-157,140
431,17294,14,-3382,-4744,23,-346,-157,142
432,17294,12,-3384,-4744,23,-345,-156,140
433,17292,14,-3386,-4743,23,-343,-155,141
434,17290,6,-3390,-4743,23,-345,-154,142
435,17292,10,-3392,-4741,23,-347,-156,141
436,17286,6,-3390,-4740,23,-347,-155,140
437,17292,0,-3388,-4741,23,-346,-156,139
438,17282,4,-3402,-4741,23,-343,-153,139
439,17278,8,-3398,-4740,23,-343,-151,141
440,17292,10,-3400,-4740,23,-344,-149,140
441,17282,2,-3406,-4740,23,-344,-149,138
442,17278,14,-3400,-4741,23,-344,-150,138
443,17276,14,-3398,-4739,23,-344,-151,136
444,17278,12,-3412,-4740,23,-342,-153,139
445,17276,20,-3402,-4741,23,-342,-152,137
446,17282,18,-3396,-4742,23,-342,-152,137
447,17276,20,-3404,-4741,23,-344,-151,138
448,17276,24,-3416,-4742,23,-343,-151,138
449,17282,20,-3414,-4741,23,-344,-150,139
450,17292,20,-3422,-4742,23,-347,-147,139
451,17298,8,-3426,-4741,23,-346,-151,139
452,17284,6,-3418,-4741,23,-346,-151,139
453,17278,16,-3412,-4743,23,-347,-151,139
454,17282,8,-3406,-4742,23,-344,-151,141
455,17280,14,-3384,-4743,23,-344,-150,140
456,17276,14,-3380,-4744,23,-344,-151,138
457,17284,12,-3388,-4741,23,-343,-150,140
458,17280,-2,-3406,-4742,23,-345,-149,140
459,17288,10,-3408,-4742,23,-344,-151,140
460,17288,16,-3410,-4742,23,-342,-151,139
461,17296,16,-3394,-4743,23,-343,-149,139
462,17302,20,-3384,-4743,23,-342,-149,139
463,17304,16,-3396,-4742,23,-341,-151,139
464,17306,8,-3396,-4743,23,-344,-152,139
465,17300,2,-3402,-4744,23,-343,-155,136
466,17300,16,-3400,-4746,23,-344,-156,135
467,17298,26,-3414,-4745,23,-344,-155,136
468,17294,24,-3410,-4742,23,-344,-154,137
469,17274,26,-3400,-4742,23,-343,-155,138
470,17274,20,-3396,-4743,23,-343,-154,137
471,17272,12,-3400,-4741,23,-340,-154,139
472,17278,16,-3390,-4742,23,-341,-155,140
473,17274,18,-3386,-4741,23,-343,-152,138
474,17280,18,-3392,-4741,23,-346,-153,136
475,17290,6,-3390,-4743,23,-345,-152,138
476,17286,8,-3406,-4743,23,-345,-154,137
477,17282,20,-3420,-4744,23,-344,-154,138
478,17290,18,-3440,-4742,23,-344,-155,138
479,17292,8,-3430,-4742,23,-343,-152,140
480,17296,12,-3412,-4742,23,-343,-152,139
481,17290,20,-3412,-4743,23,-344,-151,139
482,17288,14,-3406,-4744,23,-345,-150,141
483,17286,6,-3404,-4742,23,-347,-147,144
484,17280,6,-3406,-4743,23,-348,-149,141
485,17278,10,-3400,-4742,23,-348,-147,140
486,17280,16,-3404,-4742,23,-348,-149,140
487,17280,16,-3414,-4743,23,-347,-149,139
488,17266,10,-3408,-4743,23,-346,-148,137
489,17266,4,-3410,-4745,23,-348,-150,138
490,17276,6,-3404,-4743,23,-348,-148,140
491,17270,14,-3420,-4742,23,-348,-148,138
492,17266,10,-3426,-4741,23,-349,-149,136
493,17282,16,-3426,-4743,23,-348,-152,138
494,17284,14,-3418,-4742,23,-347,-153,136
495,17276,18,-3420,-4741,23,-345,-150,137
496,17282,26,-3408,-4742,23,-346,-147,137
497,17278,30,-3410,-4742,23,-346,-151,137
498,17278,24,-3404,-4740,23,-343,-150,137
499,17280,16,-3396,-4741,23,-344,-154,138
500,17286,22,-3384,-4741,23,-345,-153,140
501,17292,18,-3380,-4739,23,-345,-152,140
502,17284,12,-3384,-4739,23,-345,-153,141
503,17278,18,-3386,-4738,23,-347,-153,142
504,17274,12,-3392,-4738,23,-347,-150,142
505,17278,16,-3382,-4740,23,-346,-151,142
506,17282,12,-3384,-4739,23,-346,-154,142
507,17282,16,-3382,-4740,23,-348,-154,142
508,17274,18,-3388,-4740,23,-347,-154,141
509,17258,14,-3378,-4741,23,-345,-156,141
510,17264,8,-3388,-4744,23,-344,-158,139
511,17266,10,-3406,-4745,23,-345,-157,140
512,17270,-2,-3402,-4743,23,-345,-159,140
513,17268,4,-3410,-4744,23,-344,-160,139
514,17268,2,-3408,-4745,23,-343,-159,138
515,17268,10,-3404,-4743,23,-344,-157,137
516,17274,18,-3398,-4743,23,-342,-155,139
517,17270,16,-3420,-4742,23,-340,-154,141
518,17268,12,-3414,-4741,23,-340,-153,141
519,17266,12,-3404,-4740,23,-340,-152,142
520,17274,10,-3410,-4741,23,-344,-153,142
521,17286,12,-3414,-4740,23,-344,-155,140
522,17284,4,-3420,-4739,23,-346,-155,137
523,17276,14,-3410,-4738,23,-344,-151,135
524,17278,16,-3408,-4737,23,-343,-151,134
525,17280,18,-3420,-4738,23,-343,-151,135
526,17260,16,-3418,-4738,23,-343,-151,137
527,17264,12,-3410,-4739,23,-343,-151,136
528,17266,12,-3394,-4739,23,-342,-149,137
529,17250,6,-3392,-4739,23,-342,-148,137
530,17256,16,-3398,-4741,23,-342,-150,136
531,17262,16,-3406,-4741,23,-342,-150,138
532,17268,20,-3412,-4741,23,-342,-148,138
533,17274,20,-3410,-4740,23,-342,-150,138
534,17272,16,-3408,-4740,23,-343,-149,140
535,17276,28,-3402,-4741,23,-342,-150,137
536,17280,26,-3406,-4740,23,-344,-150,137
537,17286,18,-3388,-4740,23,-343,-149,138
538,17294,22,-3378,-4740,23,-344,-152,137
539,17292,20,-3378,-4739,23,-345,-151,138
540,17294,18,-3380,-4739,23,-346,-149,139
541,17288,18,-3366,-4740,23,-346,-149,139
542,17278,16,-3370,-4742,23,-346,-147,139
543,17280,2,-3370,-4741,23,-347,-147,140
544,17282,4,-3350,-4741,23,-347,-146,141
545,17280,-2,-3376,-4741,23,-346,-147,142
546,17270,0,-3378,-4737,23,-346,-148,142
547,17266,0,-3374,-4738,23,-346,-147,142
548,17272,14,-3384,-4738,23,-346,-151,142
549,17270,4,-3398,-4737,23,-346,-150,141
550,17290,6,-3398,-4738,23,-346,-149,140
551,17288,0,-3396,-4738,23,-345,-149,141
552,17296,0,-3394,-4737,23,-346,-148,141
553,17292,8,-3416,-4737,23,-347,-149,140
554,17290,14,-3432,-4735,23,-347,-150,141
555,17276,6,-3436,-4735,23,-349,-152,142
556,17272,12,-3426,-4736,23,-347,-153,140
557,17268,20,-3424,-4736,23,-345,-152,141
558,17258,18,-3436,-4736,23,-346,-151,140
559,17270,6,-3438,-4737,23,-345,-150,138
560,17274,0,-3430,-4739,23,-345,-149,138
561,17266,0,-3418,-4739,23,-346,-150,139
562,17276,0,-3412,-4739,23,-346,-153,141
563,17280,0,-3414,-4738,23,-346,-154,141
564,17286,2,-3402,-4737,23,-343,-154,140
565,17284,0,-3394,-4737,23,-344,-155,141
566,17284,2,-3398,-4736,23,-343,-154,140
567,17286,8,-3402,-4736,23,-344,-152,141
568,17286,6,-3410,-4737,23,-346,-151,140
569,17284,8,-3410,-4737,23,-345,-153,139
570,17282,6,-3392,-4738,23,-344,-152,140
571,17282,6,-3384,-4739,23,-344,-153,141
572,17284,2,-3398,-4738,23,-344,-152,141
573,17274,-2,-3408,-4739,23,-341,-151,139
574,17274,2,-3412,-4740,23,-344,-153,140
575,17278,14,-3400,-4741,23,-344,-154,138
576,17280,16,-3400,-4740,23,-346,-155,138
577,17276,18,-3408,-4741,23,-347,-153,138
578,17278,10,-3402,-4739,23,-348,-153,140
579,17284,12,-3410,-4739,23,-346,-155,138
580,17274,4,-3400,-4738,23,-346,-155,139
581,17280,8,-3398,-4736,23,-343,-154,140
582,17286,8,-3384,-4737,23,-344,-152,140
583,17284,-2,-3392,-4738,23,-344,-151,138
584,17270,-6,-3386,-4738,23,-346,-150,139
585,17276,-6,-3390,-4739,23,-347,-151,141
586,17280,-2,-3372,-4740,23,-346,-150,140
587,17282,-4,-3364,-4739,23,-345,-151,139
588,17274,2,-3370,-4737,23,-344,-154,138
589,17276,-4,-3386,-4736,23,-346,-155,137
590,17288,-8,-3380,-4737,23,-345,-154,138
591,17282,0,-3388,-4738,23,-345,-149,137
592,17270,2,-3384,-4738,23,-346,-149,137
593,17282,10,-3382,-4739,23,-346,-151,137
594,17280,6,-3378,-4737,23,-347,-149,137
595,17272,8,-3376,-4736,23,-346,-150,137
596,17282,14,-3386,-4736,23,-347,-150,139
597,17280,20,-3390,-4736,23,-345,-150,139
598,17272,14,-3400,-4736,23,-341,-150,140
599,17280,14,-3404,-4736,23,-341,-152,140
600,17284,14,-3416,-4736,23,-343,-151,140
601,17270,8,-3410,-4738,23,-343,-149,139
602,17282,14,-3412,-4738,23,-344,-151,136
603,17284,12,-3404,-4739,23,-344,-152,136
604,17290,10,-3412,-4739,23,-347,-151,138
605,17292,16,-3414,-4739,23,-345,-152,141
606,17290,24,-3418,-4739,23,-344,-152,141
607,17272,18,-3414,-4738,23,-346,-154,140
608,17274,24,-3408,-4738,23,-347,-150,139
609,17274,20,-3396,-4738,23,-348,-148,139
610,17264,22,-3386,-4738,23,-345,-149,138
611,17270,18,-3396,-4740,23,-345,-151,140
612,17280,18,-3388,-4739,23,-346,-151,140
613,17274,18,-3402,-4738,23,-348,-150,141
614,17278,10,-3412,-4739,23,-346,-149,139
615,17272,16,-3408,-4739,23,-345,-150,139
616,17268,18,-3404,-4741,23,-343,-150,141
617,17268,14,-3406,-4743,23,-343,-151,139
618,17274,12,-3392,-4740,23,-340,-148,138
619,17268,6,-3400,-4737,23,-344,-148,137
620,17282,8,-3410,-4739,23,-345,-151,136
621,17288,10,-3406,-4738,23,-344,-151,138
622,17294,0,-3406,-4738,23,-345,-150,136
623,17302,2,-3398,-4738,23,-344,-150,137
624,17292,4,-3380,-4739,23,-345,-149,139
625,17282,20,-3380,-4741,23,-346,-149,139
626,17282,22,-3392,-4738,23,-349,-149,138
627,17276,22,-3388,-4740,23,-347,-149,139
628,17284,18,-3398,-4740,23,-349,-151,138
629,17288,20,-3396,-4741,23,-349,-152,137
630,17292,12,-3404,-4741,23,-349,-151,137
631,17292,10,-3410,-4741,23,-346,-152,137
632,17292,10,-3402,-4740,23,-344,-150,136
633,17286,12,-3392,-4739,23,-345,-149,136
634,17292,8,-3382,-4738,23,-346,-149,137
635,17298,8,-3384,-4737,23,-345,-151,137
636,17284,10,-3394,-4737,23,-343,-151,136
637,17288,12,-3388,-4737,23,-345,-151,137
638,17296,0,-3382,-4736,23,-345,-149,138
639,17288,0,-3384,-4736,23,-345,-149,137
640,17288,8,-3396,-4736,23,-346,-149,137
641,17296,6,-3394,-4737,23,-348,-148,136
642,17292,10,-3402,-4736,23,-348,-147,136
643,17288,14,-3408,-4735,23,-348,-148,135
644,17282,18,-3402,-4735,23,-347,-151,134
645,17282,22,-3400,-4735,23,-346,-154,136
646,17280,24,-3406,-4734,23,-347,-150,138
647,17284,16,-3410,-4734,23,-348,-149,136
648,17284,2,-3400,-4735,23,-346,-148,140
649,17282,0,-3400,-4736,23,-344,-149,142
650,17276,14,-3404,-4736,23,-344,-148,142
651,17282,12,-3402,-4736,23,-345,-146,143
652,17288,4,-3418,-4738,23,-344,-147,142
653,17286,4,-3410,-4737,23,-343,-146,142
654,17272,4,-3406,-4735,23,-343,-144,142
655,17270,-2,-3402,-4734,23,-343,-143,138
656,17268,14,-3406,-4734,23,-341,-142,138
657,17264,10,-3408,-4736,23,-341,-145,136
658,17278,14,-3410,-4737,23,-339,-147,137
659,17286,12,-3418,-4737,23,-338,-149,138
660,17286,14,-3410,-4738,23,-339,-151,137
661,17288,20,-3408,-4737,23,-340,-150,136
662,17290,22,-3404,-4737,23,-341,-150,136
663,17290,22,-3418,-4738,23,-342,-150,137
664,17282,22,-3402,-4737,23,-343,-152,136
665,17274,20,-3396,-4739,23,-344,-151,138
666,17264,24,-3400,-4738,23,-345,-152,139
667,17268,26,-3422,-4736,23,-343,-151,138
668,17272,14,-3428,-4737,23,-344,-150,138
669,17276,6,-3416,-4737,23,-345,-152,139
670,17278,8,-3408,-4736,23,-345,-154,140
671,17264,8,-3398,-4737,23,-345,-153,141
672,17258,6,-3384,-4736,23,-345,-153,140
673,17272,10,-3386,-4736,23,-347,-154,142
674,17278,4,-3384,-4737,23,-345,-153,141
675,17274,8,-3394,-4737,23,-346,-151,138
676,17280,12,-3408,-4736,23,-347,-154,136
677,17282,16,-3412,-4737,23,-349,-155,136
678,17278,6,-3392,-4736,23,-349,-156,134
679,17268,6,-3388,-4736,23,-349,-153,133
680,17264,6,-3386,-4736,23,-349,-151,136
681,17264,10,-3392,-4735,23,-347,-151,138
682,17266,10,-3390,-4734,23,-347,-147,138
683,17270,4,-3390,-4733,23,-345,-148,138
684,17278,6,-3394,-4733,23,-344,-149,139
685,17278,10,-3412,-4733,23,-344,-149,139
686,17270,18,-3402,-4733,23,-345,-153,140
687,17280,20,-3406,-4732,23,-346,-153,138
688,17300,12,-3404,-4731,23,-343,-150,139
689,17292,10,-3404,-4731,23,-341,-150,140
690,17288,6,-3422,-4731,23,-343,-153,137
691,17284,10,-3424,-4732,23,-345,-153,139
692,17284,4,-3414,-4732,23,-346,-154,136
693,17286,-4,-3402,-4732,23,-345,-152,136
694,17276,6,-3404,-4732,23,-346,-153,137
695,17274,0,-3396,-4732,23,-345,-151,136
696,17274,8,-3394,-4731,23,-344,-149,136
697,17268,6,-3386,-4730,23,-344,-151,136
698,17272,18,-3392,-4729,23,-342,-151,136
699,17276,14,-3396,-4729,23,-343,-149,135
700,17282,20,-3406,-4731,23,-345,-151,134
701,17264,22,-3420,-4731,23,-346,-152,138
702,17266,16,-3410,-4732,23,-347,-153,138
703,17274,28,-3408,-4732,23,-345,-152,139
704,17278,20,-3392,-4735,23,-344,-152,138
705,17276,18,-3384,-4735,23,-345,-151,139
706,17282,14,-3380,-4734,23,-346,-151,139
707,17268,22,-3378,-4734,23,-347,-153,140
708,17264,26,-3396,-4734,23,-348,-153,138
709,17278,16,-3404,-4734,23,-347,-155,139
710,17282,8,-3402,-4734,23,-347,-152,140
711,17274,8,-3388,-4734,23,-347,-150,140
712,17276,6,-3392,-4735,23,-347,-149,138
713,17278,6,-3388,-4736,23,-347,-149,137
714,17270,10,-3388,-4735,23,-348,-151,137
715,17266,16,-3390,-4732,23,-346,-151,138
716,17264,16,-3400,-4732,23,-346,-151,135
717,17264,16,-3396,-4732,23,-346,-152,136
718,17262,22,-3394,-4732,23,-346,-153,140
719,17278,18,-3410,-4732,23,-346,-152,141
720,17266,24,-3418,-4731,23,-346,-153,141
721,17274,20,-3418,-4732,23,-345,-152,140
722,17272,18,-3404,-4732,23,-346,-152,140
723,17270,12,-3392,-4734,23,-347,-151,140
724,17266,12,-3400,-4735,23,-349,-148,139
725,17256,12,-3410,-4736,23,-349,-149,138
726,17266,8,-3406,-4735,23,-348,-150,136
727,17268,10,-3414,-4735,23,-347,-151,135
728,17262,16,-3408,-4735,23,-345,-151,136
729,17276,16,-3412,-4734,23,-344,-151,138
730,17278,24,-3402,-4733,23,-344,-153,137
731,17288,30,-3400,-4733,23,-343,-153,139
732,17288,28,-3398,-4734,23,-344,-155,138
733,17282,12,-3396,-4734,23,-345,-154,140
734,17286,6,-3396,-4734,23,-344,-157,138
735,17284,10,-3390,-4734,23,-345,-154,140
736,17280,6,-3408,-4735,23,-345,-154,138
737,17270,16,-3428,-4735,23,-346,-155,135
738,17272,28,-3424,-4734,23,-346,-154,137
739,17270,12,-3422,-4734,23,-345,-153,137
740,17278,18,-3382,-4731,23,-345,-148,137
741,17286,6,-3388,-4731,23,-342,-147,136
742,17288,10,-3372,-4732,23,-340,-148,138
743,17284,14,-3372,-4732,23,-343,-149,137
744,17284,24,-3388,-4733,23,-343,-151,137
745,17280,22,-3392,-4734,23,-343,-152,137
746,17276,18,-3388,-4734,23,-342,-151,140
747,17278,20,-3380,-4734,23,-343,-151,138
748,17272,26,-3404,-4733,23,-343,-152,138
749,17262,6,-3398,-4735,23,-345,-151,140
750,17266,12,-3418,-4734,23,-344,-149,139
751,17260,26,-3394,-4734,23,-344,-150,139
752,17266,26,-3390,-4735,23,-345,-152,136
753,17262,28,-3392,-4734,23,-343,-150,139
754,17258,16,-3386,-4734,23,-345,-149,139
755,17252,14,-3398,-4735,23,-345,-151,138
756,17268,12,-3410,-4736,23,-346,-151,138
757,17264,10,-3398,-4736,23,-345,-150,139
758,17270,12,-3406,-4736,23,-344,-152,136
759,17272,18,-3384,-4735,23,-345,-152,136
760,17266,22,-3376,-4734,23,-345,-153,140
761,17282,28,-3372,-4732,23,-347,-151,137
762,17276,32,-3376,-4734,23,-343,-150,140
763,17274,32,-3364,-4735,23,-346,-149,138
764,17282,26,-3376,-4735,23,-343,-152,138
765,17280,18,-3384,-4734,23,-341,-153,139
766,17268,16,-3406,-4733,23,-342,-155,140
767,17276,20,-3402,-4733,23,-344,-155,137
768,17278,24,-3414,-4732,23,-344,-151,138
769,17268,16,-3414,-4734,23,-344,-153,137
770,17270,20,-3416,-4735,23,-344,-152,137
771,17280,10,-3418,-4734,23,-345,-152,137
772,17286,6,-3410,-4735,23,-345,-153,137
773,17280,2,-3394,-4735,23,-345,-148,138
774,17290,10,-3400,-4734,23,-343,-151,138
775,17286,12,-3410,-4733,23,-342,-147,139
776,17286,22,-3418,-4733,23,-343,-148,138
777,17276,22,-3402,-4733,23,-342,-152,139
778,17274,14,-3394,-4733,23,-346,-150,140
779,17282,14,-3392,-4734,23,-347,-151,141
780,17268,12,-3384,-4735,23,-346,-150,142
781,17264,4,-3384,-4733,23,-345,-149,140
782,17278,8,-3378,-4733,23,-346,-147,140
783,17266,14,-3384,-4732,23,-346,-147,141
784,17264,16,-3404,-4732,23,-343,-150,140
785,17286,10,-3426,-4731,23,-344,-150,139
786,17264,-2,-3424,-4730,23,-343,-150,141
787,17282,-2,-3432,-4732,23,-341,-150,141
788,17288,2,-3412,-4731,23,-342,-151,142
789,17274,-10,-3384,-4733,23,-345,-152,141
790,17274,-6,-3384,-4732,23,-343,-154,138
791,17276,-2,-3388,-4732,23,-344,-155,139
792,17272,16,-3382,-4733,23,-344,-152,141
793,17274,14,-3370,-4731,23,-342,-152,140
794,17290,10,-3384,-4732,23,-342,-150,140
795,17272,4,-3376,-4734,23,-343,-149,142
796,17278,10,-3384,-4733,23,-345,-150,141
797,17300,14,-3396,-4732,23,-345,-150,140
798,17284,12,-3402,-4733,23,-345,-150,139
799,17282,6,-3398,-4733,23,-344,-153,140
800,17282,12,-3392,-4732,23,-343,-152,139
801,17274,8,-3390,-4732,23,-343,-152,139
802,17280,-2,-3384,-4734,23,-342,-151,139
803,17298,-4,-3390,-4732,23,-344,-151,139
804,17282,-4,-3388,-4732,23,-344,-148,140
805,17270,-10,-3408,-4730,23,-343,-151,140
806,17280,-2,-3404,-4731,23,-345,-154,139
807,17272,8,-3402,-4733,23,-347,-149,140
808,17266,-8,-3398,-4731,23,-347,-149,140
809,17276,-2,-3406,-4730,23,-347,-149,141
810,17270,2,-3406,-4730,23,-346,-149,142
811,17264,0,-3398,-4732,23,-346,-148,143
812,17278,4,-3414,-4732,23,-343,-148,140
813,17278,10,-3400,-4729,23,-342,-151,137
814,17284,4,-3398,-4729,23,-343,-151,137
815,17296,2,-3404,-4732,23,-344,-152,136
816,17286,-6,-3400,-4731,23,-345,-153,135
817,17296,12,-3398,-4734,23,-345,-153,135
818,17290,18,-3398,-4732,23,-345,-155,135
819,17280,18,-3396,-4732,23,-344,-153,134
820,17278,8,-3402,-4731,23,-344,-154,139
821,17278,12,-3400,-4731,23,-346,-155,139
822,17272,12,-3396,-4732,23,-346,-154,139
823,17278,4,-3394,-4733,23,-345,-155,141
824,17266,8,-3402,-4731,23,-345,-155,143
825,17264,10,-3410,-4730,23,-348,-153,144
826,17278,14,-3412,-4729,23,-347,-151,144
827,17282,18,-3400,-4729,23,-344,-153,139
828,17260,22,-3400,-4730,23,-343,-153,141
829,17284,26,-3402,-4731,23,-345,-153,140
830,17280,22,-3398,-4732,23,-343,-153,141
831,17270,18,-3384,-4733,23,-343,-150,141
832,17284,18,-3408,-4733,23,-343,-152,139
833,17270,22,-3394,-4733,23,-344,-153,137
834,17264,24,-3398,-4734,23,-345,-151,135
835,17278,30,-3394,-4733,23,-344,-152,137
836,17286,30,-3394,-4733,23,-345,-153,138
837,17294,18,-3386,-4734,23,-348,-152,140
838,17292,12,-3404,-4734,23,-347,-152,140
839,17284,14,-3412,-4734,23,-346,-152,140
840,17276,-2,-3428,-4733,23,-346,-154,139
841,17280,2,-3412,-4733,23,-346,-156,139
842,17276,8,-3412,-4733,23,-346,-153,139
843,17288,2,-3408,-4735,23,-347,-153,139
844,17298,-4,-3400,-4733,23,-347,-153,139
845,17286,-2,-3396,-4733,23,-348,-152,143
846,17276,2,-3398,-4732,23,-347,-151,141
847,17276,0,-3382,-4733,23,-346,-150,142
848,17278,-2,-3396,-4731,23,-346,-151,142
849,17272,8,-3392,-4731,23,-346,-154,141
850,17268,16,-3378,-4732,23,-347,-152,140
851,17272,10,-3380,-4732,23,-346,-151,139
852,17268,10,-3390,-4733,23,-346,-147,142
853,17274,6,-3386,-4733,23,-347,-150,141
854,17268,8,-3388,-4734,23,-347,-148,142
855,17256,4,-3380,-4734,23,-345,-149,141
856,17260,2,-3386,-4735,23,-345,-152,142
857,17268,0,-3372,-4733,23,-347,-151,140
858,17276,-6,-3386,-4732,23,-347,-151,140
859,17280,0,-3400,-4732,23,-344,-152,139
860,17284,4,-3398,-4732,23,-344,-152,139
861,17290,2,-3388,-4732,23,-344,-151,138
862,17288,10,-3384,-4732,23,-343,-149,138
863,17286,16,-3408,-4733,23,-342,-147,137
864,17288,14,-3404,-4734,23,-342,-148,137
865,17294,14,-3400,-4734,23,-343,-148,137
866,17290,10,-3398,-4733,23,-344,-150,137
867,17292,8,-3390,-4733,23,-343,-152,138
868,17288,18,-3396,-4731,23,-342,-153,139
869,17280,14,-3396,-4730,23,-340,-154,139
870,17286,8,-3414,-4730,23,-342,-153,138
871,17284,10,-3408,-4729,23,-343,-154,139
872,17278,0,-3400,-4729,23,-343,-154,137
873,17286,8,-3388,-4730,23,-344,-153,138
874,17286,14,-3394,-4732,23,-344,-153,137
875,17294,24,-3388,-4732,23,-343,-152,136
876,17284,20,-3398,-4734,23,-345,-154,136
877,17272,18,-3392,-4730,23,-344,-155,135
878,17272,18,-3396,-4731,23,-344,-154,137
879,17266,18,-3404,-4730,23,-345,-154,137
880,17272,6,-3418,-4729,23,-345,-155,140
881,17274,2,-3420,-4730,23,-344,-154,140
882,17286,0,-3428,-4731,23,-342,-155,140
883,17282,8,-3406,-4732,23,-342,-155,142
884,17280,10,-3400,-4731,23,-343,-154,141
885,17276,14,-3404,-4732,23,-342,-154,137
886,17286,22,-3400,-4733,23,-342,-153,139
887,17280,14,-3394,-4731,23,-341,-152,141
888,17274,16,-3390,-4732,23,-345,-150,140
889,17278,10,-3400,-4731,23,-344,-151,141
890,17276,2,-3402,-4730,23,-347,-152,140
891,17280,-8,-3396,-4730,23,-345,-154,138
892,17270,-12,-3406,-4731,23,-345,-152,140
893,17266,-4,-3394,-4731,23,-346,-154,139
894,17280,4,-3402,-4731,23,-346,-157,139
895,17282,-6,-3402,-4731,23,-347,-154,141
896,17276,-10,-3402,-4731,23,-345,-155,140
897,17274,-6,-3394,-4733,23,-347,-154,139
898,17278,-2,-3404,-4733,23,-345,-153,139
899,17276,-2,-3412,-4733,23,-346,-154,139
900,17288,2,-3412,-4735,23,-346,-156,141
901,17298,6,-3398,-4735,23,-346,-157,140
902,17288,0,-3404,-4733,23,-347,-154,141
903,17288,-10,-3402,-4732,23,-345,-153,140
904,17292,-14,-3410,-4732,23,-343,-153,140
905,17278,-20,-3408,-4732,23,-346,-153,139
906,17280,-16,-3412,-4732,23,-346,-152,140
907,17276,-10,-3410,-4731,23,-347,-154,140
908,17276,-14,-3408,-4731,23,-347,-155,141
909,17270,0,-3402,-4730,23,-348,-152,140
910,17270,4,-3406,-4731,23,-349,-151,139
911,17274,-2,-3410,-4729,23,-348,-153,140
912,17272,-6,-3412,-4729,23,-348,-155,141
913,17282,-2,-3416,-4729,23,-347,-151,142
914,17284,-4,-3406,-4730,23,-345,-152,143
915,17286,-2,-3394,-4730,23,-345,-154,142
916,17280,14,-3380,-4729,23,-347,-154,140
917,17284,16,-3376,-4728,23,-345,-154,140
918,17274,26,-3372,-4729,23,-346,-153,138
919,17270,28,-3376,-4730,23,-345,-152,140
920,17274,18,-3400,-4731,23,-346,-152,141
921,17272,20,-3384,-4733,23,-347,-150,141
922,17270,16,-3390,-4733,23,-348,-152,140
923,17272,14,-3396,-4731,23,-347,-152,140
924,17258,14,-3390,-4731,23,-348,-154,139
925,17260,2,-3404,-4731,23,-346,-152,140
926,17256,-4,-3416,-4730,23,-345,-150,142
927,17256,-4,-3406,-4730,23,-348,-148,138
928,17258,4,-3398,-4730,23,-346,-149,137
929,17268,4,-3394,-4731,23,-347,-147,135
930,17268,12,-3406,-4733,23,-347,-146,137
931,17268,10,-3408,-4733,23,-346,-148,136
932,17270,6,-3414,-4733,23,-347,-148,136
933,17276,8,-3398,-4733,23,-349,-149,136
934,17290,6,-3392,-4732,23,-345,-150,136
935,17290,10,-3412,-4732,23,-345,-151,136
936,17278,8,-3414,-4733,23,-345,-147,137
937,17286,6,-3406,-4731,23,-344,-149,137
938,17276,18,-3404,-4732,23,-346,-152,136
939,17266,18,-3416,-4731,23,-346,-151,138
940,17270,12,-3428,-4732,23,-345,-148,139
941,17288,12,-3404,-4733,23,-346,-147,139
942,17286,12,-3410,-4732,23,-346,-147,137
943,17278,6,-3410,-4732,23,-347,-147,139
944,17284,0,-3408,-4733,23,-346,-146,138
945,17272,6,-3388,-4733,23,-345,-148,139
946,17266,10,-3384,-4733,23,-346,-146,141
947,17270,6,-3378,-4733,23,-345,-146,141
948,17258,0,-3372,-4732,23,-346,-148,142
949,17264,0,-3386,-4731,23,-346,-151,140
950,17270,8,-3380,-4732,23,-342,-152,141
951,17284,-2,-3392,-4733,23,-343,-151,141
952,17296,0,-3398,-4732,23,-347,-154,139
953,17296,6,-3402,-4731,23,-345,-152,139
954,17286,4,-3392,-4732,23,-344,-153,138
955,17292,4,-3388,-4730,23,-344,-153,139
956,17286,8,-3394,-4730,23,-344,-154,137
957,17282,4,-3392,-4730,23,-344,-150,138
958,17284,-2,-3390,-4731,23,-344,-152,136
959,17284,10,-3406,-4730,23,-342,-152,136
960,17292,12,-3398,-4731,23,-344,-152,138
961,17298,26,-3390,-4732,23,-346,-151,138
962,17296,36,-3408,-4731,23,-344,-154,137
963,17298,32,-3408,-4730,23,-345,-151,139
964,17294,30,-3396,-4731,23,-343,-153,136
965,17292,22,-3398,-4731,23,-345,-151,137
966,17284,14,-3386,-4731,23,-344,-151,139
967,17284,22,-3392,-4731,23,-343,-152,138
968,17268,26,-3398,-4730,23,-343,-151,138
969,17260,28,-3390,-4732,23,-344,-150,138
970,17258,30,-3396,-4732,23,-344,-151,138
971,17272,32,-3394,-4732,23,-343,-151,141
972,17266,18,-3394,-4733,23,-344,-153,140
973,17268,8,-3386,-4732,23,-344,-152,139
974,17274,0,-3388,-4734,23,-345,-151,139
975,17268,6,-3388,-4733,23,-346,-149,138
976,17274,2,-3384,-4734,23,-347,-150,139
977,17280,-2,-3382,-4733,23,-347,-152,137
978,17278,-6,-3394,-4733,23,-346,-152,138
979,17278,-2,-3392,-4731,23,-347,-152,136
980,17288,12,-3408,-4732,23,-346,-152,135
981,17292,6,-3396,-4735,23,-347,-151,134
982,17286,-8,-3394,-4734,23,-346,-152,136
983,17282,-6,-3400,-4732,23,-344,-152,138
984,17276,0,-3400,-4732,23,-345,-153,139
985,17290,0,-3396,-4731,23,-344,-154,138
986,17288,-10,-3396,-4730,23,-344,-153,138
987,17280,-4,-3404,-4732,23,-343,-154,137
988,17290,4,-3406,-4733,23,-345,-155,135
989,17292,10,-3394,-4732,23,-347,-154,134
990,17286,16,-3396,-4732,23,-347,-152,137
991,17284,0,-3388,-4732,23,-347,-151,137
992,17270,6,-3378,-4732,23,-348,-151,136
993,17268,6,-3378,-4731,23,-349,-153,139
994,17262,16,-3386,-4732,23,-346,-155,141
995,17268,16,-3398,-4733,23,-346,-157,140
996,17264,12,-3404,-4732,23,-348,-158,140
997,17268,14,-3408,-4730,23,-349,-158,141
998,17266,14,-3420,-4728,23,-349,-155,142
