,acc_X,acc_Y,acc_Z,temp,tempC,gyr_X,gyr_Y,gyr_Z
0,2156,3,-428,-4685,23,-87,-38,35
1,2156,2,-429,-4684,23,-88,-38,35
2,2157,1,-428,-4685,23,-88,-38,35
3,2158,1,-427,-4683,23,-87,-38,35
4,2158,2,-426,-4681,23,-87,-38,35
5,2159,3,-426,-4680,23,-87,-39,35
6,2159,3,-427,-4681,23,-87,-39,35
7,2159,2,-429,-4682,23,-86,-39,36
8,2160,3,-426,-4683,23,-86,-39,35
9,2160,3,-427,-4683,23,-87,-38,35
10,2161,3,-427,-4684,23,-87,-38,35
11,2160,3,-427,-4686,23,-86,-38,34
12,2159,2,-427,-4685,23,-87,-38,34
13,2158,3,-426,-4685,23,-87,-38,34
14,2158,3,-427,-4683,23,-87,-38,34
15,2158,3,-428,-4682,23,-87,-38,34
16,2157,3,-428,-4684,23,-87,-38,34
17,2157,2,-428,-4684,23,-86,-38,34
18,2158,1,-428,-4682,23,-86,-38,35
19,2157,2,-429,-4682,23,-87,-38,34
20,2158,2,-431,-4684,23,-87,-39,34
21,2159,3,-429,-4684,23,-86,-39,34
22,2159,2,-431,-4685,23,-86,-38,34
23,2159,0,-429,-4683,23,-86,-38,34
24,2159,0,-431,-4682,23,-86,-38,34
25,2160,1,-433,-4681,23,-85,-38,34
26,2159,1,-433,-4681,23,-87,-39,34
27,2160,1,-432,-4682,23,-87,-38,34
28,2159,1,-432,-4682,23,-87,-38,34
29,2159,2,-432,-4681,23,-87,-38,34
30,2158,1,-431,-4682,23,-87,-38,34
31,2159,1,-429,-4682,23,-87,-39,35
32,2160,0,-428,-4682,23,-86,-39,34
33,2160,0,-428,-4680,23,-87,-39,35
34,2160,1,-427,-4681,23,-87,-39,34
35,2160,1,-429,-4681,23,-86,-39,35
36,2159,0,-429,-4682,23,-86,-39,35
37,2160,0,-429,-4682,23,-86,-38,35
38,2160,1,-426,-4682,23,-87,-38,35
39,2160,1,-428,-4683,23,-87,-38,35
40,2159,0,-430,-4682,23,-87,-39,35
41,2160,0,-430,-4682,23,-87,-38,35
42,2159,0,-432,-4683,23,-87,-38,35
43,2159,0,-430,-4683,23,-87,-38,34
44,2158,0,-430,-4682,23,-87,-38,34
45,2158,-1,-430,-4682,23,-87,-39,34
46,2157,0,-430,-4681,23,-87,-39,35
47,2159,1,-431,-4681,23,-87,-39,35
48,2160,1,-432,-4683,23,-86,-39,35
49,2160,0,-431,-4683,23,-86,-39,35
50,2160,0,-430,-4682,23,-86,-38,35
51,2161,0,-429,-4682,23,-87,-39,35
52,2161,0,-426,-4682,23,-87,-39,35
53,2161,0,-429,-4682,23,-88,-39,35
54,2161,0,-430,-4683,23,-88,-39,35
55,2160,1,-427,-4681,23,-88,-39,35
56,2160,1,-427,-4681,23,-88,-39,35
57,2160,3,-425,-4680,23,-88,-40,35
58,2159,2,-427,-4681,23,-87,-40,35
59,2159,3,-427,-4682,23,-88,-39,35
60,2159,2,-427,-4682,23,-87,-39,35
61,2159,3,-426,-4682,23,-87,-39,35
62,2159,1,-427,-4682,23,-87,-39,35
63,2160,2,-428,-4681,23,-87,-39,34
64,2159,2,-428,-4681,23,-87,-39,34
65,2159,1,-429,-4681,23,-87,-39,34
66,2159,1,-429,-4681,23,-87,-39,34
67,2158,0,-428,-4682,23,-88,-39,34
68,2158,0,-428,-4683,23,-87,-39,35
69,2158,0,-428,-4684,23,-87,-38,35
70,2159,1,-427,-4684,23,-87,-39,35
71,2157,2,-425,-4683,23,-87,-38,35
72,2158,2,-427,-4681,23,-87,-38,35
73,2158,3,-429,-4681,23,-87,-38,35
74,2159,3,-429,-4681,23,-87,-38,35
75,2160,3,-430,-4682,23,-87,-38,34
76,2159,3,-429,-4683,23,-87,-38,34
77,2160,3,-428,-4684,23,-87,-37,34
78,2161,3,-429,-4682,23,-87,-38,34
79,2161,3,-428,-4681,23,-87,-38,35
80,2160,4,-429,-4681,23,-87,-38,35
81,2161,4,-428,-4680,23,-86,-37,34
82,2159,3,-428,-4681,23,-87,-38,34
83,2159,4,-429,-4682,23,-87,-37,34
84,2159,3,-428,-4684,23,-87,-37,34
85,2158,3,-428,-4682,23,-87,-37,35
86,2159,2,-429,-4682,23,-87,-37,34
87,2159,1,-429,-4683,23,-87,-38,35
88,2160,2,-430,-4683,23,-87,-37,35
89,2160,3,-428,-4682,23,-86,-38,35
90,2159,3,-426,-4683,23,-87,-38,35
91,2158,2,-427,-4685,23,-87,-38,35
92,2158,2,-428,-4683,23,-87,-38,35
93,2157,1,-428,-4684,23,-87,-38,35
94,2157,0,-428,-4683,23,-87,-38,35
95,2158,1,-429,-4682,23,-86,-39,35
96,2158,-1,-427,-4683,23,-86,-38,35
97,2159,0,-428,-4682,23,-86,-39,35
98,2159,2,-427,-4683,23,-86,-38,35
99,2159,2,-428,-4683,23,-86,-38,34
100,2157,1,-428,-4683,23,-86,-39,35
101,2158,1,-429,-4683,23,-86,-39,35
102,2158,1,-429,-4683,23,-86,-39,35
103,2159,1,-427,-4683,23,-86,-38,35
104,2158,1,-429,-4682,23,-86,-38,35
105,2158,2,-430,-4683,23,-86,-38,35
106,2158,1,-429,-4683,23,-86,-38,34
107,2159,3,-428,-4684,23,-86,-39,34
108,2158,2,-427,-4683,23,-86,-39,34
109,2158,2,-426,-4681,23,-86,-38,35
110,2158,2,-429,-4682,23,-86,-39,35
111,2159,2,-430,-4682,23,-87,-38,35
112,2157,1,-430,-4680,23,-87,-38,34
113,2157,1,-429,-4681,23,-87,-37,34
114,2157,1,-429,-4679,23,-87,-37,34
115,2157,2,-429,-4681,23,-88,-38,34
116,2158,1,-428,-4680,23,-87,-37,35
117,2158,1,-428,-4679,23,-87,-37,35
118,2159,2,-428,-4682,23,-87,-38,35
119,2160,2,-427,-4682,23,-87,-38,35
120,2161,3,-427,-4682,23,-87,-38,35
121,2161,2,-426,-4683,23,-87,-38,35
122,2161,1,-425,-4682,23,-87,-38,35
123,2161,1,-426,-4681,23,-87,-39,35
124,2161,1,-425,-4682,23,-87,-39,35
125,2162,2,-426,-4683,23,-87,-38,35
126,2160,2,-427,-4684,23,-86,-39,35
127,2159,1,-426,-4683,23,-86,-39,35
128,2159,2,-425,-4683,23,-86,-39,35
129,2159,2,-425,-4682,23,-86,-38,34
130,2159,2,-427,-4683,23,-86,-38,34
131,2158,2,-427,-4682,23,-86,-38,34
132,2159,2,-428,-4680,23,-86,-39,35
133,2159,2,-427,-4680,23,-86,-39,35
134,2159,1,-428,-4681,23,-86,-39,34
135,2159,0,-428,-4681,23,-87,-39,34
136,2160,1,-429,-4683,23,-87,-39,34
137,2160,1,-427,-4684,23,-87,-38,35
138,2159,1,-430,-4684,23,-87,-38,35
139,2159,0,-432,-4683,23,-87,-38,35
140,2159,0,-433,-4683,23,-87,-38,35
141,2159,0,-432,-4683,23,-88,-38,34
142,2158,0,-430,-4683,23,-88,-38,35
143,2157,0,-428,-4682,23,-88,-38,35
144,2159,0,-428,-4681,23,-88,-39,34
145,2159,0,-429,-4681,23,-88,-39,34
146,2158,2,-428,-4680,23,-88,-39,35
147,2157,3,-428,-4681,23,-88,-39,34
148,2157,3,-428,-4681,23,-88,-39,34
149,2156,2,-427,-4678,23,-88,-38,34
150,2155,1,-427,-4680,23,-87,-38,34
151,2156,2,-425,-4680,23,-87,-38,34
152,2158,3,-425,-4679,23,-87,-38,35
153,2158,3,-425,-4680,23,-87,-38,35
154,2159,3,-425,-4680,23,-87,-39,34
155,2158,3,-426,-4679,23,-87,-39,34
156,2157,1,-426,-4679,23,-87,-39,34
157,2157,1,-427,-4680,23,-87,-39,34
158,2158,2,-427,-4680,23,-87,-39,35
159,2158,3,-429,-4680,23,-88,-39,35
160,2158,2,-428,-4679,23,-88,-39,35
161,2158,2,-429,-4679,23,-87,-39,35
162,2159,2,-427,-4680,23,-87,-38,35
163,2159,2,-426,-4680,23,-87,-38,35
164,2159,3,-425,-4681,23,-87,-38,34
165,2159,3,-426,-4680,23,-87,-38,35
166,2158,3,-424,-4680,23,-87,-38,34
167,2158,4,-425,-4680,23,-87,-38,35
168,2158,3,-426,-4680,23,-87,-38,34
169,2158,3,-427,-4682,23,-87,-38,35
170,2158,2,-427,-4682,23,-87,-38,36
171,2158,3,-427,-4683,23,-87,-38,36
172,2158,2,-426,-4683,23,-87,-37,35
173,2159,0,-427,-4682,23,-87,-38,35
174,2159,1,-426,-4682,23,-87,-38,35
175,2157,0,-426,-4681,23,-87,-38,35
176,2158,0,-428,-4682,23,-87,-38,35
177,2158,2,-430,-4683,23,-87,-39,35
178,2158,2,-430,-4682,23,-87,-38,35
179,2158,2,-430,-4685,23,-87,-38,35
180,2159,1,-429,-4685,23,-86,-38,35
181,2159,1,-428,-4684,23,-86,-38,35
182,2159,1,-430,-4683,23,-86,-38,35
183,2158,0,-429,-4682,23,-86,-38,35
184,2157,1,-427,-4682,23,-86,-38,35
185,2158,0,-427,-4681,23,-86,-38,35
186,2158,1,-429,-4682,23,-87,-38,34
187,2157,0,-429,-4683,23,-87,-39,35
188,2157,0,-430,-4682,23,-86,-39,34
189,2156,0,-430,-4681,23,-87,-38,34
190,2157,-1,-428,-4682,23,-87,-38,34
191,2158,-1,-428,-4681,23,-87,-38,34
192,2158,1,-428,-4681,23,-87,-38,34
193,2158,1,-429,-4681,23,-87,-38,34
194,2158,0,-430,-4682,23,-87,-38,35
195,2158,-1,-428,-4683,23,-87,-38,35
196,2159,-1,-429,-4681,23,-87,-39,35
197,2158,0,-429,-4681,23,-87,-39,35
198,2159,-2,-427,-4679,23,-87,-39,34
199,2159,0,-427,-4680,23,-86,-38,34
200,2158,0,-427,-4680,23,-87,-39,34
201,2158,0,-428,-4681,23,-87,-39,35
202,2158,0,-427,-4680,23,-87,-39,35
203,2157,1,-427,-4681,23,-87,-39,35
204,2156,2,-427,-4681,23,-86,-38,35
205,2156,3,-427,-4680,23,-86,-38,35
206,2157,3,-429,-4679,23,-86,-38,34
207,2158,3,-428,-4677,23,-86,-37,34
208,2157,2,-429,-4679,23,-86,-37,34
209,2158,2,-430,-4678,23,-86,-37,34
210,2159,3,-429,-4679,23,-86,-38,34
211,2159,2,-427,-4677,23,-86,-38,34
212,2160,2,-427,-4679,23,-87,-39,35
213,2158,3,-428,-4679,23,-87,-39,35
214,2158,2,-428,-4679,23,-87,-39,35
215,2159,3,-425,-4679,23,-87,-39,35
216,2159,3,-427,-4679,23,-87,-39,35
217,2159,3,-427,-4679,23,-87,-39,35
218,2159,3,-428,-4679,23,-86,-39,35
219,2158,3,-428,-4680,23,-86,-38,35
220,2159,1,-430,-4680,23,-87,-38,35
221,2158,2,-430,-4680,23,-86,-39,35
222,2158,3,-430,-4681,23,-86,-39,35
223,2158,0,-429,-4681,23,-86,-38,35
224,2158,2,-428,-4680,23,-87,-39,35
225,2158,2,-427,-4680,23,-86,-39,35
226,2159,1,-429,-4680,23,-86,-39,35
227,2159,1,-429,-4680,23,-86,-39,35
228,2158,0,-429,-4679,23,-87,-39,35
229,2158,0,-430,-4679,23,-86,-38,35
230,2158,2,-429,-4679,23,-86,-38,35
231,2159,1,-429,-4679,23,-87,-39,35
232,2160,2,-429,-4678,23,-86,-38,35
233,2159,1,-430,-4679,23,-86,-39,35
234,2160,1,-430,-4679,23,-86,-39,35
235,2160,1,-428,-4678,23,-87,-38,35
236,2162,0,-428,-4678,23,-86,-39,34
237,2162,0,-428,-4680,23,-86,-39,34
238,2160,0,-428,-4683,23,-87,-39,34
239,2159,1,-429,-4683,23,-86,-38,34
240,2158,0,-429,-4683,23,-86,-38,34
241,2159,1,-430,-4682,23,-86,-39,33
242,2159,1,-432,-4681,23,-86,-39,34
243,2159,1,-433,-4681,23,-86,-39,34
244,2157,3,-433,-4681,23,-87,-39,34
245,2158,3,-433,-4681,23,-86,-38,34
246,2158,3,-430,-4683,23,-86,-38,34
247,2159,3,-430,-4682,23,-86,-37,34
248,2159,4,-431,-4682,23,-86,-38,34
249,2158,3,-433,-4683,23,-86,-37,34
250,2159,3,-431,-4684,23,-86,-37,34
251,2159,3,-429,-4683,23,-86,-37,34
252,2158,3,-429,-4681,23,-87,-37,35
253,2157,2,-430,-4680,23,-87,-37,34
254,2158,2,-431,-4680,23,-87,-38,34
255,2158,2,-431,-4679,23,-87,-39,35
256,2160,3,-432,-4678,23,-86,-39,35
257,2161,2,-431,-4677,23,-86,-38,35
258,2162,1,-431,-4678,23,-86,-39,35
259,2161,-1,-432,-4678,23,-87,-38,34
260,2159,1,-432,-4677,23,-86,-38,35
261,2159,1,-433,-4679,23,-87,-38,35
262,2160,0,-432,-4681,23,-87,-38,35
263,2160,2,-431,-4683,23,-88,-38,35
264,2160,1,-431,-4683,23,-87,-38,34
265,2160,1,-430,-4682,23,-88,-38,34
266,2159,1,-431,-4680,23,-87,-38,35
267,2159,1,-430,-4680,23,-87,-37,34
268,2158,1,-430,-4680,23,-87,-38,34
269,2159,1,-428,-4680,23,-86,-38,34
270,2159,1,-430,-4680,23,-86,-37,34
271,2158,0,-430,-4681,23,-86,-37,33
272,2159,0,-427,-4681,23,-86,-37,33
273,2159,1,-426,-4682,23,-86,-38,33
274,2160,2,-425,-4681,23,-87,-38,34
275,2159,2,-426,-4680,23,-87,-39,34
276,2158,0,-428,-4680,23,-88,-39,33
277,2158,0,-428,-4678,23,-88,-38,34
278,2158,1,-428,-4680,23,-88,-39,34
279,2158,1,-427,-4679,23,-88,-39,34
280,2157,0,-428,-4681,23,-87,-40,34
281,2158,1,-426,-4681,23,-87,-39,34
282,2158,0,-427,-4681,23,-87,-39,34
283,2158,-1,-425,-4681,23,-87,-38,34
284,2158,0,-428,-4681,23,-87,-38,35
285,2160,1,-428,-4680,23,-87,-37,34
286,2160,1,-428,-4679,23,-87,-37,34
287,2159,1,-428,-4679,23,-87,-37,35
288,2159,1,-427,-4680,23,-87,-38,34
289,2160,0,-429,-4679,23,-87,-39,34
290,2159,0,-429,-4680,23,-87,-39,34
291,2158,0,-429,-4682,23,-87,-39,34
292,2159,0,-428,-4681,23,-87,-39,34
293,2159,0,-429,-4683,23,-86,-38,35
294,2158,1,-428,-4684,23,-87,-38,35
295,2159,2,-428,-4683,23,-86,-38,35
296,2159,2,-430,-4683,23,-87,-37,35
297,2158,1,-429,-4681,23,-87,-38,34
298,2159,0,-428,-4680,23,-87,-38,34
299,2157,0,-428,-4680,23,-87,-39,34
300,2158,0,-428,-4680,23,-86,-39,34
301,2159,1,-427,-4678,23,-86,-39,34
302,2159,1,-428,-4680,23,-87,-39,35
303,2159,1,-428,-4681,23,-87,-39,34
304,2159,1,-429,-4682,23,-87,-38,34
305,2159,0,-429,-4680,23,-87,-39,35
306,2158,1,-429,-4681,23,-87,-39,35
307,2157,1,-428,-4682,23,-87,-39,35
308,2158,1,-428,-4684,23,-87,-38,35
309,2158,1,-428,-4684,23,-87,-38,35
310,2157,0,-428,-4684,23,-86,-39,35
311,2156,1,-427,-4684,23,-86,-38,35
312,2157,1,-429,-4685,23,-86,-37,35
313,2158,2,-427,-4684,23,-86,-38,35
314,2157,1,-429,-4683,23,-87,-38,35
315,2156,2,-429,-4682,23,-87,-38,35
316,2156,2,-430,-4682,23,-87,-38,35
317,2158,3,-430,-4681,23,-86,-37,35
318,2157,3,-429,-4682,23,-87,-38,35
319,2157,2,-429,-4682,23,-87,-39,35
320,2157,1,-429,-4681,23,-87,-38,35
321,2158,0,-428,-4680,23,-87,-38,35
322,2158,0,-429,-4680,23,-87,-38,34
323,2159,1,-429,-4681,23,-87,-39,34
324,2158,1,-429,-4681,23,-87,-39,35
325,2158,2,-429,-4681,23,-87,-39,35
326,2159,1,-428,-4681,23,-87,-39,35
327,2159,2,-428,-4680,23,-86,-39,35
328,2159,1,-428,-4681,23,-87,-38,35
329,2160,0,-428,-4681,23,-87,-38,34
330,2159,1,-428,-4681,23,-87,-37,34
331,2158,1,-430,-4681,23,-88,-37,34
332,2158,2,-430,-4680,23,-87,-38,35
333,2158,1,-429,-4680,23,-87,-38,34
334,2158,1,-429,-4681,23,-87,-38,34
335,2158,2,-430,-4680,23,-86,-39,35
336,2158,2,-430,-4681,23,-86,-38,35
337,2158,1,-428,-4683,23,-86,-39,36
338,2158,3,-428,-4683,23,-86,-38,36
339,2159,4,-427,-4681,23,-86,-38,35
340,2159,3,-428,-4680,23,-86,-38,35
341,2158,2,-429,-4679,23,-87,-37,35
342,2159,2,-430,-4679,23,-87,-37,35
343,2159,2,-430,-4679,23,-87,-37,35
344,2159,2,-431,-4680,23,-87,-38,35
345,2159,3,-429,-4680,23,-87,-38,35
346,2160,2,-429,-4680,23,-87,-38,35
347,2160,3,-431,-4681,23,-87,-38,35
348,2158,3,-430,-4679,23,-87,-39,35
349,2159,2,-429,-4679,23,-87,-39,35
350,2159,1,-428,-4678,23,-87,-39,35
351,2158,1,-428,-4677,23,-87,-39,35
352,2159,2,-428,-4677,23,-87,-39,35
353,2159,2,-428,-4677,23,-87,-38,34
354,2159,1,-426,-4676,23,-86,-38,35
355,2159,0,-427,-4678,23,-86,-38,35
356,2158,1,-429,-4678,23,-87,-38,34
357,2158,1,-430,-4679,23,-86,-39,34
358,2157,1,-430,-4680,23,-86,-39,34
359,2158,1,-429,-4680,23,-87,-39,35
360,2158,1,-428,-4681,23,-87,-39,35
361,2159,0,-428,-4681,23,-87,-38,35
362,2158,2,-428,-4680,23,-87,-38,35
363,2158,2,-427,-4681,23,-87,-38,35
364,2158,2,-428,-4680,23,-87,-37,35
365,2158,2,-428,-4679,23,-87,-38,34
366,2157,2,-429,-4680,23,-87,-38,34
367,2159,2,-427,-4678,23,-87,-38,35
368,2159,2,-428,-4677,23,-87,-39,35
369,2160,3,-428,-4676,23,-87,-39,35
370,2160,3,-429,-4676,23,-87,-39,34
371,2158,3,-429,-4678,23,-88,-39,34
372,2158,1,-427,-4678,23,-87,-39,34
373,2158,2,-427,-4678,23,-87,-38,35
374,2159,1,-427,-4678,23,-87,-38,35
375,2160,0,-427,-4678,23,-87,-38,35
376,2161,0,-427,-4678,23,-87,-37,35
377,2161,1,-429,-4679,23,-87,-38,35
378,2161,2,-428,-4679,23,-87,-38,35
379,2161,0,-428,-4679,23,-87,-37,35
380,2160,1,-428,-4678,23,-87,-37,35
381,2160,0,-427,-4679,23,-87,-37,35
382,2159,0,-427,-4679,23,-87,-37,34
383,2159,0,-430,-4678,23,-87,-37,34
384,2160,0,-429,-4678,23,-87,-37,34
385,2160,1,-429,-4678,23,-87,-38,35
386,2159,1,-427,-4680,23,-87,-38,35
387,2161,-1,-430,-4682,23,-87,-38,35
388,2160,0,-429,-4681,23,-87,-38,35
389,2160,0,-428,-4682,23,-87,-38,34
390,2160,1,-429,-4682,23,-87,-38,35
391,2159,0,-430,-4682,23,-87,-38,35
392,2159,0,-429,-4681,23,-87,-39,35
393,2159,1,-428,-4681,23,-87,-38,34
394,2159,1,-426,-4681,23,-87,-38,34
395,2159,0,-425,-4680,23,-87,-38,34
396,2160,1,-424,-4680,23,-87,-38,34
397,2160,1,-425,-4677,23,-87,-37,35
398,2160,1,-426,-4677,23,-88,-38,35
399,2159,1,-426,-4675,23,-88,-38,35
400,2160,1,-427,-4675,23,-88,-38,35
401,2159,2,-426,-4674,23,-88,-38,34
402,2159,3,-425,-4676,23,-88,-39,34
403,2159,3,-425,-4678,23,-88,-39,34
404,2159,2,-425,-4677,23,-87,-39,35
405,2158,2,-424,-4676,23,-87,-39,35
406,2158,2,-426,-4677,23,-87,-39,35
407,2157,3,-426,-4676,23,-87,-38,35
408,2158,1,-426,-4677,23,-87,-39,35
409,2158,1,-428,-4678,23,-87,-39,35
410,2159,1,-429,-4678,23,-87,-39,35
411,2158,2,-430,-4678,23,-86,-38,35
412,2159,2,-429,-4679,23,-86,-39,35
413,2158,2,-430,-4680,23,-87,-38,35
414,2157,1,-432,-4679,23,-87,-39,35
415,2156,2,-430,-4679,23,-88,-38,35
416,2157,2,-429,-4679,23,-87,-38,35
417,2158,2,-428,-4680,23,-87,-37,35
418,2159,1,-427,-4680,23,-87,-38,34
419,2159,1,-429,-4682,23,-87,-38,35
420,2159,1,-430,-4682,23,-87,-38,34
421,2160,2,-430,-4682,23,-87,-38,34
422,2159,3,-430,-4681,23,-87,-39,34
423,2158,3,-430,-4680,23,-87,-38,34
424,2157,3,-432,-4681,23,-87,-38,34
425,2157,3,-432,-4681,23,-86,-38,34
426,2157,3,-430,-4681,23,-87,-38,34
427,2158,2,-430,-4679,23,-86,-38,34
428,2159,2,-428,-4679,23,-86,-38,35
429,2158,3,-429,-4679,23,-86,-38,34
430,2157,3,-430,-4681,23,-87,-38,34
431,2157,2,-429,-4680,23,-87,-38,34
432,2157,2,-431,-4679,23,-87,-38,34
433,2159,1,-429,-4678,23,-87,-38,34
434,2158,1,-432,-4679,23,-86,-38,34
435,2157,0,-432,-4679,23,-87,-37,34
436,2157,0,-431,-4680,23,-87,-37,34
437,2157,0,-429,-4678,23,-87,-38,34
438,2158,0,-429,-4676,23,-87,-38,35
439,2159,0,-428,-4677,23,-87,-38,35
440,2158,1,-428,-4679,23,-87,-38,35
441,2159,0,-429,-4680,23,-87,-38,35
442,2159,0,-429,-4679,23,-88,-38,35
443,2159,1,-429,-4680,23,-87,-39,35
444,2159,1,-428,-4680,23,-88,-38,34
445,2158,1,-428,-4679,23,-88,-38,34
446,2157,1,-427,-4680,23,-87,-38,35
447,2157,1,-428,-4681,23,-87,-38,35
448,2156,1,-428,-4680,23,-87,-38,34
449,2157,0,-429,-4680,23,-87,-39,34
450,2158,1,-430,-4680,23,-87,-39,35
451,2158,1,-429,-4680,23,-86,-39,34
452,2160,1,-430,-4680,23,-86,-39,34
453,2158,2,-430,-4678,23,-87,-38,35
454,2158,2,-431,-4677,23,-87,-38,35
455,2158,2,-430,-4675,23,-87,-38,35
456,2159,2,-431,-4676,23,-87,-38,35
457,2158,1,-431,-4676,23,-87,-38,34
458,2157,1,-430,-4678,23,-87,-38,34
459,2158,1,-431,-4679,23,-87,-38,34
460,2158,2,-431,-4677,23,-87,-38,34
461,2158,2,-429,-4678,23,-87,-37,34
462,2158,3,-428,-4679,23,-87,-38,34
463,2158,2,-428,-4679,23,-86,-38,35
464,2158,1,-428,-4680,23,-87,-37,35
465,2158,1,-427,-4678,23,-87,-38,35
466,2158,1,-429,-4679,23,-87,-38,35
467,2158,1,-430,-4679,23,-87,-38,35
468,2158,1,-429,-4680,23,-87,-38,35
469,2158,1,-428,-4677,23,-87,-38,35
470,2158,1,-427,-4677,23,-87,-38,34
471,2159,1,-428,-4679,23,-86,-38,35
472,2158,1,-428,-4679,23,-86,-38,35
473,2157,3,-427,-4676,23,-87,-38,34
474,2157,1,-427,-4676,23,-86,-38,34
475,2158,3,-427,-4679,23,-87,-38,35
476,2158,2,-426,-4680,23,-87,-37,35
477,2158,1,-425,-4680,23,-87,-37,34
478,2157,1,-425,-4680,23,-87,-38,35
479,2157,1,-427,-4678,23,-87,-38,34
480,2157,3,-428,-4679,23,-87,-38,34
481,2158,3,-430,-4681,23,-87,-38,35
482,2157,3,-430,-4680,23,-87,-38,35
483,2158,2,-429,-4681,23,-87,-38,34
484,2157,2,-428,-4681,23,-87,-38,34
485,2156,2,-427,-4681,23,-86,-37,34
486,2157,2,-428,-4682,23,-86,-37,34
487,2158,2,-428,-4679,23,-86,-37,35
488,2158,2,-428,-4679,23,-86,-38,35
489,2158,1,-429,-4681,23,-86,-38,35
490,2158,2,-430,-4681,23,-86,-38,35
491,2157,2,-430,-4679,23,-86,-38,35
492,2158,2,-431,-4679,23,-86,-38,35
493,2159,3,-430,-4681,23,-86,-39,35
494,2158,2,-428,-4681,23,-87,-39,35
495,2159,2,-427,-4682,23,-86,-39,35
496,2158,3,-428,-4682,23,-86,-39,35
497,2159,2,-427,-4682,23,-86,-38,34
498,2159,2,-428,-4681,23,-86,-38,35
499,2159,2,-429,-4680,23,-86,-38,35
500,2160,2,-427,-4680,23,-87,-38,35
501,2160,1,-429,-4680,23,-87,-38,35
502,2160,1,-429,-4680,23,-87,-38,35
503,2159,1,-431,-4680,23,-86,-37,35
504,2159,1,-431,-4678,23,-86,-38,35
505,2159,1,-431,-4677,23,-86,-38,35
506,2158,-1,-431,-4676,23,-86,-38,35
507,2159,0,-430,-4676,23,-86,-38,35
508,2159,0,-429,-4676,23,-86,-37,35
509,2160,-1,-430,-4677,23,-86,-38,35
510,2159,-1,-432,-4677,23,-86,-37,35
511,2159,-1,-433,-4677,23,-86,-38,35
512,2158,-1,-433,-4675,23,-86,-38,35
513,2159,0,-431,-4675,23,-86,-38,35
514,2158,1,-431,-4674,23,-87,-38,35
515,2158,1,-427,-4673,23,-87,-39,35
516,2158,0,-428,-4674,23,-87,-38,35
517,2158,0,-429,-4674,23,-87,-38,35
518,2158,-1,-428,-4675,23,-87,-38,35
519,2158,0,-427,-4677,23,-87,-38,35
520,2159,0,-427,-4678,23,-87,-39,35
521,2160,0,-428,-4679,23,-86,-39,35
522,2159,2,-430,-4679,23,-86,-39,35
523,2159,2,-429,-4679,23,-86,-39,34
524,2160,2,-430,-4679,23,-86,-39,34
525,2159,1,-431,-4678,23,-87,-39,34
526,2159,1,-431,-4677,23,-86,-39,34
527,2159,1,-432,-4677,23,-86,-39,34
528,2159,2,-430,-4679,23,-87,-39,35
529,2159,3,-428,-4680,23,-86,-40,35
530,2160,2,-429,-4680,23,-86,-39,35
531,2160,1,-429,-4681,23,-86,-39,35
532,2160,2,-429,-4681,23,-87,-39,35
533,2159,1,-428,-4680,23,-87,-39,35
534,2160,1,-428,-4679,23,-87,-39,34
535,2160,0,-429,-4679,23,-87,-40,34
536,2160,0,-428,-4679,23,-87,-39,34
537,2161,1,-430,-4678,23,-87,-38,34
538,2160,-1,-431,-4678,23,-88,-39,33
539,2159,-1,-429,-4678,23,-87,-39,34
540,2160,0,-429,-4680,23,-87,-39,34
541,2160,0,-427,-4678,23,-87,-39,35
542,2159,0,-429,-4677,23,-86,-38,35
543,2159,1,-429,-4677,23,-87,-38,35
544,2159,2,-430,-4678,23,-87,-38,35
545,2158,2,-431,-4676,23,-88,-38,35
546,2158,1,-428,-4677,23,-87,-39,35
547,2159,2,-427,-4677,23,-87,-38,36
548,2160,2,-428,-4676,23,-88,-38,36
549,2158,1,-427,-4676,23,-87,-38,36
550,2158,2,-427,-4678,23,-87,-38,35
551,2156,2,-428,-4679,23,-87,-39,35
552,2156,3,-429,-4678,23,-87,-39,35
553,2157,1,-429,-4679,23,-87,-39,35
554,2158,1,-430,-4678,23,-87,-38,35
555,2157,0,-429,-4679,23,-87,-38,35
556,2157,0,-427,-4678,23,-87,-38,35
557,2156,0,-426,-4678,23,-87,-39,35
558,2155,2,-427,-4680,23,-87,-38,35
559,2156,2,-426,-4679,23,-87,-38,34
560,2157,2,-427,-4679,23,-86,-38,34
561,2156,2,-428,-4679,23,-86,-38,34
562,2158,0,-427,-4677,23,-86,-39,34
563,2158,-1,-428,-4677,23,-86,-39,34
564,2159,-1,-427,-4676,23,-86,-38,33
565,2160,-1,-426,-4677,23,-86,-38,34
566,2159,-1,-428,-4676,23,-86,-38,34
567,2158,0,-429,-4677,23,-86,-38,34
568,2158,1,-428,-4676,23,-87,-38,34
569,2157,1,-428,-4675,23,-86,-39,34
570,2157,1,-429,-4672,23,-86,-39,34
571,2157,1,-429,-4674,23,-86,-39,34
572,2157,1,-429,-4675,23,-86,-38,34
573,2157,1,-430,-4676,23,-86,-38,34
574,2157,3,-428,-4676,23,-87,-38,35
575,2157,4,-427,-4675,23,-86,-38,34
576,2157,2,-428,-4675,23,-87,-38,35
577,2157,2,-426,-4675,23,-86,-37,34
578,2158,2,-426,-4674,23,-87,-37,34
579,2158,1,-427,-4675,23,-87,-38,34
580,2158,1,-428,-4674,23,-87,-37,34
581,2159,1,-428,-4676,23,-87,-38,34
582,2159,1,-429,-4676,23,-87,-38,33
583,2159,3,-429,-4676,23,-87,-38,33
584,2160,2,-427,-4677,23,-87,-38,34
585,2160,3,-428,-4677,23,-88,-38,34
586,2160,2,-428,-4677,23,-88,-38,34
587,2160,1,-428,-4678,23,-88,-38,34
588,2161,2,-428,-4679,23,-87,-38,34
589,2160,1,-430,-4679,23,-88,-39,34
590,2160,0,-431,-4678,23,-88,-39,34
591,2159,-1,-430,-4678,23,-88,-38,34
592,2159,0,-430,-4677,23,-88,-39,34
593,2159,1,-430,-4676,23,-87,-39,34
594,2158,1,-430,-4677,23,-87,-39,34
595,2158,1,-432,-4677,23,-87,-39,35
596,2157,1,-431,-4676,23,-87,-39,34
597,2156,0,-430,-4674,23,-86,-38,35
598,2157,-1,-430,-4674,23,-87,-38,34
599,2157,0,-428,-4675,23,-87,-38,34
600,2158,0,-430,-4674,23,-87,-38,35
601,2157,2,-429,-4673,23,-87,-38,34
602,2157,3,-430,-4672,23,-87,-37,34
603,2157,1,-431,-4671,23,-87,-37,34
604,2157,1,-430,-4672,23,-87,-37,34
605,2158,2,-429,-4672,23,-87,-38,35
606,2157,2,-428,-4674,23,-87,-38,35
607,2157,2,-427,-4673,23,-88,-38,35
608,2158,2,-429,-4673,23,-87,-38,35
609,2158,2,-430,-4674,23,-87,-38,35
610,2159,3,-429,-4673,23,-87,-39,35
611,2160,2,-429,-4673,23,-88,-39,35
612,2158,2,-427,-4672,23,-87,-39,35
613,2158,1,-428,-4672,23,-87,-38,35
614,2159,1,-428,-4671,23,-87,-38,35
615,2158,0,-429,-4674,23,-87,-38,35
616,2158,1,-429,-4673,23,-87,-38,35
617,2159,2,-429,-4674,23,-87,-38,35
618,2158,2,-431,-4673,23,-87,-38,35
619,2158,1,-431,-4674,23,-87,-38,35
620,2157,2,-432,-4672,23,-88,-37,35
621,2158,1,-431,-4672,23,-87,-37,35
622,2158,0,-430,-4671,23,-87,-37,35
623,2157,1,-429,-4672,23,-87,-37,35
624,2157,1,-428,-4672,23,-86,-37,34
625,2157,2,-429,-4673,23,-86,-38,35
626,2157,1,-427,-4672,23,-87,-38,35
627,2157,1,-427,-4671,23,-87,-38,35
628,2158,1,-427,-4672,23,-87,-38,34
629,2159,2,-426,-4671,23,-88,-38,34
630,2159,1,-426,-4673,23,-87,-38,34
631,2157,1,-427,-4672,23,-87,-39,34
632,2157,1,-427,-4673,23,-87,-38,34
633,2158,1,-428,-4672,23,-87,-39,34
634,2159,-1,-427,-4672,23,-86,-39,34
635,2159,0,-426,-4674,23,-86,-39,35
636,2157,1,-426,-4674,23,-87,-39,35
637,2158,2,-428,-4674,23,-87,-39,34
638,2159,2,-428,-4674,23,-87,-39,35
639,2160,2,-429,-4676,23,-87,-38,35
640,2159,2,-428,-4675,23,-87,-38,35
641,2159,2,-427,-4675,23,-86,-38,35
642,2159,2,-426,-4676,23,-86,-38,35
643,2158,1,-425,-4675,23,-87,-38,35
644,2158,2,-425,-4673,23,-87,-39,35
645,2158,3,-428,-4675,23,-87,-38,35
646,2159,4,-425,-4674,23,-87,-38,35
647,2159,3,-425,-4674,23,-87,-38,34
648,2159,4,-425,-4673,23,-87,-38,34
649,2159,4,-425,-4674,23,-87,-37,35
650,2158,4,-425,-4674,23,-87,-38,35
651,2159,3,-427,-4676,23,-87,-38,35
652,2158,1,-427,-4674,23,-87,-38,35
653,2159,2,-427,-4674,23,-87,-38,35
654,2158,2,-428,-4674,23,-87,-39,34
655,2158,3,-431,-4674,23,-87,-38,34
656,2159,1,-429,-4673,23,-87,-39,34
657,2158,1,-431,-4673,23,-87,-39,34
658,2158,1,-432,-4674,23,-87,-39,34
659,2159,2,-432,-4674,23,-87,-39,34
660,2157,2,-431,-4675,23,-87,-39,34
661,2159,2,-429,-4674,23,-86,-39,35
662,2160,2,-428,-4674,23,-87,-39,35
663,2160,3,-428,-4673,23,-86,-39,35
664,2160,2,-428,-4675,23,-87,-38,35
665,2159,3,-427,-4674,23,-87,-38,35
666,2159,2,-428,-4674,23,-87,-38,34
667,2158,2,-429,-4676,23,-87,-38,34
668,2158,2,-429,-4676,23,-86,-38,35
669,2158,1,-429,-4673,23,-86,-38,35
670,2158,2,-429,-4673,23,-86,-38,34
671,2158,3,-427,-4671,23,-87,-38,35
672,2159,3,-426,-4672,23,-87,-37,34
673,2159,4,-428,-4672,23,-87,-37,35
674,2159,4,-429,-4671,23,-87,-37,35
675,2160,4,-428,-4672,23,-87,-37,34
676,2159,3,-429,-4673,23,-87,-38,35
677,2159,1,-429,-4675,23,-87,-38,35
678,2160,0,-429,-4675,23,-87,-38,35
679,2159,1,-430,-4676,23,-87,-39,35
680,2159,0,-429,-4676,23,-86,-38,34
681,2158,0,-430,-4676,23,-86,-38,34
682,2158,1,-429,-4676,23,-86,-38,34
683,2158,1,-430,-4674,23,-86,-38,34
684,2158,2,-430,-4674,23,-86,-39,33
685,2158,3,-431,-4674,23,-86,-38,34
686,2158,2,-430,-4673,23,-86,-38,34
687,2157,2,-430,-4672,23,-87,-38,34
688,2158,2,-430,-4671,23,-87,-38,34
689,2159,1,-429,-4669,23,-87,-38,34
690,2160,1,-430,-4671,23,-86,-38,34
691,2161,0,-429,-4671,23,-86,-38,34
692,2160,2,-428,-4672,23,-86,-39,35
693,2159,1,-427,-4672,23,-86,-39,35
694,2160,1,-428,-4673,23,-86,-39,34
695,2159,1,-428,-4674,23,-87,-38,34
696,2160,-1,-428,-4673,23,-87,-38,34
697,2161,1,-429,-4673,23,-87,-38,34
698,2160,1,-429,-4675,23,-86,-39,34
699,2159,1,-430,-4673,23,-87,-39,34
700,2159,1,-431,-4672,23,-87,-39,34
701,2159,2,-431,-4673,23,-87,-39,35
702,2158,2,-429,-4673,23,-88,-40,35
703,2158,3,-428,-4675,23,-87,-39,35
704,2159,2,-427,-4676,23,-87,-39,35
705,2159,2,-428,-4676,23,-87,-39,35
706,2158,3,-429,-4676,23,-87,-38,34
707,2159,3,-430,-4676,23,-87,-39,34
708,2158,2,-429,-4676,23,-87,-39,34
709,2158,2,-429,-4675,23,-86,-38,34
710,2158,1,-430,-4675,23,-86,-39,35
711,2157,1,-430,-4675,23,-87,-39,35
712,2156,1,-431,-4673,23,-86,-38,35
713,2158,2,-430,-4674,23,-86,-39,35
714,2158,1,-430,-4674,23,-86,-39,34
715,2158,-1,-429,-4675,23,-87,-39,34
716,2159,1,-430,-4675,23,-86,-39,34
717,2159,1,-429,-4673,23,-87,-38,34
718,2158,1,-430,-4672,23,-87,-39,34
719,2158,1,-430,-4672,23,-87,-39,34
720,2158,2,-429,-4672,23,-87,-39,34
721,2158,1,-428,-4672,23,-87,-39,34
722,2158,1,-429,-4672,23,-87,-38,34
723,2160,0,-428,-4674,23,-88,-38,34
724,2160,0,-429,-4674,23,-88,-38,34
725,2159,1,-430,-4673,23,-88,-38,34
726,2160,2,-430,-4672,23,-88,-38,34
727,2160,1,-429,-4673,23,-88,-38,34
728,2159,1,-429,-4672,23,-88,-38,34
729,2159,1,-427,-4671,23,-87,-39,33
730,2159,2,-427,-4671,23,-87,-38,34
731,2158,2,-428,-4672,23,-86,-38,34
732,2159,2,-428,-4671,23,-86,-38,35
733,2159,3,-427,-4672,23,-86,-38,34
734,2159,2,-427,-4672,23,-86,-38,35
735,2159,3,-428,-4673,23,-86,-38,35
736,2159,1,-426,-4672,23,-87,-38,35
737,2159,2,-427,-4673,23,-86,-38,34
738,2158,2,-427,-4672,23,-86,-38,34
739,2158,2,-426,-4671,23,-86,-38,35
740,2158,2,-427,-4671,23,-86,-38,35
741,2158,2,-428,-4670,23,-87,-38,35
742,2158,2,-427,-4671,23,-87,-38,35
743,2158,2,-426,-4673,23,-87,-38,35
744,2159,3,-426,-4673,23,-86,-39,35
745,2160,3,-426,-4670,23,-87,-38,35
746,2160,2,-426,-4670,23,-87,-38,35
747,2159,3,-427,-4670,23,-87,-38,35
748,2159,2,-427,-4672,23,-87,-38,35
749,2159,1,-427,-4670,23,-87,-38,35
750,2158,1,-427,-4670,23,-87,-38,35
751,2157,1,-428,-4671,23,-87,-38,35
752,2157,1,-427,-4672,23,-87,-38,35
753,2157,1,-428,-4673,23,-86,-38,35
754,2157,1,-427,-4671,23,-87,-38,35
755,2158,2,-427,-4671,23,-87,-38,36
756,2158,1,-428,-4671,23,-86,-38,36
757,2159,1,-426,-4672,23,-86,-38,36
758,2158,2,-426,-4673,23,-87,-38,35
759,2157,2,-428,-4674,23,-87,-37,35
760,2158,2,-430,-4674,23,-87,-37,35
761,2158,2,-430,-4674,23,-87,-38,35
762,2158,1,-431,-4672,23,-87,-38,35
763,2157,1,-432,-4670,23,-87,-39,35
764,2156,1,-430,-4670,23,-87,-39,35
765,2157,1,-430,-4670,23,-86,-39,35
766,2157,1,-431,-4669,23,-86,-39,35
767,2158,1,-429,-4670,23,-86,-38,35
768,2158,1,-429,-4672,23,-86,-39,35
769,2158,1,-430,-4673,23,-87,-38,35
770,2157,2,-430,-4674,23,-86,-38,35
771,2157,3,-431,-4674,23,-86,-39,35
772,2157,4,-431,-4673,23,-87,-38,35
773,2157,4,-428,-4673,23,-86,-38,35
774,2157,3,-429,-4674,23,-86,-38,34
775,2157,1,-429,-4675,23,-87,-38,35
776,2158,2,-428,-4674,23,-87,-39,35
777,2159,1,-428,-4676,23,-87,-39,35
778,2159,2,-429,-4674,23,-87,-38,35
779,2158,3,-428,-4674,23,-87,-38,35
780,2159,3,-428,-4674,23,-87,-38,35
781,2159,2,-428,-4674,23,-87,-38,35
782,2158,1,-426,-4672,23,-88,-38,34
783,2159,1,-425,-4673,23,-88,-37,35
784,2160,0,-426,-4671,23,-88,-37,35
785,2159,1,-427,-4671,23,-88,-38,35
786,2159,1,-428,-4671,23,-88,-38,35
787,2161,1,-429,-4670,23,-88,-37,35
788,2161,0,-428,-4671,23,-88,-38,35
789,2160,0,-429,-4671,23,-88,-38,35
790,2161,0,-428,-4670,23,-87,-38,35
791,2160,0,-428,-4672,23,-87,-39,35
792,2160,-1,-429,-4672,23,-87,-38,34
793,2160,-1,-429,-4671,23,-87,-38,34
794,2159,0,-428,-4672,23,-86,-38,34
795,2158,0,-429,-4671,23,-86,-38,34
796,2158,1,-429,-4674,23,-86,-38,34
797,2159,1,-428,-4674,23,-87,-38,34
798,2158,2,-429,-4673,23,-87,-38,35
799,2158,2,-429,-4673,23,-87,-38,34
800,2157,1,-429,-4673,23,-87,-38,35
801,2158,1,-429,-4671,23,-87,-39,35
802,2157,1,-430,-4673,23,-87,-39,35
803,2157,2,-431,-4672,23,-87,-38,35
804,2156,2,-431,-4672,23,-87,-39,35
805,2157,3,-429,-4673,23,-86,-39,35
806,2158,2,-429,-4672,23,-86,-38,35
807,2157,1,-428,-4673,23,-86,-38,35
808,2157,3,-428,-4673,23,-86,-38,35
809,2157,3,-427,-4672,23,-86,-38,35
810,2157,3,-427,-4672,23,-86,-38,35
811,2158,3,-426,-4671,23,-86,-38,35
812,2159,2,-426,-4672,23,-86,-38,35
813,2159,1,-425,-4671,23,-86,-39,35
814,2160,1,-428,-4672,23,-87,-39,35
815,2159,1,-428,-4673,23,-86,-39,34
816,2159,1,-429,-4672,23,-86,-39,34
817,2159,2,-428,-4671,23,-86,-39,34
818,2159,2,-427,-4671,23,-87,-39,34
819,2160,3,-425,-4670,23,-86,-39,35
820,2160,3,-425,-4671,23,-86,-39,34
821,2160,3,-428,-4672,23,-86,-39,35
822,2159,3,-427,-4673,23,-87,-39,35
823,2161,2,-425,-4673,23,-87,-39,34
824,2160,2,-424,-4672,23,-87,-39,35
825,2160,2,-425,-4672,23,-87,-39,35
826,2160,3,-425,-4672,23,-87,-39,35
827,2159,3,-426,-4673,23,-87,-39,35
828,2158,2,-428,-4673,23,-87,-39,34
829,2158,3,-429,-4674,23,-87,-39,35
830,2159,2,-429,-4673,23,-87,-39,34
831,2158,3,-426,-4672,23,-87,-38,35
832,2158,3,-427,-4671,23,-87,-39,35
833,2159,3,-428,-4672,23,-87,-38,34
834,2159,2,-431,-4672,23,-87,-38,35
835,2158,1,-431,-4672,23,-87,-39,34
836,2158,1,-430,-4673,23,-87,-39,34
837,2158,1,-429,-4673,23,-87,-38,34
838,2159,1,-427,-4673,23,-87,-39,34
839,2158,2,-427,-4674,23,-87,-38,35
840,2159,3,-427,-4674,23,-87,-39,34
841,2159,4,-425,-4674,23,-87,-39,34
842,2159,4,-427,-4673,23,-87,-38,34
843,2158,2,-427,-4674,23,-88,-37,34
844,2159,2,-429,-4675,23,-87,-38,34
845,2158,2,-427,-4676,23,-86,-37,34
846,2159,2,-429,-4673,23,-87,-38,34
847,2159,2,-427,-4675,23,-87,-37,34
848,2158,2,-428,-4675,23,-87,-38,34
849,2158,1,-428,-4675,23,-87,-39,34
850,2160,0,-428,-4675,23,-87,-39,34
851,2161,1,-428,-4674,23,-87,-39,34
852,2160,1,-427,-4673,23,-87,-39,34
853,2160,1,-428,-4673,23,-87,-39,34
854,2159,1,-431,-4673,23,-87,-39,34
855,2159,2,-430,-4672,23,-88,-38,35
856,2158,2,-429,-4673,23,-87,-39,35
857,2159,2,-430,-4674,23,-87,-39,35
858,2158,3,-428,-4675,23,-87,-39,35
859,2157,3,-429,-4675,23,-87,-38,35
860,2158,1,-430,-4678,23,-88,-39,35
861,2157,1,-429,-4676,23,-87,-38,35
862,2156,2,-430,-4675,23,-87,-38,35
863,2155,2,-430,-4674,23,-87,-38,35
864,2155,2,-428,-4673,23,-87,-38,35
865,2156,4,-429,-4673,23,-87,-38,34
866,2156,3,-429,-4673,23,-88,-38,34
867,2157,3,-429,-4672,23,-88,-38,34
868,2158,4,-431,-4672,23,-87,-38,34
869,2158,4,-430,-4670,23,-87,-38,34
870,2158,4,-429,-4670,23,-87,-38,34
871,2157,3,-430,-4670,23,-87,-38,34
872,2157,2,-431,-4670,23,-87,-38,34
873,2157,2,-432,-4670,23,-87,-38,35
874,2157,1,-430,-4671,23,-87,-38,35
875,2157,1,-429,-4673,23,-87,-38,35
876,2158,0,-429,-4672,23,-87,-38,35
877,2158,1,-429,-4671,23,-87,-38,35
878,2157,2,-429,-4672,23,-87,-38,34
879,2157,1,-430,-4672,23,-87,-37,34
880,2157,2,-429,-4671,23,-87,-38,34
881,2157,3,-428,-4672,23,-87,-37,35
882,2158,3,-429,-4672,23,-88,-37,34
883,2158,2,-428,-4673,23,-87,-38,35
884,2157,2,-427,-4672,23,-87,-38,35
885,2158,1,-425,-4671,23,-87,-39,35
886,2157,2,-425,-4673,23,-88,-39,34
887,2158,2,-426,-4675,23,-87,-38,34
888,2157,1,-426,-4675,23,-88,-38,34
889,2158,2,-428,-4674,23,-87,-38,34
890,2160,3,-429,-4673,23,-87,-39,35
891,2160,3,-429,-4673,23,-88,-39,35
892,2161,3,-429,-4672,23,-87,-39,35
893,2160,2,-429,-4673,23,-87,-39,35
894,2160,3,-429,-4673,23,-87,-38,34
895,2160,2,-428,-4674,23,-87,-39,34
896,2159,2,-430,-4676,23,-87,-39,34
897,2158,2,-429,-4674,23,-87,-39,34
898,2158,2,-428,-4673,23,-87,-38,34
899,2158,2,-430,-4674,23,-86,-38,34
900,2158,2,-429,-4672,23,-86,-38,35
901,2159,1,-432,-4673,23,-87,-38,34
902,2159,1,-429,-4674,23,-87,-38,35
903,2157,0,-426,-4674,23,-87,-38,35
904,2157,0,-426,-4674,23,-88,-38,35
905,2158,0,-429,-4675,23,-88,-38,35
906,2158,0,-429,-4675,23,-88,-38,35
907,2158,0,-429,-4674,23,-88,-38,36
908,2157,1,-427,-4673,23,-88,-38,36
909,2158,0,-430,-4675,23,-87,-38,35
910,2158,1,-430,-4676,23,-87,-38,35
911,2158,1,-429,-4675,23,-87,-38,35
912,2159,0,-430,-4673,23,-87,-38,35
913,2158,0,-429,-4674,23,-87,-38,34
914,2158,1,-428,-4672,23,-87,-38,34
915,2159,1,-428,-4672,23,-87,-38,35
916,2159,0,-428,-4672,23,-87,-39,34
917,2158,0,-429,-4673,23,-87,-39,34
918,2158,0,-429,-4674,23,-87,-39,34
919,2159,-1,-429,-4675,23,-87,-39,33
920,2159,1,-431,-4675,23,-87,-39,33
921,2159,2,-429,-4674,23,-87,-39,34
922,2159,1,-428,-4674,23,-87,-40,35
923,2156,1,-427,-4673,23,-87,-39,35
924,2157,1,-429,-4672,23,-86,-39,35
925,2157,1,-431,-4672,23,-86,-39,35
926,2158,1,-430,-4671,23,-86,-39,35
927,2158,1,-429,-4671,23,-87,-39,35
928,2156,0,-429,-4671,23,-87,-38,34
929,2157,0,-429,-4671,23,-87,-39,35
930,2158,2,-430,-4672,23,-88,-39,34
931,2158,2,-430,-4670,23,-87,-39,35
932,2159,3,-430,-4672,23,-87,-38,35
933,2158,2,-431,-4675,23,-87,-38,35
934,2158,2,-431,-4674,23,-87,-38,35
935,2158,1,-430,-4674,23,-87,-38,35
936,2158,2,-430,-4674,23,-87,-39,34
937,2157,2,-430,-4674,23,-86,-38,34
938,2159,0,-430,-4674,23,-86,-38,34
939,2159,1,-429,-4674,23,-87,-38,34
940,2159,2,-428,-4676,23,-86,-38,34
941,2158,1,-426,-4676,23,-86,-39,34
942,2159,1,-428,-4675,23,-87,-38,34
943,2160,2,-427,-4675,23,-87,-38,34
944,2160,1,-428,-4675,23,-87,-38,34
945,2160,2,-428,-4675,23,-87,-38,34
946,2160,2,-429,-4675,23,-87,-38,34
947,2159,2,-429,-4675,23,-87,-38,34
948,2158,3,-427,-4675,23,-86,-38,34
949,2159,3,-425,-4674,23,-86,-37,34
950,2160,2,-425,-4673,23,-87,-38,34
951,2159,3,-425,-4674,23,-86,-38,34
952,2159,3,-427,-4674,23,-87,-37,34
953,2159,3,-429,-4674,23,-86,-38,34
954,2158,3,-430,-4673,23,-86,-39,34
955,2159,3,-429,-4674,23,-87,-38,34
956,2160,3,-429,-4673,23,-87,-38,35
957,2160,2,-427,-4672,23,-87,-38,35
958,2160,2,-426,-4671,23,-87,-38,35
959,2159,3,-426,-4671,23,-87,-38,35
960,2157,2,-426,-4671,23,-87,-38,35
961,2158,2,-426,-4672,23,-87,-38,35
962,2159,2,-426,-4674,23,-86,-38,35
963,2158,1,-426,-4673,23,-86,-39,35
964,2158,2,-426,-4672,23,-87,-39,34
965,2157,2,-427,-4673,23,-87,-38,35
966,2158,3,-428,-4673,23,-86,-39,34
967,2158,3,-428,-4674,23,-86,-39,34
968,2158,2,-427,-4675,23,-86,-38,34
969,2160,1,-428,-4677,23,-87,-38,34
970,2160,1,-429,-4675,23,-87,-38,34
971,2160,2,-428,-4674,23,-87,-38,34
972,2159,3,-427,-4675,23,-87,-38,35
973,2159,3,-428,-4676,23,-86,-38,35
974,2160,3,-427,-4675,23,-86,-38,34
975,2159,2,-428,-4676,23,-86,-39,34
976,2159,1,-428,-4674,23,-85,-39,34
977,2159,2,-429,-4673,23,-86,-39,34
978,2158,2,-431,-4673,23,-86,-38,35
979,2158,1,-431,-4674,23,-87,-39,35
980,2157,1,-430,-4675,23,-87,-39,35
981,2157,1,-430,-4676,23,-87,-38,35
982,2156,3,-430,-4674,23,-87,-39,35
983,2156,2,-431,-4674,23,-87,-39,35
984,2156,1,-429,-4675,23,-86,-39,34
985,2157,1,-430,-4676,23,-86,-38,34
986,2158,1,-430,-4675,23,-87,-38,34
987,2157,2,-431,-4674,23,-86,-39,34
988,2155,3,-429,-4674,23,-86,-39,34
989,2156,2,-427,-4673,23,-86,-38,35
990,2156,2,-428,-4673,23,-86,-38,35
991,2157,2,-427,-4673,23,-87,-38,35
992,2156,2,-428,-4673,23,-87,-38,35
993,2156,2,-428,-4673,23,-87,-38,35
994,2157,1,-427,-4673,23,-87,-39,35
995,2157,1,-427,-4672,23,-86,-39,35
996,2158,2,-428,-4672,23,-86,-38,35
997,2159,2,-428,-4672,23,-86,-39,35
998,2158,3,-426,-4672,23,-86,-38,35
