,acc_X,acc_Y,acc_Z,temp,tempC,gyr_X,gyr_Y,gyr_Z
0,2158,3,-424,-4667,23,-43,-21,17
1,2159,1,-424,-4663,23,-44,-19,17
2,2165,1,-429,-4666,23,-43,-19,17
3,2162,-3,-429,-4666,23,-44,-19,17
4,2157,-2,-422,-4666,23,-44,-19,18
5,2157,0,-422,-4664,23,-44,-19,18
6,2158,0,-425,-4662,23,-44,-19,18
7,2160,-3,-428,-4663,23,-44,-19,17
8,2163,-3,-427,-4667,23,-44,-20,18
9,2159,0,-436,-4669,23,-44,-19,18
10,2156,-5,-429,-4664,23,-44,-19,18
11,2159,-4,-428,-4668,23,-44,-19,17
12,2159,-4,-429,-4666,23,-44,-19,18
13,2159,-2,-431,-4668,23,-45,-19,17
14,2160,-3,-428,-4669,23,-44,-18,17
15,2158,3,-427,-4666,23,-43,-19,17
16,2159,1,-431,-4669,23,-44,-19,17
17,2159,0,-429,-4668,23,-44,-20,17
18,2159,0,-433,-4669,23,-44,-20,17
19,2162,0,-436,-4666,23,-44,-19,17
20,2158,5,-432,-4671,23,-44,-19,17
21,2158,1,-428,-4667,23,-44,-20,17
22,2159,1,-425,-4668,23,-44,-20,17
23,2160,1,-429,-4669,23,-44,-20,18
24,2160,1,-427,-4670,23,-44,-20,17
25,2155,-1,-428,-4664,23,-44,-19,18
26,2160,1,-428,-4662,23,-44,-19,17
27,2159,-3,-430,-4665,23,-45,-19,17
28,2157,-2,-432,-4668,23,-44,-19,17
29,2157,1,-431,-4663,23,-43,-20,18
30,2157,-1,-436,-4669,23,-43,-21,17
31,2157,1,-427,-4672,23,-43,-19,17
32,2155,1,-430,-4669,23,-44,-19,17
33,2155,4,-430,-4669,23,-44,-19,16
34,2155,0,-427,-4668,23,-44,-20,17
35,2160,-1,-423,-4669,23,-44,-19,17
36,2156,-1,-426,-4667,23,-45,-19,17
37,2159,2,-428,-4672,23,-43,-19,17
38,2159,-1,-433,-4668,23,-44,-20,16
39,2161,-2,-427,-4664,23,-44,-19,17
40,2158,0,-424,-4668,23,-44,-19,17
41,2160,-1,-431,-4671,23,-44,-20,17
42,2157,1,-427,-4669,23,-44,-20,17
43,2156,0,-429,-4664,23,-44,-20,18
44,2158,2,-435,-4668,23,-44,-20,17
45,2157,-1,-431,-4667,23,-44,-19,17
46,2160,-3,-428,-4665,23,-44,-19,17
47,2160,-1,-426,-4672,23,-44,-19,17
48,2162,3,-426,-4666,23,-45,-19,17
49,2160,5,-425,-4666,23,-44,-20,16
50,2158,0,-428,-4672,23,-43,-20,17
51,2159,-1,-426,-4669,23,-44,-20,17
52,2160,3,-434,-4672,23,-44,-19,17
53,2162,3,-430,-4677,23,-43,-19,17
54,2160,2,-434,-4673,23,-43,-19,17
55,2161,3,-433,-4673,23,-43,-20,18
56,2155,0,-430,-4675,23,-44,-18,17
57,2157,-2,-433,-4672,23,-44,-19,17
58,2161,-2,-430,-4672,23,-43,-19,18
59,2157,3,-427,-4671,23,-44,-19,18
60,2157,1,-427,-4670,23,-43,-19,17
61,2159,3,-427,-4668,23,-44,-19,17
62,2162,0,-426,-4670,23,-44,-19,17
63,2161,4,-429,-4672,23,-44,-18,17
64,2161,-3,-426,-4673,23,-44,-18,17
65,2162,-3,-426,-4666,23,-44,-18,18
66,2163,-2,-427,-4663,23,-45,-19,17
67,2160,2,-429,-4662,23,-44,-19,16
68,2161,2,-427,-4669,23,-44,-20,16
69,2155,2,-421,-4671,23,-44,-19,16
70,2158,2,-428,-4670,23,-44,-18,17
71,2156,-2,-428,-4666,23,-43,-19,17
72,2162,2,-430,-4666,23,-44,-19,17
73,2157,2,-428,-4668,23,-44,-19,18
74,2156,2,-426,-4668,23,-44,-19,18
75,2154,4,-430,-4669,23,-44,-19,18
76,2154,3,-426,-4668,23,-45,-19,17
77,2157,4,-421,-4666,23,-44,-20,17
78,2159,4,-422,-4665,23,-44,-20,17
79,2157,1,-431,-4670,23,-43,-19,17
80,2159,4,-422,-4668,23,-43,-19,17
81,2158,2,-426,-4667,23,-44,-20,17
82,2160,-3,-427,-4669,23,-44,-19,17
83,2158,1,-428,-4668,23,-43,-20,17
84,2158,0,-430,-4670,23,-44,-20,17
85,2155,3,-430,-4669,23,-44,-19,17
86,2158,5,-429,-4665,23,-44,-20,17
87,2158,1,-430,-4667,23,-44,-19,16
88,2161,-1,-429,-4667,23,-44,-20,17
89,2159,-4,-429,-4674,23,-44,-20,17
90,2158,0,-429,-4675,23,-44,-20,16
91,2158,1,-427,-4671,23,-44,-20,17
92,2155,-3,-424,-4669,23,-44,-19,17
93,2160,-1,-428,-4665,23,-44,-19,17
94,2160,1,-432,-4670,23,-44,-19,17
95,2163,-1,-431,-4666,23,-44,-19,17
96,2162,-5,-430,-4666,23,-43,-19,17
97,2161,-1,-426,-4666,23,-43,-19,17
98,2155,2,-426,-4665,23,-43,-19,17
99,2160,2,-424,-4671,23,-44,-19,18
100,2160,3,-425,-4672,23,-43,-19,18
101,2161,3,-426,-4671,23,-43,-19,18
102,2159,0,-435,-4663,23,-44,-19,16
103,2160,3,-433,-4664,23,-44,-19,17
104,2158,-1,-429,-4666,23,-44,-19,17
105,2156,-2,-424,-4665,23,-43,-19,17
106,2161,-3,-425,-4665,23,-43,-19,17
107,2155,-3,-426,-4662,23,-43,-19,17
108,2158,2,-426,-4667,23,-43,-19,17
109,2157,-3,-421,-4662,23,-43,-19,16
110,2160,-3,-427,-4672,23,-44,-19,17
111,2162,1,-422,-4669,23,-43,-19,17
112,2161,3,-426,-4668,23,-44,-19,17
113,2156,-1,-430,-4664,23,-45,-19,17
114,2160,1,-431,-4662,23,-44,-19,17
115,2158,3,-434,-4663,23,-43,-20,17
116,2160,4,-435,-4667,23,-44,-20,17
117,2161,1,-427,-4666,23,-44,-20,17
118,2157,0,-428,-4665,23,-43,-19,16
119,2159,-2,-430,-4660,23,-43,-20,17
120,2157,4,-430,-4666,23,-43,-20,17
121,2158,4,-430,-4663,23,-44,-19,18
122,2161,1,-424,-4663,23,-44,-20,17
123,2159,1,-427,-4668,23,-44,-20,17
124,2161,-2,-429,-4666,23,-43,-19,17
125,2162,-1,-433,-4671,23,-44,-19,17
126,2160,4,-426,-4669,23,-44,-19,17
127,2159,-1,-429,-4665,23,-44,-21,17
128,2162,-6,-433,-4671,23,-44,-20,18
129,2158,-2,-434,-4673,23,-44,-18,16
130,2161,-1,-430,-4668,23,-43,-18,16
131,2156,1,-427,-4667,23,-44,-19,17
132,2159,0,-422,-4658,23,-44,-19,17
133,2162,-1,-423,-4665,23,-44,-19,17
134,2163,0,-426,-4670,23,-43,-19,17
135,2160,-1,-431,-4672,23,-43,-19,17
136,2158,1,-429,-4669,23,-44,-19,17
137,2158,0,-432,-4667,23,-44,-20,17
138,2160,-1,-429,-4666,23,-44,-20,18
139,2159,-2,-431,-4667,23,-44,-19,18
140,2157,-2,-427,-4668,23,-44,-19,18
141,2158,1,-426,-4670,23,-43,-19,17
142,2155,2,-427,-4666,23,-43,-20,17
143,2156,-2,-432,-4666,23,-44,-20,17
144,2159,1,-431,-4668,23,-44,-19,17
145,2160,3,-427,-4665,23,-43,-19,17
146,2160,1,-428,-4663,23,-44,-20,17
147,2157,2,-432,-4667,23,-44,-19,17
148,2159,0,-425,-4674,23,-44,-19,17
149,2164,0,-428,-4667,23,-44,-19,17
150,2162,3,-427,-4666,23,-43,-19,17
151,2161,2,-426,-4665,23,-43,-20,17
152,2161,0,-431,-4666,23,-44,-20,17
153,2157,-1,-428,-4666,23,-44,-19,17
154,2161,2,-428,-4668,23,-44,-19,17
155,2158,1,-433,-4667,23,-44,-19,16
156,2158,1,-433,-4675,23,-45,-20,16
157,2158,-3,-430,-4670,23,-45,-19,16
158,2155,-2,-430,-4673,23,-44,-19,17
159,2159,1,-428,-4669,23,-44,-19,17
160,2156,-2,-434,-4669,23,-43,-19,17
161,2157,1,-439,-4660,23,-43,-19,17
162,2160,5,-431,-4661,23,-44,-20,17
163,2161,2,-430,-4662,23,-44,-19,17
164,2157,1,-427,-4668,23,-43,-19,17
165,2159,1,-429,-4670,23,-43,-20,16
166,2162,-1,-424,-4670,23,-43,-20,16
167,2158,0,-426,-4669,23,-43,-20,17
168,2157,1,-428,-4671,23,-44,-20,17
169,2161,1,-422,-4672,23,-44,-20,18
170,2158,-2,-427,-4672,23,-43,-20,18
171,2159,0,-425,-4677,23,-44,-20,17
172,2157,4,-425,-4680,23,-44,-19,18
173,2158,-1,-428,-4672,23,-44,-19,17
174,2159,-3,-426,-4671,23,-44,-19,17
175,2158,-2,-429,-4671,23,-44,-18,17
176,2160,-1,-432,-4665,23,-44,-19,17
177,2156,-1,-423,-4669,23,-43,-20,17
178,2156,0,-426,-4673,23,-43,-20,16
179,2159,0,-427,-4674,23,-43,-21,17
180,2157,3,-429,-4666,23,-43,-19,17
181,2161,-2,-431,-4667,23,-45,-19,17
182,2159,-2,-434,-4671,23,-44,-19,17
183,2159,-1,-435,-4672,23,-45,-20,17
184,2157,-1,-432,-4675,23,-45,-20,18
185,2158,2,-433,-4670,23,-44,-20,17
186,2159,1,-432,-4671,23,-44,-19,17
187,2160,-1,-428,-4673,23,-43,-19,17
188,2159,0,-426,-4672,23,-44,-20,17
189,2156,2,-425,-4666,23,-44,-19,17
190,2159,-1,-424,-4672,23,-44,-19,17
191,2162,-1,-426,-4667,23,-44,-19,17
192,2164,1,-424,-4669,23,-44,-20,17
193,2162,2,-425,-4670,23,-44,-20,17
194,2163,1,-427,-4669,23,-44,-19,18
195,2160,-1,-425,-4670,23,-44,-19,17
196,2158,0,-421,-4669,23,-43,-19,17
197,2155,1,-421,-4670,23,-44,-20,17
198,2159,0,-426,-4664,23,-44,-19,18
199,2158,3,-425,-4666,23,-44,-18,17
200,2157,2,-425,-4666,23,-43,-19,17
201,2156,3,-427,-4665,23,-43,-19,18
202,2157,4,-430,-4671,23,-44,-19,17
203,2157,2,-430,-4670,23,-43,-18,16
204,2161,2,-430,-4664,23,-43,-19,17
205,2160,4,-424,-4665,23,-44,-19,17
206,2160,4,-428,-4668,23,-43,-19,18
207,2158,0,-425,-4668,23,-43,-19,17
208,2158,0,-430,-4669,23,-43,-19,17
209,2162,4,-428,-4669,23,-44,-19,17
210,2160,6,-424,-4665,23,-44,-18,17
211,2161,-2,-424,-4666,23,-44,-18,17
212,2157,-1,-425,-4668,23,-44,-20,17
213,2157,0,-425,-4667,23,-44,-19,17
214,2158,3,-423,-4667,23,-44,-19,16
215,2159,2,-423,-4666,23,-43,-19,17
216,2159,4,-428,-4665,23,-43,-20,18
217,2158,1,-425,-4665,23,-43,-19,17
218,2163,4,-425,-4668,23,-43,-19,17
219,2161,4,-425,-4665,23,-44,-19,17
220,2159,0,-427,-4665,23,-44,-19,17
221,2157,1,-435,-4666,23,-44,-20,17
222,2157,5,-429,-4669,23,-43,-20,17
223,2160,4,-430,-4671,23,-44,-20,17
224,2158,1,-434,-4669,23,-44,-20,18
225,2161,0,-435,-4665,23,-43,-19,18
226,2162,1,-428,-4667,23,-43,-18,18
227,2159,2,-426,-4666,23,-44,-18,18
228,2161,0,-426,-4664,23,-43,-18,18
229,2156,1,-427,-4667,23,-43,-19,18
230,2158,0,-423,-4665,23,-43,-19,18
231,2156,1,-425,-4663,23,-44,-19,18
232,2159,0,-426,-4664,23,-45,-19,17
233,2162,1,-422,-4662,23,-43,-19,18
234,2159,-1,-420,-4668,23,-44,-19,18
235,2161,-2,-425,-4666,23,-44,-18,18
236,2160,2,-427,-4670,23,-43,-19,17
237,2161,0,-432,-4667,23,-44,-19,18
238,2161,-1,-429,-4662,23,-44,-20,17
239,2159,-3,-432,-4663,23,-43,-20,17
240,2159,-4,-431,-4667,23,-44,-19,17
241,2162,-6,-428,-4665,23,-44,-18,18
242,2160,3,-426,-4668,23,-44,-18,17
243,2158,3,-422,-4665,23,-43,-18,17
244,2159,2,-420,-4668,23,-43,-19,17
245,2157,-1,-426,-4666,23,-44,-20,17
246,2161,-2,-423,-4664,23,-44,-20,16
247,2157,-1,-425,-4664,23,-44,-20,17
248,2160,-1,-426,-4667,23,-44,-20,18
249,2158,1,-426,-4666,23,-44,-20,17
250,2161,0,-423,-4662,23,-44,-20,17
251,2161,-2,-424,-4668,23,-44,-20,17
252,2160,-1,-428,-4664,23,-44,-19,16
253,2159,0,-426,-4665,23,-44,-19,17
254,2162,-2,-424,-4670,23,-44,-19,18
255,2160,-1,-429,-4670,23,-43,-19,18
256,2158,-5,-431,-4672,23,-44,-19,18
257,2160,-2,-432,-4668,23,-43,-19,17
258,2159,-1,-432,-4664,23,-43,-19,17
259,2159,0,-431,-4669,23,-44,-19,17
260,2161,1,-428,-4668,23,-43,-20,17
261,2162,-2,-426,-4668,23,-44,-20,17
262,2158,-4,-432,-4674,23,-45,-19,17
263,2154,0,-430,-4671,23,-45,-20,17
264,2158,3,-425,-4668,23,-44,-20,17
265,2157,5,-421,-4670,23,-43,-19,17
266,2159,2,-428,-4670,23,-44,-19,17
267,2159,2,-424,-4670,23,-43,-18,17
268,2158,1,-430,-4670,23,-44,-19,17
269,2162,4,-426,-4668,23,-43,-19,17
270,2159,1,-424,-4666,23,-44,-18,17
271,2156,2,-429,-4666,23,-44,-19,17
272,2160,0,-428,-4668,23,-45,-19,17
273,2161,-4,-428,-4666,23,-44,-19,17
274,2159,0,-433,-4667,23,-43,-19,16
275,2161,-1,-426,-4668,23,-43,-19,16
276,2161,1,-430,-4671,23,-43,-18,17
277,2159,-2,-431,-4669,23,-44,-18,18
278,2157,1,-426,-4667,23,-43,-19,18
279,2158,2,-429,-4665,23,-44,-19,17
280,2158,4,-432,-4666,23,-44,-19,17
281,2161,0,-430,-4671,23,-44,-19,17
282,2159,1,-429,-4666,23,-44,-20,17
283,2160,-1,-426,-4671,23,-44,-19,17
284,2163,-4,-429,-4671,23,-44,-19,17
285,2165,-4,-429,-4669,23,-44,-19,18
286,2162,1,-429,-4665,23,-44,-20,17
287,2164,-3,-424,-4671,23,-43,-20,16
288,2157,-5,-430,-4668,23,-43,-19,16
289,2156,-6,-434,-4663,23,-43,-19,17
290,2158,-6,-427,-4664,23,-43,-19,16
291,2161,-1,-430,-4659,23,-44,-20,17
292,2162,0,-431,-4666,23,-43,-20,17
293,2160,-2,-431,-4665,23,-43,-20,17
294,2159,-1,-428,-4668,23,-43,-20,17
295,2160,0,-429,-4669,23,-44,-19,16
296,2159,0,-430,-4666,23,-44,-19,16
297,2162,0,-432,-4663,23,-44,-19,17
298,2160,1,-425,-4666,23,-44,-20,17
299,2158,2,-429,-4670,23,-44,-19,16
300,2160,1,-427,-4668,23,-44,-19,17
301,2161,2,-428,-4670,23,-44,-20,17
302,2162,4,-427,-4672,23,-45,-19,17
303,2160,3,-424,-4670,23,-44,-19,17
304,2162,2,-423,-4673,23,-43,-19,18
305,2159,1,-424,-4667,23,-43,-19,17
306,2159,-3,-423,-4668,23,-43,-19,17
307,2161,-2,-421,-4666,23,-43,-19,17
308,2160,-3,-427,-4663,23,-43,-18,18
309,2157,2,-427,-4665,23,-44,-18,17
310,2157,3,-426,-4668,23,-43,-19,17
311,2155,0,-424,-4672,23,-43,-19,17
312,2159,2,-424,-4661,23,-44,-19,17
313,2159,-2,-424,-4666,23,-44,-18,17
314,2160,-1,-432,-4667,23,-44,-20,17
315,2160,0,-431,-4669,23,-43,-20,16
316,2157,-3,-427,-4670,23,-44,-20,16
317,2156,-2,-428,-4668,23,-44,-19,16
318,2159,-2,-426,-4667,23,-44,-19,16
319,2161,-3,-427,-4666,23,-44,-20,17
320,2159,-4,-433,-4668,23,-42,-20,17
321,2158,-1,-426,-4670,23,-42,-20,17
322,2161,-1,-428,-4671,23,-43,-19,16
323,2163,-1,-430,-4669,23,-42,-19,17
324,2156,3,-424,-4668,23,-44,-20,17
325,2157,3,-426,-4669,23,-44,-19,17
326,2162,-1,-424,-4668,23,-43,-19,17
327,2160,1,-428,-4667,23,-43,-18,18
328,2160,0,-423,-4668,23,-44,-18,17
329,2158,0,-426,-4672,23,-44,-19,16
330,2159,4,-430,-4671,23,-44,-19,16
331,2159,4,-426,-4661,23,-44,-19,17
332,2161,4,-428,-4658,23,-45,-19,17
333,2160,0,-421,-4660,23,-44,-19,17
334,2162,3,-425,-4663,23,-44,-20,17
335,2161,3,-423,-4666,23,-44,-20,16
336,2159,3,-428,-4669,23,-44,-19,17
337,2160,1,-420,-4671,23,-44,-19,16
338,2158,1,-426,-4669,23,-44,-19,17
339,2154,-1,-428,-4670,23,-44,-20,17
340,2159,-1,-429,-4666,23,-44,-20,17
341,2157,-5,-431,-4667,23,-43,-20,17
342,2157,-5,-430,-4664,23,-43,-19,18
343,2160,-2,-428,-4669,23,-44,-20,17
344,2163,-2,-421,-4671,23,-44,-18,18
345,2164,-1,-425,-4669,23,-44,-19,17
346,2160,0,-427,-4667,23,-43,-19,17
347,2159,2,-429,-4664,23,-44,-19,16
348,2160,2,-427,-4668,23,-44,-19,16
349,2161,1,-424,-4665,23,-45,-20,17
350,2158,3,-426,-4661,23,-44,-19,17
351,2155,6,-426,-4666,23,-45,-20,17
352,2161,5,-427,-4667,23,-44,-19,18
353,2159,2,-427,-4663,23,-44,-18,18
354,2154,1,-427,-4664,23,-44,-20,17
355,2157,1,-423,-4661,23,-43,-20,16
356,2158,-2,-424,-4661,23,-43,-19,17
357,2158,-3,-425,-4662,23,-44,-19,17
358,2158,-3,-423,-4662,23,-43,-19,17
359,2157,0,-425,-4669,23,-44,-20,17
360,2155,-4,-424,-4663,23,-44,-19,17
361,2158,-2,-428,-4667,23,-43,-20,17
362,2156,-6,-424,-4665,23,-44,-19,17
363,2158,-6,-428,-4666,23,-44,-19,16
364,2155,-1,-421,-4665,23,-43,-19,17
365,2155,4,-422,-4669,23,-44,-19,16
366,2156,1,-429,-4667,23,-45,-20,16
367,2159,1,-429,-4665,23,-45,-19,16
368,2157,1,-427,-4664,23,-44,-19,16
369,2159,-1,-429,-4669,23,-43,-19,17
370,2161,0,-431,-4667,23,-44,-19,17
371,2161,3,-430,-4666,23,-44,-20,17
372,2158,3,-429,-4665,23,-43,-20,18
373,2158,1,-432,-4664,23,-44,-19,18
374,2160,1,-424,-4662,23,-44,-20,17
375,2158,2,-426,-4664,23,-44,-20,17
376,2159,1,-429,-4661,23,-44,-19,17
377,2161,2,-429,-4660,23,-44,-20,17
378,2159,1,-428,-4662,23,-44,-19,17
379,2160,-1,-427,-4657,23,-44,-18,17
380,2158,0,-432,-4664,23,-44,-19,18
381,2158,1,-430,-4661,23,-44,-18,18
382,2159,0,-430,-4662,23,-44,-19,17
383,2160,0,-427,-4660,23,-43,-19,17
384,2160,0,-430,-4664,23,-44,-19,17
385,2156,6,-426,-4669,23,-44,-18,18
386,2157,5,-430,-4666,23,-43,-19,18
387,2161,3,-432,-4667,23,-44,-18,17
388,2160,1,-424,-4671,23,-44,-18,17
389,2158,-2,-427,-4659,23,-44,-19,17
390,2160,-1,-429,-4666,23,-43,-19,17
391,2161,1,-426,-4668,23,-44,-19,17
392,2161,-2,-426,-4664,23,-44,-20,16
393,2158,2,-418,-4669,23,-44,-20,17
394,2162,0,-421,-4665,23,-44,-20,17
395,2156,-2,-432,-4667,23,-43,-20,17
396,2156,0,-434,-4659,23,-43,-20,17
397,2159,2,-425,-4662,23,-43,-19,17
398,2159,1,-425,-4662,23,-43,-20,16
399,2154,-1,-424,-4662,23,-43,-20,17
400,2157,1,-431,-4666,23,-43,-20,16
401,2160,3,-432,-4669,23,-43,-19,16
402,2162,3,-429,-4669,23,-43,-19,17
403,2158,-3,-433,-4666,23,-44,-19,17
404,2162,0,-427,-4669,23,-45,-19,16
405,2161,0,-429,-4661,23,-45,-19,16
406,2159,2,-428,-4667,23,-44,-19,17
407,2158,0,-429,-4665,23,-44,-21,17
408,2158,-1,-432,-4665,23,-44,-20,17
409,2161,-1,-425,-4663,23,-44,-20,17
410,2157,-2,-424,-4666,23,-44,-19,17
411,2160,0,-425,-4662,23,-44,-19,17
412,2157,0,-423,-4666,23,-43,-19,17
413,2160,3,-427,-4663,23,-44,-19,16
414,2164,4,-427,-4663,23,-44,-20,17
415,2163,0,-431,-4666,23,-44,-19,17
416,2160,2,-428,-4664,23,-44,-19,18
417,2164,3,-428,-4664,23,-44,-20,18
418,2164,3,-428,-4663,23,-44,-20,17
419,2161,2,-430,-4661,23,-44,-19,16
420,2166,1,-422,-4659,23,-44,-19,16
421,2161,2,-428,-4662,23,-42,-19,17
422,2159,6,-427,-4662,23,-44,-20,17
423,2159,6,-429,-4662,23,-43,-18,18
424,2156,2,-427,-4662,23,-44,-18,17
425,2158,4,-430,-4663,23,-44,-20,17
426,2158,4,-427,-4662,23,-44,-19,16
427,2158,4,-427,-4663,23,-44,-19,17
428,2157,3,-429,-4662,23,-44,-20,18
429,2161,2,-426,-4663,23,-44,-20,17
430,2157,0,-427,-4669,23,-42,-19,18
431,2162,1,-429,-4669,23,-44,-19,17
432,2162,1,-428,-4670,23,-43,-19,18
433,2162,3,-426,-4662,23,-44,-19,18
434,2159,1,-432,-4661,23,-44,-18,18
435,2158,-1,-432,-4665,23,-44,-19,17
436,2161,-4,-428,-4663,23,-45,-19,17
437,2159,-5,-432,-4667,23,-44,-18,17
438,2158,-1,-427,-4664,23,-44,-19,17
439,2157,-4,-432,-4664,23,-44,-20,17
440,2154,-2,-424,-4666,23,-44,-20,18
441,2159,0,-424,-4667,23,-44,-20,18
442,2158,1,-430,-4664,23,-44,-19,18
443,2160,1,-427,-4661,23,-44,-19,17
444,2156,-2,-431,-4665,23,-44,-18,17
445,2156,1,-426,-4663,23,-43,-19,18
446,2152,-1,-429,-4666,23,-44,-20,18
447,2153,0,-428,-4665,23,-44,-20,17
448,2154,3,-425,-4666,23,-44,-20,17
449,2157,-2,-425,-4668,23,-44,-19,17
450,2160,-1,-425,-4669,23,-43,-20,17
451,2158,-2,-427,-4669,23,-44,-19,16
452,2158,1,-424,-4672,23,-44,-20,17
453,2160,2,-428,-4669,23,-44,-20,17
454,2159,2,-434,-4668,23,-44,-20,17
455,2155,3,-427,-4668,23,-43,-20,17
456,2160,2,-431,-4668,23,-43,-20,17
457,2160,3,-432,-4673,23,-43,-20,17
458,2159,0,-431,-4665,23,-43,-20,18
459,2160,-2,-432,-4667,23,-43,-20,18
460,2160,0,-431,-4664,23,-44,-19,18
461,2156,-3,-430,-4668,23,-44,-19,17
462,2155,2,-431,-4666,23,-44,-19,17
463,2156,2,-432,-4663,23,-43,-19,17
464,2158,1,-426,-4660,23,-43,-19,17
465,2159,0,-430,-4665,23,-44,-19,17
466,2161,1,-425,-4668,23,-44,-18,17
467,2155,2,-424,-4665,23,-43,-19,17
468,2156,-2,-424,-4665,23,-44,-18,17
469,2157,-2,-426,-4666,23,-44,-18,17
470,2158,-1,-428,-4665,23,-44,-19,17
471,2159,1,-424,-4670,23,-45,-18,17
472,2159,2,-427,-4675,23,-44,-19,18
473,2156,1,-425,-4671,23,-45,-18,17
474,2157,0,-421,-4669,23,-44,-19,17
475,2157,-2,-427,-4665,23,-45,-19,17
476,2158,-1,-429,-4667,23,-44,-19,17
477,2158,-2,-421,-4664,23,-45,-19,18
478,2162,-1,-429,-4666,23,-44,-20,17
479,2159,1,-433,-4671,23,-45,-18,18
480,2157,-3,-435,-4664,23,-44,-19,18
481,2157,-3,-431,-4663,23,-44,-20,17
482,2158,0,-426,-4667,23,-44,-19,17
483,2160,-2,-426,-4665,23,-44,-20,17
484,2158,2,-425,-4667,23,-44,-20,18
485,2155,2,-425,-4663,23,-44,-20,17
486,2156,1,-422,-4666,23,-44,-21,18
487,2158,1,-423,-4665,23,-43,-20,17
488,2157,0,-424,-4663,23,-44,-19,17
489,2154,-2,-427,-4664,23,-44,-19,16
490,2159,-3,-426,-4664,23,-44,-19,16
491,2158,-4,-433,-4660,23,-44,-19,16
492,2157,0,-432,-4661,23,-43,-20,16
493,2163,2,-425,-4666,23,-44,-20,16
494,2161,1,-431,-4662,23,-45,-20,16
495,2156,-1,-429,-4664,23,-44,-19,16
496,2163,1,-426,-4670,23,-44,-20,16
497,2157,1,-423,-4665,23,-44,-19,17
498,2159,1,-422,-4666,23,-44,-19,17
499,2159,1,-429,-4665,23,-43,-19,18
500,2161,0,-427,-4668,23,-43,-19,17
501,2157,1,-428,-4666,23,-44,-19,17
502,2157,1,-424,-4665,23,-44,-18,18
503,2160,5,-426,-4670,23,-44,-19,17
504,2158,0,-428,-4667,23,-44,-19,18
505,2158,-2,-426,-4663,23,-44,-19,17
506,2157,-1,-428,-4665,23,-44,-19,17
507,2157,-3,-431,-4661,23,-44,-19,17
508,2156,0,-429,-4664,23,-44,-19,17
509,2158,1,-426,-4665,23,-44,-20,18
510,2159,0,-424,-4659,23,-44,-21,17
511,2157,3,-421,-4660,23,-44,-19,17
512,2157,2,-425,-4665,23,-44,-19,17
513,2162,-1,-427,-4661,23,-44,-19,17
514,2161,0,-426,-4663,23,-44,-19,18
515,2156,-3,-424,-4669,23,-43,-18,18
516,2159,-1,-427,-4670,23,-45,-19,17
517,2160,3,-430,-4666,23,-44,-19,17
518,2157,0,-422,-4667,23,-44,-18,17
519,2158,1,-424,-4666,23,-44,-18,17
520,2159,3,-427,-4665,23,-45,-18,17
521,2161,-1,-431,-4663,23,-44,-19,17
522,2162,1,-424,-4663,23,-44,-19,18
523,2162,0,-424,-4663,23,-45,-19,17
524,2161,-5,-426,-4665,23,-44,-19,16
525,2158,-4,-430,-4668,23,-44,-19,16
526,2155,-2,-428,-4669,23,-44,-19,16
527,2157,-3,-429,-4666,23,-44,-20,17
528,2161,2,-423,-4663,23,-43,-20,15
529,2161,5,-429,-4665,23,-43,-20,16
530,2160,1,-425,-4665,23,-44,-20,16
531,2158,3,-422,-4666,23,-45,-19,17
532,2161,-1,-423,-4667,23,-44,-19,17
533,2163,4,-426,-4664,23,-44,-20,17
534,2160,1,-426,-4664,23,-44,-19,16
535,2159,1,-429,-4666,23,-44,-20,17
536,2158,3,-424,-4664,23,-44,-20,17
537,2156,2,-427,-4662,23,-43,-21,17
538,2156,1,-428,-4666,23,-43,-20,16
539,2157,2,-430,-4665,23,-43,-20,16
540,2159,0,-424,-4666,23,-44,-19,17
541,2160,0,-422,-4666,23,-45,-19,17
542,2155,3,-425,-4665,23,-43,-19,17
543,2158,-1,-426,-4664,23,-44,-19,16
544,2159,1,-428,-4662,23,-44,-19,17
545,2154,-4,-427,-4666,23,-43,-19,18
546,2154,2,-429,-4663,23,-43,-19,18
547,2161,1,-429,-4663,23,-43,-18,17
548,2160,-2,-433,-4664,23,-45,-18,18
549,2155,1,-423,-4667,23,-43,-19,17
550,2155,2,-425,-4664,23,-44,-19,17
551,2158,-1,-429,-4664,23,-44,-19,17
552,2161,5,-428,-4665,23,-44,-19,18
553,2163,2,-429,-4664,23,-44,-19,17
554,2158,2,-422,-4662,23,-43,-20,18
555,2165,3,-423,-4664,23,-44,-20,17
556,2161,3,-426,-4663,23,-44,-19,17
557,2156,4,-425,-4666,23,-44,-20,18
558,2158,-1,-424,-4657,23,-43,-20,17
559,2157,3,-430,-4662,23,-43,-19,17
560,2158,3,-423,-4664,23,-44,-18,17
561,2158,-1,-424,-4668,23,-44,-19,17
562,2156,-2,-423,-4661,23,-43,-20,17
563,2159,-1,-425,-4664,23,-44,-20,17
564,2161,-1,-423,-4663,23,-44,-20,17
565,2160,-3,-424,-4668,23,-44,-19,17
566,2158,-2,-426,-4664,23,-44,-19,17
567,2156,-4,-426,-4663,23,-43,-20,17
568,2156,0,-430,-4660,23,-44,-19,16
569,2161,1,-426,-4661,23,-44,-20,17
570,2161,-4,-425,-4667,23,-44,-20,17
571,2161,-1,-419,-4665,23,-44,-20,17
572,2162,0,-424,-4663,23,-44,-20,18
573,2161,-1,-421,-4664,23,-43,-21,17
574,2158,0,-420,-4671,23,-45,-20,17
575,2157,3,-424,-4671,23,-44,-19,17
576,2158,-1,-427,-4667,23,-44,-20,17
577,2155,1,-431,-4661,23,-43,-19,17
578,2159,-1,-425,-4664,23,-44,-18,17
579,2159,1,-430,-4663,23,-44,-19,17
580,2160,3,-432,-4661,23,-44,-19,18
581,2160,-2,-426,-4659,23,-43,-19,18
582,2160,-1,-430,-4665,23,-44,-19,18
583,2160,-1,-426,-4668,23,-43,-19,17
584,2158,-3,-423,-4660,23,-44,-19,17
585,2160,-2,-428,-4656,23,-43,-19,16
586,2160,2,-425,-4661,23,-43,-19,17
587,2159,5,-424,-4663,23,-44,-20,18
588,2159,4,-427,-4661,23,-44,-19,18
589,2158,3,-426,-4662,23,-43,-19,17
590,2160,3,-432,-4662,23,-44,-19,17
591,2161,2,-433,-4665,23,-43,-18,17
592,2156,1,-432,-4663,23,-44,-18,18
593,2158,1,-426,-4661,23,-44,-18,17
594,2157,4,-426,-4659,23,-44,-20,17
595,2158,5,-433,-4658,23,-43,-19,17
596,2159,5,-427,-4660,23,-43,-20,18
597,2160,1,-425,-4658,23,-44,-18,17
598,2161,-2,-415,-4656,23,-43,-19,17
599,2159,2,-422,-4654,23,-43,-18,17
600,2159,-2,-427,-4655,23,-44,-18,17
601,2159,-3,-426,-4664,23,-43,-19,16
602,2160,-4,-429,-4660,23,-44,-18,16
603,2158,-4,-428,-4659,23,-44,-19,16
604,2158,-2,-427,-4663,23,-44,-20,17
605,2159,-1,-431,-4666,23,-44,-20,16
606,2159,1,-428,-4666,23,-43,-20,16
607,2163,4,-427,-4662,23,-43,-19,17
608,2160,0,-424,-4660,23,-44,-19,17
609,2157,-1,-427,-4659,23,-44,-20,16
610,2155,-2,-430,-4661,23,-44,-19,17
611,2151,-3,-429,-4665,23,-44,-19,17
612,2155,0,-425,-4662,23,-44,-18,17
613,2159,2,-427,-4662,23,-44,-19,17
614,2163,1,-424,-4659,23,-44,-20,18
615,2161,2,-424,-4661,23,-44,-19,17
616,2156,0,-426,-4666,23,-44,-20,17
617,2154,1,-423,-4663,23,-45,-20,17
618,2160,1,-423,-4659,23,-44,-19,16
619,2156,-2,-431,-4666,23,-44,-19,16
620,2156,0,-431,-4663,23,-44,-19,16
621,2154,-2,-429,-4660,23,-44,-19,17
622,2159,-2,-428,-4663,23,-44,-19,17
623,2156,3,-427,-4661,23,-44,-19,17
624,2158,3,-429,-4659,23,-44,-20,17
625,2154,2,-428,-4659,23,-44,-20,17
626,2158,2,-435,-4658,23,-44,-21,17
627,2156,0,-434,-4656,23,-44,-20,17
628,2155,0,-433,-4656,23,-44,-19,17
629,2157,4,-430,-4660,23,-44,-18,17
630,2156,1,-432,-4657,23,-43,-19,18
631,2157,2,-428,-4661,23,-44,-19,17
632,2163,2,-428,-4658,23,-44,-19,18
633,2161,0,-423,-4657,23,-44,-18,17
634,2159,4,-430,-4652,23,-45,-18,18
635,2157,-1,-423,-4662,23,-44,-19,18
636,2157,-2,-431,-4662,23,-44,-19,17
637,2159,-1,-427,-4661,23,-44,-18,18
638,2161,-1,-425,-4661,23,-43,-18,18
639,2165,-4,-421,-4659,23,-44,-19,18
640,2163,0,-423,-4659,23,-44,-19,17
641,2161,0,-427,-4652,23,-44,-19,17
642,2159,0,-427,-4652,23,-44,-19,16
643,2158,-1,-430,-4653,23,-44,-19,17
644,2162,0,-429,-4660,23,-44,-19,18
645,2161,-2,-432,-4658,23,-44,-20,17
646,2162,-4,-430,-4659,23,-44,-20,17
647,2159,-2,-423,-4660,23,-44,-19,17
648,2163,-2,-425,-4660,23,-44,-19,17
649,2158,2,-426,-4660,23,-43,-19,17
650,2159,-4,-430,-4660,23,-43,-20,18
651,2162,-2,-427,-4658,23,-44,-20,18
652,2162,3,-426,-4659,23,-44,-20,17
653,2159,3,-429,-4659,23,-44,-20,17
654,2161,4,-427,-4655,23,-44,-19,17
655,2161,1,-430,-4654,23,-43,-19,17
656,2158,4,-432,-4659,23,-44,-19,17
657,2160,1,-430,-4659,23,-43,-19,17
658,2158,3,-427,-4660,23,-43,-19,17
659,2154,0,-429,-4657,23,-43,-20,17
660,2159,-1,-430,-4660,23,-43,-20,16
661,2159,2,-427,-4664,23,-43,-20,16
662,2161,-1,-432,-4667,23,-44,-19,17
663,2159,6,-430,-4663,23,-43,-20,17
664,2158,2,-437,-4661,23,-43,-19,17
665,2158,2,-427,-4667,23,-44,-20,17
666,2155,2,-429,-4663,23,-44,-20,16
667,2160,-2,-431,-4665,23,-44,-19,17
668,2162,-5,-429,-4662,23,-43,-19,17
669,2159,-2,-428,-4663,23,-43,-19,18
670,2165,2,-428,-4663,23,-44,-19,17
671,2164,-2,-433,-4663,23,-45,-19,17
672,2159,4,-432,-4670,23,-44,-19,17
673,2157,2,-428,-4666,23,-44,-18,17
674,2156,-1,-427,-4663,23,-44,-18,18
675,2157,3,-432,-4666,23,-43,-18,17
676,2153,2,-431,-4661,23,-43,-19,16
677,2155,-1,-427,-4661,23,-43,-19,17
678,2161,-4,-432,-4662,23,-44,-19,17
679,2160,-4,-428,-4664,23,-43,-18,17
680,2157,0,-429,-4658,23,-43,-19,17
681,2160,0,-427,-4658,23,-45,-18,18
682,2158,-4,-425,-4657,23,-44,-18,18
683,2157,2,-426,-4663,23,-44,-19,17
684,2157,1,-428,-4665,23,-43,-19,17
685,2156,1,-429,-4663,23,-43,-19,18
686,2159,-2,-430,-4660,23,-43,-18,17
687,2159,-1,-426,-4663,23,-44,-19,18
688,2157,-2,-428,-4658,23,-44,-19,18
689,2158,0,-428,-4661,23,-44,-20,17
690,2159,-1,-427,-4662,23,-44,-19,18
691,2156,-2,-430,-4660,23,-44,-19,17
692,2160,0,-427,-4657,23,-44,-19,17
693,2159,2,-425,-4663,23,-44,-19,17
694,2156,1,-425,-4661,23,-44,-20,17
695,2156,0,-431,-4664,23,-44,-20,17
696,2158,-2,-425,-4666,23,-44,-20,17
697,2159,-1,-423,-4664,23,-44,-21,16
698,2154,0,-425,-4662,23,-45,-20,17
699,2157,1,-429,-4660,23,-43,-20,17
700,2156,4,-431,-4659,23,-44,-20,17
701,2158,4,-422,-4659,23,-44,-20,16
702,2158,1,-426,-4659,23,-44,-20,16
703,2157,-1,-429,-4658,23,-44,-20,16
704,2157,0,-432,-4656,23,-44,-19,16
705,2158,3,-433,-4659,23,-43,-19,17
706,2155,2,-426,-4665,23,-44,-20,17
707,2159,2,-428,-4656,23,-43,-19,16
708,2157,1,-432,-4662,23,-44,-20,17
709,2157,0,-432,-4658,23,-44,-19,17
710,2159,-1,-427,-4658,23,-44,-20,17
711,2161,-2,-436,-4652,23,-44,-18,17
712,2160,0,-436,-4661,23,-44,-18,17
713,2159,-1,-428,-4661,23,-43,-18,18
714,2158,0,-429,-4655,23,-43,-18,18
715,2152,1,-425,-4659,23,-45,-19,17
716,2155,4,-424,-4658,23,-44,-20,17
717,2155,4,-427,-4662,23,-44,-19,16
718,2157,5,-431,-4657,23,-44,-19,16
719,2160,3,-425,-4655,23,-44,-19,16
720,2159,0,-424,-4658,23,-44,-18,17
721,2159,3,-421,-4663,23,-44,-19,17
722,2162,-1,-427,-4661,23,-43,-18,17
723,2159,0,-433,-4659,23,-44,-18,18
724,2163,-2,-429,-4657,23,-44,-19,17
725,2162,-2,-426,-4660,23,-43,-19,17
726,2160,-2,-430,-4656,23,-43,-19,17
727,2160,-2,-425,-4654,23,-44,-19,17
728,2155,-5,-429,-4656,23,-43,-20,18
729,2158,-2,-429,-4658,23,-43,-19,17
730,2157,1,-431,-4662,23,-43,-19,17
731,2160,0,-428,-4663,23,-44,-19,18
732,2159,1,-426,-4660,23,-44,-19,18
733,2159,3,-427,-4656,23,-43,-19,17
734,2158,0,-428,-4655,23,-43,-20,17
735,2160,1,-428,-4659,23,-43,-20,17
736,2165,1,-424,-4660,23,-43,-20,17
737,2164,-2,-424,-4660,23,-44,-19,18
738,2164,0,-428,-4655,23,-44,-19,18
739,2161,2,-430,-4659,23,-44,-19,18
740,2160,2,-430,-4657,23,-43,-19,17
741,2160,-3,-426,-4661,23,-44,-20,16
742,2156,0,-419,-4663,23,-43,-20,17
743,2158,3,-425,-4662,23,-44,-21,17
744,2160,5,-426,-4661,23,-44,-20,17
745,2162,1,-428,-4658,23,-43,-19,17
746,2161,2,-430,-4662,23,-43,-20,17
747,2160,-2,-425,-4664,23,-43,-19,17
748,2161,2,-427,-4666,23,-43,-20,17
749,2158,2,-427,-4663,23,-43,-19,16
750,2157,-2,-427,-4663,23,-44,-20,16
751,2158,-2,-423,-4660,23,-44,-19,15
752,2160,-1,-430,-4662,23,-44,-19,16
753,2161,1,-435,-4667,23,-44,-19,16
754,2158,2,-433,-4662,23,-43,-20,17
755,2155,-2,-431,-4663,23,-43,-20,17
756,2154,1,-431,-4666,23,-43,-18,17
757,2158,4,-430,-4658,23,-43,-19,17
758,2163,6,-432,-4660,23,-43,-18,17
759,2161,1,-433,-4662,23,-43,-18,16
760,2160,2,-434,-4662,23,-43,-19,16
761,2156,-1,-429,-4654,23,-44,-19,17
762,2157,-4,-432,-4661,23,-44,-19,17
763,2158,-5,-426,-4661,23,-43,-18,18
764,2157,0,-427,-4655,23,-44,-19,18
765,2160,3,-430,-4654,23,-43,-19,18
766,2167,0,-426,-4660,23,-43,-18,18
767,2164,1,-430,-4661,23,-44,-19,17
768,2157,0,-426,-4662,23,-44,-18,18
769,2156,-3,-426,-4659,23,-44,-19,18
770,2154,1,-429,-4658,23,-44,-18,17
771,2156,3,-429,-4656,23,-44,-19,18
772,2157,2,-433,-4655,23,-43,-19,17
773,2158,1,-429,-4658,23,-44,-19,17
774,2159,5,-427,-4658,23,-44,-20,18
775,2159,3,-424,-4659,23,-44,-20,17
776,2160,0,-419,-4662,23,-44,-20,17
777,2155,-2,-424,-4665,23,-44,-20,17
778,2157,1,-430,-4661,23,-44,-20,17
779,2160,-1,-425,-4659,23,-44,-20,17
780,2159,0,-426,-4657,23,-43,-20,17
781,2159,-8,-429,-4657,23,-44,-20,17
782,2162,-4,-428,-4659,23,-44,-19,17
783,2160,-2,-421,-4661,23,-44,-20,17
784,2163,1,-428,-4661,23,-43,-21,17
785,2159,-1,-422,-4657,23,-44,-20,16
786,2159,0,-419,-4657,23,-43,-20,17
787,2159,2,-427,-4657,23,-44,-18,16
788,2157,4,-422,-4658,23,-43,-20,17
789,2158,-1,-425,-4658,23,-44,-20,17
790,2160,-1,-431,-4662,23,-44,-20,17
791,2159,0,-427,-4658,23,-43,-19,17
792,2159,0,-430,-4659,23,-44,-20,17
793,2158,2,-429,-4656,23,-44,-20,18
794,2155,-2,-430,-4654,23,-44,-20,17
795,2158,5,-429,-4656,23,-45,-19,17
796,2156,2,-431,-4663,23,-44,-19,18
797,2155,0,-430,-4662,23,-44,-20,17
798,2163,1,-424,-4664,23,-44,-19,17
799,2162,4,-428,-4661,23,-44,-19,17
800,2156,0,-424,-4662,23,-44,-19,16
801,2158,-1,-425,-4661,23,-43,-19,17
802,2158,0,-427,-4664,23,-43,-19,17
803,2158,0,-429,-4663,23,-43,-19,17
804,2160,2,-426,-4661,23,-44,-19,17
805,2158,2,-431,-4663,23,-44,-19,17
806,2154,3,-428,-4664,23,-44,-20,17
807,2157,3,-428,-4666,23,-44,-19,17
808,2157,-1,-425,-4661,23,-44,-19,17
809,2157,-1,-431,-4660,23,-44,-19,16
810,2157,-3,-427,-4662,23,-44,-20,16
811,2156,-2,-424,-4660,23,-45,-20,17
812,2154,-2,-428,-4662,23,-44,-19,17
813,2158,-2,-429,-4656,23,-44,-19,18
814,2157,2,-428,-4657,23,-43,-18,17
815,2158,2,-429,-4657,23,-44,-19,18
816,2159,1,-425,-4660,23,-43,-20,18
817,2161,1,-430,-4656,23,-43,-20,18
818,2156,2,-425,-4656,23,-44,-18,17
819,2159,1,-427,-4657,23,-43,-19,17
820,2154,1,-422,-4660,23,-44,-20,17
821,2157,-1,-430,-4659,23,-43,-20,17
822,2157,0,-429,-4656,23,-44,-19,17
823,2159,-1,-424,-4660,23,-44,-19,17
824,2159,-2,-423,-4662,23,-44,-19,17
825,2157,-1,-422,-4663,23,-44,-19,16
826,2156,0,-423,-4662,23,-44,-19,17
827,2160,-1,-424,-4657,23,-44,-19,17
828,2157,0,-424,-4661,23,-43,-19,17
829,2157,0,-424,-4658,23,-43,-20,17
830,2157,-5,-426,-4660,23,-43,-20,17
831,2157,-2,-428,-4658,23,-44,-18,16
832,2160,0,-433,-4662,23,-43,-19,17
833,2157,3,-437,-4656,23,-44,-19,16
834,2159,4,-432,-4655,23,-43,-20,17
835,2159,1,-425,-4661,23,-44,-19,17
836,2157,4,-432,-4656,23,-44,-19,17
837,2158,3,-431,-4661,23,-44,-20,17
838,2158,3,-427,-4661,23,-44,-19,17
839,2156,3,-425,-4664,23,-44,-19,17
840,2158,2,-420,-4658,23,-44,-19,17
841,2160,0,-426,-4658,23,-43,-19,17
842,2159,1,-426,-4662,23,-45,-19,18
843,2159,2,-424,-4662,23,-45,-19,18
844,2161,-1,-428,-4660,23,-44,-20,17
845,2160,3,-426,-4660,23,-43,-21,18
846,2160,2,-422,-4661,23,-43,-20,17
847,2158,6,-426,-4660,23,-43,-19,17
848,2158,2,-427,-4666,23,-44,-19,17
849,2163,0,-431,-4667,23,-43,-18,17
850,2160,-3,-426,-4660,23,-45,-19,17
851,2157,-2,-427,-4658,23,-45,-19,16
852,2154,-2,-434,-4660,23,-44,-19,17
853,2156,0,-423,-4659,23,-43,-19,17
854,2154,0,-425,-4656,23,-43,-19,17
855,2158,-2,-423,-4657,23,-44,-19,17
856,2159,-2,-418,-4659,23,-43,-19,17
857,2155,-3,-424,-4663,23,-44,-19,17
858,2159,0,-424,-4658,23,-44,-19,17
859,2158,1,-423,-4661,23,-44,-19,17
860,2157,0,-425,-4660,23,-43,-19,18
861,2160,2,-422,-4662,23,-44,-20,18
862,2160,-1,-429,-4661,23,-44,-20,17
863,2162,1,-427,-4663,23,-44,-20,17
864,2161,5,-428,-4671,23,-44,-20,17
865,2159,-1,-426,-4666,23,-44,-20,17
866,2158,-1,-426,-4658,23,-44,-20,16
867,2157,0,-422,-4664,23,-44,-20,16
868,2157,-2,-425,-4659,23,-44,-20,17
869,2159,0,-423,-4658,23,-44,-20,16
870,2157,4,-428,-4663,23,-43,-20,17
871,2156,1,-428,-4663,23,-44,-20,17
872,2158,1,-430,-4659,23,-44,-20,17
873,2154,1,-428,-4660,23,-43,-19,16
874,2158,0,-427,-4661,23,-44,-18,16
875,2160,0,-431,-4667,23,-44,-19,17
876,2159,0,-431,-4664,23,-45,-19,17
877,2161,-2,-430,-4665,23,-44,-19,17
878,2159,-2,-429,-4661,23,-44,-18,17
879,2159,-1,-429,-4657,23,-44,-20,18
880,2157,2,-423,-4661,23,-43,-19,17
881,2159,2,-426,-4658,23,-43,-19,16
882,2157,1,-431,-4659,23,-44,-19,17
883,2158,-1,-431,-4653,23,-44,-19,18
884,2162,1,-432,-4652,23,-44,-19,18
885,2160,2,-438,-4660,23,-44,-19,18
886,2159,2,-433,-4655,23,-44,-19,18
887,2157,4,-428,-4663,23,-45,-19,17
888,2157,5,-426,-4657,23,-44,-19,17
889,2156,3,-427,-4665,23,-43,-19,17
890,2157,3,-430,-4659,23,-44,-19,18
891,2157,-1,-431,-4662,23,-44,-19,17
892,2159,0,-428,-4658,23,-45,-19,17
893,2157,0,-429,-4657,23,-45,-19,17
894,2156,-1,-428,-4659,23,-44,-19,17
895,2158,1,-432,-4660,23,-43,-19,17
896,2155,0,-431,-4656,23,-44,-19,18
897,2158,1,-427,-4661,23,-43,-19,18
898,2160,0,-426,-4659,23,-44,-18,18
899,2158,2,-434,-4661,23,-44,-19,18
900,2162,-4,-434,-4662,23,-44,-19,17
901,2158,-2,-429,-4659,23,-44,-19,17
902,2161,0,-432,-4664,23,-44,-19,17
903,2161,-1,-429,-4663,23,-44,-19,17
904,2158,-1,-428,-4663,23,-44,-18,17
905,2155,-3,-428,-4661,23,-43,-20,16
906,2158,-2,-426,-4658,23,-43,-20,16
907,2160,0,-429,-4659,23,-44,-19,16
908,2164,1,-427,-4657,23,-44,-19,17
909,2158,2,-427,-4658,23,-43,-20,16
910,2157,3,-425,-4667,23,-44,-19,16
911,2159,1,-430,-4667,23,-44,-21,16
912,2159,0,-436,-4663,23,-44,-19,17
913,2158,0,-428,-4666,23,-44,-19,17
914,2159,1,-428,-4665,23,-44,-19,16
915,2162,4,-426,-4662,23,-44,-19,16
916,2160,2,-427,-4661,23,-44,-18,17
917,2161,1,-425,-4668,23,-43,-20,17
918,2159,-1,-428,-4661,23,-44,-20,17
919,2159,3,-427,-4661,23,-44,-20,17
920,2157,6,-430,-4660,23,-43,-19,17
921,2157,4,-424,-4660,23,-44,-19,17
922,2157,2,-424,-4661,23,-45,-20,17
923,2156,4,-430,-4657,23,-44,-20,18
924,2159,5,-428,-4667,23,-44,-19,18
925,2159,4,-430,-4668,23,-45,-21,17
926,2159,-2,-431,-4661,23,-44,-21,17
927,2160,-1,-424,-4666,23,-44,-19,17
928,2159,0,-426,-4658,23,-45,-20,17
929,2160,-1,-426,-4653,23,-44,-19,17
930,2163,-2,-429,-4658,23,-44,-19,17
931,2165,-2,-428,-4657,23,-44,-18,16
932,2159,0,-429,-4661,23,-45,-19,17
933,2157,-3,-430,-4656,23,-43,-19,18
934,2159,-4,-428,-4652,23,-44,-19,18
935,2162,0,-429,-4655,23,-44,-19,17
936,2159,-4,-425,-4660,23,-44,-18,17
937,2156,-5,-425,-4658,23,-44,-19,17
938,2157,0,-422,-4658,23,-44,-20,18
939,2158,1,-424,-4664,23,-43,-20,18
940,2160,-2,-424,-4662,23,-43,-19,18
941,2163,1,-423,-4658,23,-44,-20,17
942,2162,2,-424,-4649,23,-43,-19,16
943,2158,4,-430,-4653,23,-44,-20,17
944,2155,3,-423,-4655,23,-45,-19,17
945,2158,5,-425,-4655,23,-44,-19,17
946,2158,-8,-429,-4661,23,-43,-20,18
947,2160,-5,-429,-4663,23,-44,-20,17
948,2158,0,-426,-4664,23,-44,-20,16
949,2156,0,-427,-4662,23,-43,-20,16
950,2157,1,-427,-4650,23,-44,-20,17
951,2162,4,-433,-4656,23,-44,-20,17
952,2160,-1,-434,-4658,23,-44,-19,17
953,2158,2,-432,-4660,23,-45,-20,17
954,2157,1,-430,-4659,23,-44,-19,17
955,2157,0,-429,-4664,23,-44,-19,17
956,2158,2,-429,-4665,23,-44,-19,17
957,2158,2,-424,-4663,23,-44,-20,17
958,2162,1,-424,-4659,23,-44,-19,16
959,2161,-1,-422,-4658,23,-44,-18,16
960,2159,2,-418,-4662,23,-44,-20,17
961,2161,-2,-424,-4662,23,-44,-18,16
962,2160,1,-429,-4662,23,-44,-19,16
963,2158,-5,-422,-4661,23,-44,-19,18
964,2159,-5,-420,-4663,23,-44,-19,17
965,2160,-2,-423,-4658,23,-44,-20,17
966,2155,-2,-426,-4658,23,-44,-19,17
967,2158,2,-426,-4662,23,-44,-19,16
968,2156,3,-431,-4664,23,-44,-19,17
969,2156,6,-425,-4658,23,-44,-19,16
970,2162,5,-424,-4657,23,-44,-18,17
971,2161,4,-421,-4659,23,-43,-19,17
972,2159,5,-419,-4658,23,-43,-19,18
973,2158,2,-428,-4663,23,-43,-20,17
974,2157,4,-428,-4663,23,-44,-19,17
975,2158,5,-429,-4666,23,-45,-19,17
976,2157,2,-421,-4663,23,-45,-18,17
977,2161,2,-422,-4663,23,-44,-20,18
978,2162,-1,-420,-4662,23,-44,-20,17
979,2158,-4,-420,-4659,23,-44,-20,17
980,2159,-6,-429,-4657,23,-44,-19,16
981,2161,-2,-426,-4657,23,-45,-19,17
982,2162,-1,-428,-4658,23,-44,-20,17
983,2162,3,-423,-4660,23,-44,-20,17
984,2161,0,-426,-4660,23,-43,-20,18
985,2159,-2,-426,-4652,23,-44,-20,18
986,2161,0,-430,-4658,23,-44,-20,17
987,2158,-2,-431,-4659,23,-44,-20,16
988,2158,-1,-429,-4660,23,-43,-20,17
989,2161,1,-428,-4662,23,-44,-20,17
990,2161,6,-431,-4661,23,-44,-19,17
991,2158,2,-428,-4665,23,-44,-19,17
992,2156,-4,-430,-4659,23,-44,-20,17
993,2156,-4,-430,-4661,23,-45,-20,18
994,2158,-3,-428,-4657,23,-45,-19,18
995,2158,0,-424,-4656,23,-45,-20,18
996,2156,0,-427,-4661,23,-43,-20,17
997,2158,1,-429,-4659,23,-44,-19,17
998,2157,1,-430,-4665,23,-44,-20,16
