,acc_X,acc_Y,acc_Z,temp,tempC,gyr_X,gyr_Y,gyr_Z
0,4317,9,-863,-4698,23,-351,-144,142
1,4326,7,-864,-4694,23,-345,-144,140
2,4325,8,-878,-4691,23,-342,-147,135
3,4320,5,-873,-4692,23,-344,-153,138
4,4308,4,-864,-4695,23,-344,-148,140
5,4309,4,-859,-4689,23,-347,-152,144
6,4310,3,-864,-4692,23,-344,-154,143
7,4309,4,-869,-4690,23,-345,-153,140
8,4314,10,-854,-4693,23,-341,-156,137
9,4318,11,-860,-4687,23,-349,-151,143
10,4310,4,-874,-4693,23,-344,-149,145
11,4311,12,-863,-4698,23,-347,-151,141
12,4320,8,-861,-4695,23,-345,-156,135
13,4321,9,-858,-4694,23,-339,-156,135
14,4321,12,-859,-4697,23,-339,-152,139
15,4315,10,-855,-4698,23,-342,-153,141
16,4317,4,-860,-4694,23,-348,-156,141
17,4312,5,-857,-4694,23,-346,-152,139
18,4311,3,-861,-4693,23,-347,-146,139
19,4310,5,-875,-4691,23,-341,-154,141
20,4314,3,-851,-4695,23,-341,-151,136
21,4317,3,-860,-4696,23,-347,-156,139
22,4318,3,-866,-4692,23,-342,-159,147
23,4316,-1,-861,-4694,23,-342,-155,135
24,4319,11,-855,-4692,23,-338,-156,136
25,4325,5,-867,-4693,23,-336,-151,138
26,4330,4,-869,-4694,23,-341,-157,142
27,4322,9,-864,-4699,23,-344,-157,141
28,4320,8,-856,-4696,23,-347,-157,145
29,4311,5,-864,-4695,23,-349,-153,136
30,4320,6,-862,-4694,23,-348,-155,134
31,4309,-4,-865,-4695,23,-346,-151,139
32,4311,-1,-868,-4696,23,-337,-152,140
33,4313,12,-859,-4698,23,-342,-148,140
34,4313,7,-864,-4696,23,-340,-152,133
35,4320,10,-859,-4694,23,-346,-148,132
36,4318,1,-867,-4696,23,-348,-148,135
37,4318,3,-862,-4699,23,-345,-150,139
38,4328,2,-874,-4700,23,-343,-151,140
39,4313,4,-866,-4700,23,-344,-158,139
40,4317,4,-870,-4698,23,-349,-149,137
41,4317,4,-867,-4699,23,-352,-144,142
42,4310,7,-876,-4697,23,-345,-147,145
43,4316,7,-863,-4696,23,-345,-152,142
44,4318,7,-862,-4699,23,-344,-153,150
45,4310,4,-854,-4697,23,-345,-152,145
46,4321,7,-860,-4698,23,-343,-149,141
47,4324,0,-862,-4697,23,-342,-148,142
48,4323,5,-857,-4696,23,-344,-150,136
49,4322,7,-860,-4693,23,-342,-151,136
50,4319,1,-870,-4693,23,-342,-149,141
51,4313,2,-865,-4698,23,-344,-155,143
52,4310,8,-862,-4693,23,-340,-152,140
53,4312,1,-870,-4696,23,-343,-147,142
54,4316,3,-855,-4696,23,-345,-154,139
55,4319,6,-860,-4691,23,-348,-153,136
56,4315,8,-864,-4695,23,-343,-149,139
57,4318,14,-855,-4689,23,-341,-160,137
58,4316,5,-855,-4698,23,-350,-152,132
59,4322,0,-859,-4700,23,-346,-145,132
60,4318,7,-857,-4696,23,-338,-152,139
61,4317,5,-871,-4695,23,-346,-150,140
62,4328,6,-865,-4702,23,-353,-152,143
63,4316,-1,-869,-4694,23,-343,-146,135
64,4309,4,-859,-4697,23,-347,-152,134
65,4313,1,-872,-4696,23,-349,-150,138
66,4321,0,-863,-4693,23,-344,-161,137
67,4315,-7,-864,-4697,23,-346,-157,133
68,4318,6,-861,-4694,23,-345,-147,135
69,4311,2,-854,-4691,23,-341,-151,137
70,4315,2,-859,-4694,23,-345,-149,138
71,4321,2,-866,-4695,23,-351,-152,136
72,4313,2,-863,-4694,23,-346,-150,138
73,4317,7,-857,-4695,23,-348,-147,142
74,4315,3,-858,-4700,23,-354,-146,136
75,4316,11,-851,-4699,23,-354,-151,139
76,4316,2,-859,-4698,23,-348,-152,140
77,4321,8,-863,-4690,23,-349,-152,138
78,4318,5,-874,-4693,23,-343,-155,141
79,4319,5,-863,-4695,23,-344,-147,144
80,4315,4,-861,-4696,23,-339,-155,136
81,4315,6,-857,-4694,23,-345,-157,134
82,4314,5,-852,-4693,23,-351,-148,135
83,4322,6,-861,-4698,23,-345,-149,133
84,4315,8,-860,-4699,23,-348,-154,137
85,4311,2,-861,-4697,23,-347,-149,141
86,4318,7,-863,-4701,23,-346,-157,137
87,4319,10,-861,-4700,23,-342,-148,133
88,4312,13,-866,-4702,23,-348,-154,131
89,4317,13,-873,-4697,23,-345,-148,139
90,4322,6,-867,-4697,23,-342,-152,139
91,4312,6,-859,-4694,23,-352,-153,138
92,4320,10,-871,-4693,23,-348,-150,140
93,4316,12,-871,-4700,23,-341,-151,143
94,4315,8,-869,-4703,23,-348,-153,143
95,4325,4,-855,-4702,23,-348,-148,140
96,4323,10,-867,-4704,23,-340,-155,143
97,4328,11,-861,-4698,23,-345,-153,145
98,4322,-2,-856,-4694,23,-342,-152,138
99,4316,13,-862,-4695,23,-342,-158,134
100,4325,2,-862,-4696,23,-342,-155,134
101,4327,10,-855,-4695,23,-341,-155,142
102,4317,11,-862,-4694,23,-339,-146,139
103,4318,10,-865,-4691,23,-345,-152,142
104,4322,11,-859,-4693,23,-349,-146,145
105,4324,8,-856,-4690,23,-354,-150,143
106,4320,5,-868,-4692,23,-347,-153,144
107,4316,8,-863,-4692,23,-346,-155,141
108,4317,15,-855,-4697,23,-344,-150,143
109,4318,12,-864,-4694,23,-352,-150,143
110,4322,14,-861,-4696,23,-350,-155,133
111,4314,9,-866,-4693,23,-346,-149,137
112,4312,7,-862,-4692,23,-346,-156,138
113,4315,10,-858,-4694,23,-349,-156,136
114,4314,9,-864,-4696,23,-344,-142,133
115,4315,8,-864,-4702,23,-344,-151,137
116,4314,4,-858,-4696,23,-339,-149,135
117,4314,4,-861,-4695,23,-348,-144,139
118,4313,5,-860,-4696,23,-346,-146,141
119,4316,0,-857,-4697,23,-351,-151,142
120,4314,-3,-861,-4696,23,-349,-152,135
121,4315,7,-872,-4690,23,-341,-154,136
122,4320,11,-869,-4685,23,-339,-151,141
123,4315,-3,-869,-4694,23,-351,-152,142
124,4322,-2,-858,-4692,23,-341,-155,147
125,4322,8,-861,-4697,23,-346,-158,144
126,4320,13,-874,-4698,23,-343,-149,143
127,4323,11,-853,-4694,23,-349,-145,136
128,4316,6,-861,-4690,23,-350,-150,137
129,4313,0,-860,-4693,23,-347,-149,143
130,4318,4,-871,-4695,23,-344,-157,138
131,4318,3,-871,-4695,23,-347,-151,132
132,4324,3,-861,-4698,23,-348,-158,137
133,4318,4,-848,-4694,23,-344,-150,143
134,4323,-2,-861,-4689,23,-344,-154,145
135,4316,2,-858,-4691,23,-349,-148,140
136,4317,8,-860,-4690,23,-348,-146,140
137,4323,5,-864,-4690,23,-344,-146,141
138,4323,8,-853,-4690,23,-343,-149,139
139,4323,9,-856,-4697,23,-343,-149,143
140,4322,11,-861,-4692,23,-346,-151,144
141,4317,10,-859,-4692,23,-354,-151,144
142,4319,4,-865,-4691,23,-346,-151,145
143,4319,17,-858,-4690,23,-345,-147,143
144,4322,10,-869,-4693,23,-341,-151,139
145,4321,12,-861,-4692,23,-341,-157,140
146,4319,7,-861,-4694,23,-343,-151,139
147,4323,7,-854,-4696,23,-341,-154,140
148,4318,16,-863,-4695,23,-342,-153,137
149,4318,8,-863,-4698,23,-348,-152,142
150,4318,3,-865,-4694,23,-344,-154,143
151,4318,2,-871,-4696,23,-355,-154,138
152,4315,3,-867,-4693,23,-350,-151,143
153,4318,7,-859,-4691,23,-352,-154,140
154,4324,8,-860,-4697,23,-338,-149,138
155,4321,6,-860,-4696,23,-342,-152,132
156,4317,8,-862,-4690,23,-343,-153,136
157,4321,2,-868,-4696,23,-348,-154,135
158,4321,13,-861,-4695,23,-351,-147,133
159,4327,12,-866,-4692,23,-344,-150,143
160,4323,8,-859,-4693,23,-344,-150,136
161,4320,3,-861,-4692,23,-348,-150,140
162,4319,1,-865,-4692,23,-345,-151,145
163,4317,7,-860,-4697,23,-348,-153,140
164,4322,8,-856,-4691,23,-346,-157,142
165,4321,13,-859,-4694,23,-343,-150,139
166,4314,14,-863,-4694,23,-345,-151,138
167,4317,9,-869,-4690,23,-346,-148,142
168,4318,8,-865,-4692,23,-342,-155,143
169,4321,5,-860,-4698,23,-343,-148,141
170,4320,6,-865,-4694,23,-345,-155,145
171,4319,4,-860,-4692,23,-343,-145,140
172,4317,5,-852,-4687,23,-349,-148,145
173,4308,6,-864,-4691,23,-346,-152,144
174,4307,5,-863,-4693,23,-349,-149,143
175,4313,7,-858,-4693,23,-348,-145,138
176,4312,6,-865,-4698,23,-346,-142,138
177,4318,10,-867,-4701,23,-346,-153,139
178,4316,15,-862,-4696,23,-351,-150,142
179,4315,7,-854,-4695,23,-351,-155,146
180,4314,7,-866,-4698,23,-341,-151,142
181,4320,9,-866,-4690,23,-345,-153,143
182,4321,6,-857,-4695,23,-351,-152,142
183,4322,-8,-854,-4694,23,-351,-156,138
184,4321,-6,-859,-4691,23,-355,-163,136
185,4311,0,-866,-4693,23,-350,-157,138
186,4313,6,-870,-4695,23,-348,-155,139
187,4311,13,-859,-4697,23,-342,-151,142
188,4313,9,-851,-4699,23,-339,-158,135
189,4320,12,-856,-4697,23,-337,-151,140
190,4322,10,-853,-4693,23,-345,-149,139
191,4317,0,-858,-4694,23,-349,-145,138
192,4318,10,-859,-4694,23,-343,-148,142
193,4326,9,-862,-4690,23,-340,-149,139
194,4320,13,-859,-4691,23,-344,-152,140
195,4320,12,-852,-4693,23,-348,-154,141
196,4309,2,-856,-4688,23,-347,-147,142
197,4315,6,-851,-4693,23,-344,-149,145
198,4316,9,-851,-4693,23,-341,-151,139
199,4316,8,-860,-4689,23,-350,-152,140
200,4315,10,-853,-4694,23,-348,-160,144
201,4317,7,-860,-4691,23,-341,-151,136
202,4312,5,-862,-4688,23,-340,-142,141
203,4318,1,-860,-4694,23,-336,-150,136
204,4319,5,-869,-4694,23,-336,-157,138
205,4314,6,-863,-4691,23,-342,-149,140
206,4309,9,-856,-4689,23,-345,-150,142
207,4311,10,-864,-4692,23,-342,-151,143
208,4314,3,-866,-4698,23,-345,-149,139
209,4315,9,-850,-4697,23,-342,-143,138
210,4318,13,-842,-4693,23,-346,-148,136
211,4319,9,-850,-4695,23,-342,-152,141
212,4319,15,-853,-4694,23,-339,-151,139
213,4321,14,-860,-4693,23,-345,-153,139
214,4320,10,-870,-4693,23,-352,-159,138
215,4315,11,-868,-4694,23,-342,-159,133
216,4314,12,-865,-4690,23,-351,-150,137
217,4312,10,-858,-4690,23,-349,-150,139
218,4317,8,-859,-4691,23,-334,-148,140
219,4322,11,-865,-4698,23,-340,-142,135
220,4318,0,-862,-4689,23,-347,-140,135
221,4312,-2,-863,-4692,23,-344,-143,140
222,4310,0,-858,-4694,23,-339,-155,135
223,4317,-5,-870,-4689,23,-344,-152,133
224,4318,8,-858,-4684,23,-343,-149,142
225,4316,6,-857,-4696,23,-348,-145,143
226,4322,5,-866,-4697,23,-346,-145,136
227,4321,2,-853,-4694,23,-350,-152,130
228,4323,6,-858,-4698,23,-343,-151,136
229,4322,8,-865,-4696,23,-342,-149,137
230,4324,6,-864,-4696,23,-343,-151,133
231,4317,19,-858,-4691,23,-345,-149,136
232,4318,6,-864,-4690,23,-348,-143,134
233,4317,3,-865,-4690,23,-345,-152,136
234,4323,13,-874,-4694,23,-339,-154,141
235,4322,10,-878,-4692,23,-344,-152,138
236,4322,4,-860,-4694,23,-346,-154,138
237,4317,8,-860,-4695,23,-345,-148,137
238,4316,8,-871,-4697,23,-347,-154,140
239,4316,7,-864,-4692,23,-349,-158,143
240,4312,-1,-860,-4698,23,-343,-148,142
241,4317,1,-858,-4698,23,-337,-141,134
242,4314,9,-872,-4697,23,-345,-140,143
243,4304,2,-855,-4698,23,-352,-152,143
244,4306,2,-867,-4693,23,-347,-157,145
245,4305,1,-865,-4696,23,-346,-150,143
246,4307,4,-870,-4698,23,-347,-148,139
247,4316,5,-871,-4693,23,-343,-156,142
248,4321,11,-872,-4695,23,-346,-150,133
249,4317,2,-867,-4689,23,-343,-158,132
250,4313,4,-854,-4695,23,-344,-156,136
251,4320,10,-861,-4691,23,-351,-153,138
252,4316,3,-850,-4692,23,-355,-151,140
253,4318,18,-863,-4697,23,-349,-157,138
254,4316,18,-868,-4694,23,-347,-158,144
255,4314,7,-861,-4693,23,-350,-156,138
256,4318,-2,-860,-4691,23,-345,-151,136
257,4316,2,-867,-4690,23,-343,-152,137
258,4315,17,-864,-4691,23,-339,-157,145
259,4312,10,-862,-4696,23,-340,-154,136
260,4319,4,-865,-4695,23,-345,-155,134
261,4317,9,-860,-4688,23,-339,-148,142
262,4318,7,-859,-4690,23,-348,-144,144
263,4320,11,-857,-4697,23,-349,-144,144
264,4321,3,-870,-4698,23,-347,-147,140
265,4313,6,-855,-4699,23,-342,-147,141
266,4318,4,-860,-4693,23,-350,-155,141
267,4320,-4,-860,-4689,23,-349,-143,137
268,4311,-1,-860,-4690,23,-350,-149,138
269,4309,3,-864,-4693,23,-353,-148,137
270,4311,8,-854,-4697,23,-349,-150,136
271,4316,8,-869,-4695,23,-349,-152,143
272,4316,-2,-874,-4696,23,-350,-156,134
273,4312,-2,-870,-4698,23,-352,-150,134
274,4314,7,-864,-4695,23,-349,-155,134
275,4315,8,-861,-4699,23,-345,-151,138
276,4321,9,-867,-4696,23,-346,-151,139
277,4321,8,-870,-4702,23,-344,-157,136
278,4317,6,-879,-4697,23,-344,-156,141
279,4315,3,-868,-4694,23,-339,-156,141
280,4312,7,-875,-4691,23,-338,-146,142
281,4312,10,-874,-4694,23,-346,-142,138
282,4312,11,-871,-4694,23,-345,-144,142
283,4314,4,-866,-4692,23,-348,-153,140
284,4313,6,-870,-4693,23,-347,-146,135
285,4320,2,-857,-4695,23,-340,-141,134
286,4317,8,-866,-4698,23,-348,-142,138
287,4312,-5,-857,-4695,23,-348,-152,140
288,4307,2,-860,-4695,23,-346,-152,144
289,4315,4,-850,-4696,23,-350,-157,145
290,4312,11,-859,-4692,23,-349,-149,144
291,4312,1,-858,-4700,23,-349,-161,145
292,4302,11,-863,-4697,23,-349,-160,145
293,4312,8,-866,-4696,23,-343,-152,144
294,4317,1,-865,-4698,23,-351,-153,137
295,4315,3,-862,-4699,23,-345,-159,141
296,4319,7,-856,-4701,23,-350,-152,143
297,4323,11,-866,-4703,23,-350,-143,145
298,4325,7,-855,-4702,23,-349,-151,136
299,4321,3,-855,-4697,23,-348,-149,143
300,4313,4,-863,-4695,23,-348,-149,144
301,4319,15,-871,-4695,23,-343,-157,143
302,4323,5,-862,-4695,23,-350,-155,147
303,4322,7,-862,-4697,23,-344,-147,139
304,4324,12,-862,-4697,23,-346,-151,144
305,4320,7,-866,-4692,23,-346,-149,140
306,4312,-2,-855,-4698,23,-348,-159,140
307,4313,-4,-863,-4695,23,-343,-153,137
308,4315,1,-866,-4697,23,-346,-152,138
309,4317,13,-859,-4693,23,-346,-147,140
310,4318,9,-862,-4693,23,-355,-149,143
311,4316,1,-858,-4690,23,-344,-156,140
312,4318,8,-869,-4694,23,-349,-155,139
313,4321,8,-859,-4698,23,-354,-149,134
314,4314,4,-863,-4697,23,-350,-151,138
315,4312,2,-859,-4691,23,-349,-153,138
316,4321,1,-858,-4692,23,-344,-150,138
317,4322,2,-873,-4695,23,-354,-146,142
318,4320,8,-866,-4700,23,-350,-151,145
319,4322,6,-870,-4697,23,-347,-155,142
320,4314,9,-867,-4693,23,-350,-152,140
321,4317,11,-859,-4691,23,-341,-146,137
322,4314,12,-854,-4695,23,-354,-152,136
323,4315,5,-866,-4696,23,-348,-150,136
324,4314,10,-862,-4689,23,-350,-149,137
325,4317,8,-863,-4694,23,-347,-147,139
326,4324,6,-869,-4696,23,-348,-150,144
327,4320,7,-874,-4696,23,-343,-156,134
328,4324,11,-869,-4693,23,-346,-148,140
329,4315,4,-863,-4697,23,-344,-148,137
330,4317,7,-857,-4691,23,-348,-153,136
331,4318,12,-869,-4694,23,-352,-153,144
332,4317,8,-858,-4700,23,-343,-153,145
333,4320,13,-867,-4691,23,-352,-152,144
334,4317,11,-871,-4698,23,-343,-147,139
335,4321,8,-862,-4695,23,-345,-148,143
336,4326,11,-867,-4698,23,-341,-148,142
337,4319,10,-879,-4692,23,-346,-145,142
338,4320,8,-865,-4691,23,-338,-150,143
339,4324,5,-856,-4692,23,-346,-155,132
340,4317,5,-859,-4691,23,-349,-154,139
341,4316,-2,-860,-4695,23,-344,-156,139
342,4322,2,-862,-4693,23,-353,-160,144
343,4321,3,-857,-4697,23,-351,-151,145
344,4324,3,-856,-4696,23,-347,-157,140
345,4315,4,-853,-4697,23,-339,-157,141
346,4318,5,-851,-4695,23,-341,-150,143
347,4315,-3,-858,-4690,23,-346,-149,136
348,4316,9,-860,-4688,23,-344,-153,137
349,4318,5,-863,-4689,23,-345,-146,138
350,4318,5,-869,-4689,23,-346,-154,144
351,4314,8,-865,-4690,23,-344,-160,133
352,4326,7,-861,-4694,23,-348,-156,138
353,4318,5,-863,-4696,23,-347,-160,141
354,4317,6,-854,-4697,23,-346,-152,142
355,4317,7,-867,-4696,23,-350,-154,142
356,4318,13,-868,-4693,23,-345,-149,139
357,4313,18,-866,-4694,23,-349,-151,139
358,4321,13,-859,-4688,23,-340,-158,139
359,4314,9,-860,-4694,23,-351,-151,137
360,4312,6,-862,-4692,23,-352,-150,138
361,4322,7,-860,-4694,23,-343,-144,138
362,4321,10,-863,-4695,23,-349,-147,138
363,4323,16,-853,-4695,23,-346,-150,139
364,4314,6,-869,-4692,23,-348,-145,141
365,4318,7,-863,-4694,23,-341,-159,143
366,4313,12,-868,-4698,23,-341,-152,145
367,4319,0,-867,-4696,23,-344,-149,140
368,4315,6,-850,-4696,23,-345,-152,139
369,4318,14,-851,-4691,23,-346,-156,138
370,4320,12,-853,-4691,23,-354,-147,146
371,4327,13,-852,-4700,23,-348,-152,142
372,4325,7,-856,-4698,23,-345,-152,141
373,4323,2,-869,-4693,23,-344,-147,135
374,4310,8,-863,-4692,23,-348,-150,138
375,4309,9,-863,-4695,23,-348,-149,139
376,4321,5,-866,-4694,23,-347,-150,143
377,4327,8,-880,-4690,23,-348,-145,141
378,4320,8,-873,-4691,23,-345,-154,136
379,4322,5,-849,-4689,23,-348,-141,136
380,4314,3,-863,-4692,23,-348,-158,139
381,4314,-1,-867,-4691,23,-347,-148,143
382,4321,3,-863,-4691,23,-344,-146,142
383,4320,6,-871,-4691,23,-337,-148,138
384,4316,0,-864,-4690,23,-346,-160,135
385,4314,3,-866,-4689,23,-341,-159,139
386,4322,-2,-863,-4688,23,-353,-147,138
387,4319,1,-865,-4688,23,-349,-149,140
388,4313,4,-865,-4688,23,-351,-148,142
389,4317,0,-868,-4687,23,-344,-145,144
390,4319,6,-866,-4689,23,-347,-142,144
391,4316,8,-859,-4683,23,-342,-147,142
392,4313,8,-864,-4687,23,-347,-145,130
393,4316,10,-869,-4691,23,-340,-146,138
394,4314,11,-867,-4692,23,-346,-148,146
395,4317,3,-864,-4693,23,-346,-147,143
396,4318,-1,-863,-4693,23,-343,-144,138
397,4321,17,-860,-4692,23,-352,-146,143
398,4316,9,-865,-4694,23,-350,-144,144
399,4325,11,-857,-4689,23,-341,-147,134
400,4325,2,-864,-4687,23,-348,-146,142
401,4322,7,-871,-4692,23,-341,-148,142
402,4322,5,-867,-4691,23,-352,-147,143
403,4308,8,-871,-4691,23,-355,-152,140
404,4322,8,-870,-4688,23,-347,-152,138
405,4317,8,-862,-4690,23,-343,-160,138
406,4311,6,-846,-4694,23,-341,-154,151
407,4313,3,-856,-4691,23,-350,-145,141
408,4320,5,-864,-4692,23,-349,-150,139
409,4319,4,-860,-4696,23,-340,-152,140
410,4313,5,-866,-4693,23,-343,-154,138
411,4317,7,-863,-4692,23,-340,-151,139
412,4315,10,-870,-4692,23,-339,-150,141
413,4316,8,-870,-4692,23,-343,-150,135
414,4317,8,-858,-4689,23,-342,-155,141
415,4321,6,-865,-4694,23,-343,-153,143
416,4314,2,-860,-4692,23,-348,-157,143
417,4313,10,-870,-4694,23,-348,-156,140
418,4314,9,-865,-4700,23,-345,-154,136
419,4312,3,-867,-4691,23,-354,-161,146
420,4315,2,-864,-4695,23,-348,-151,139
421,4309,13,-860,-4695,23,-348,-146,139
422,4319,7,-870,-4695,23,-346,-152,140
423,4316,13,-866,-4692,23,-348,-144,140
424,4316,8,-869,-4687,23,-355,-156,140
425,4319,12,-861,-4689,23,-342,-149,142
426,4317,12,-865,-4692,23,-344,-155,141
427,4318,8,-858,-4687,23,-345,-156,138
428,4314,12,-860,-4687,23,-345,-154,143
429,4318,7,-863,-4695,23,-344,-153,141
430,4322,5,-858,-4695,23,-351,-155,139
431,4320,8,-852,-4693,23,-350,-150,135
432,4316,6,-864,-4693,23,-352,-152,140
433,4313,7,-860,-4687,23,-354,-141,134
434,4314,5,-864,-4688,23,-350,-144,135
435,4314,6,-857,-4686,23,-349,-148,136
436,4312,15,-862,-4692,23,-351,-143,139
437,4316,6,-857,-4691,23,-348,-143,141
438,4313,4,-859,-4686,23,-347,-145,144
439,4309,12,-862,-4686,23,-347,-141,142
440,4317,2,-855,-4688,23,-354,-143,140
441,4318,1,-864,-4688,23,-346,-147,142
442,4316,8,-860,-4686,23,-348,-151,140
443,4320,6,-852,-4690,23,-348,-146,137
444,4323,5,-858,-4692,23,-352,-152,141
445,4330,3,-854,-4692,23,-349,-146,135
446,4319,5,-853,-4691,23,-350,-147,136
447,4320,8,-865,-4689,23,-349,-146,136
448,4313,1,-868,-4690,23,-345,-153,140
449,4312,10,-870,-4692,23,-347,-153,139
450,4313,10,-870,-4695,23,-346,-150,141
451,4314,9,-862,-4688,23,-342,-152,137
452,4316,5,-870,-4691,23,-342,-149,141
453,4318,3,-873,-4693,23,-343,-147,140
454,4307,4,-873,-4695,23,-346,-159,138
455,4316,7,-868,-4693,23,-344,-152,143
456,4317,10,-858,-4699,23,-343,-151,143
457,4313,7,-870,-4692,23,-345,-154,144
458,4319,12,-859,-4688,23,-337,-145,139
459,4326,6,-857,-4689,23,-345,-148,135
460,4319,7,-869,-4693,23,-344,-144,137
461,4311,-6,-862,-4695,23,-344,-142,139
462,4326,2,-856,-4688,23,-348,-151,146
463,4318,7,-867,-4690,23,-349,-148,139
464,4316,1,-856,-4695,23,-354,-144,135
465,4320,3,-845,-4693,23,-350,-150,140
466,4320,8,-849,-4690,23,-348,-152,142
467,4318,5,-853,-4694,23,-348,-151,145
468,4318,6,-863,-4694,23,-344,-147,140
469,4312,7,-863,-4691,23,-350,-157,137
470,4311,2,-857,-4689,23,-351,-157,137
471,4316,10,-862,-4688,23,-350,-154,135
472,4319,7,-865,-4682,23,-348,-154,138
473,4317,0,-868,-4685,23,-337,-152,140
474,4314,0,-859,-4686,23,-345,-153,138
475,4312,10,-868,-4690,23,-346,-145,133
476,4316,14,-871,-4695,23,-346,-145,146
477,4323,8,-876,-4692,23,-353,-154,139
478,4329,7,-867,-4691,23,-353,-157,142
479,4322,9,-858,-4688,23,-347,-151,145
480,4324,13,-862,-4691,23,-350,-144,136
481,4316,6,-868,-4692,23,-345,-155,135
482,4315,7,-862,-4688,23,-341,-155,140
483,4315,12,-858,-4693,23,-346,-150,141
484,4314,9,-863,-4692,23,-344,-149,136
485,4320,0,-870,-4687,23,-346,-148,135
486,4315,2,-868,-4687,23,-346,-145,133
487,4319,7,-870,-4690,23,-349,-154,136
488,4318,7,-867,-4692,23,-350,-151,145
489,4313,3,-869,-4689,23,-350,-147,143
490,4311,3,-858,-4691,23,-349,-149,142
491,4313,8,-863,-4690,23,-341,-152,144
492,4309,12,-864,-4688,23,-340,-157,138
493,4314,4,-863,-4690,23,-343,-150,142
494,4315,7,-866,-4691,23,-344,-151,138
495,4317,8,-864,-4690,23,-342,-146,142
496,4316,7,-864,-4691,23,-341,-143,139
497,4316,8,-856,-4689,23,-348,-142,140
498,4322,6,-855,-4689,23,-342,-148,135
499,4321,4,-859,-4689,23,-346,-144,142
500,4318,14,-867,-4687,23,-353,-142,143
501,4318,15,-869,-4681,23,-351,-145,137
502,4320,10,-870,-4693,23,-347,-142,141
503,4314,4,-865,-4687,23,-347,-146,138
504,4319,3,-859,-4687,23,-348,-147,140
505,4317,2,-854,-4687,23,-344,-149,139
506,4312,10,-863,-4687,23,-343,-143,135
507,4318,7,-859,-4689,23,-346,-151,133
508,4308,3,-872,-4688,23,-347,-157,135
509,4314,7,-872,-4688,23,-341,-155,137
510,4313,-1,-861,-4688,23,-344,-156,140
511,4314,1,-858,-4687,23,-348,-156,144
512,4312,-2,-861,-4688,23,-350,-151,141
513,4309,4,-855,-4686,23,-350,-157,135
514,4308,9,-860,-4686,23,-351,-153,138
515,4307,8,-855,-4688,23,-352,-153,144
516,4314,5,-870,-4688,23,-347,-152,138
517,4321,15,-871,-4691,23,-343,-159,144
518,4321,8,-868,-4692,23,-345,-151,133
519,4322,11,-865,-4690,23,-346,-151,134
520,4315,8,-863,-4691,23,-345,-145,142
521,4322,12,-868,-4694,23,-345,-145,140
522,4318,7,-860,-4693,23,-347,-154,138
523,4319,4,-861,-4689,23,-347,-155,143
524,4316,1,-855,-4687,23,-346,-144,140
525,4322,8,-862,-4686,23,-348,-158,132
526,4315,6,-860,-4685,23,-349,-147,135
527,4314,11,-866,-4690,23,-346,-153,132
528,4316,0,-859,-4687,23,-336,-157,146
529,4325,5,-856,-4690,23,-343,-153,146
530,4324,3,-861,-4687,23,-344,-153,143
531,4316,7,-868,-4686,23,-351,-145,143
532,4307,14,-863,-4693,23,-346,-144,142
533,4307,8,-869,-4693,23,-345,-148,132
534,4315,14,-858,-4692,23,-344,-148,142
535,4313,8,-857,-4682,23,-349,-154,143
536,4312,3,-865,-4680,23,-347,-154,138
537,4313,8,-855,-4690,23,-346,-153,141
538,4315,14,-869,-4692,23,-345,-157,144
539,4317,14,-860,-4688,23,-343,-149,142
540,4323,8,-860,-4691,23,-342,-149,141
541,4312,17,-869,-4691,23,-335,-145,144
542,4319,14,-864,-4692,23,-339,-149,137
543,4316,9,-867,-4695,23,-350,-153,135
544,4320,7,-866,-4688,23,-344,-150,143
545,4315,13,-866,-4687,23,-345,-157,138
546,4319,16,-856,-4690,23,-345,-152,134
547,4317,14,-858,-4690,23,-352,-157,140
548,4310,10,-868,-4689,23,-347,-153,145
549,4314,4,-862,-4690,23,-349,-147,145
550,4325,-1,-861,-4693,23,-341,-155,145
551,4319,11,-868,-4687,23,-346,-155,141
552,4325,3,-861,-4687,23,-344,-148,146
553,4318,7,-861,-4692,23,-342,-144,144
554,4320,9,-872,-4691,23,-344,-142,141
555,4312,-2,-863,-4684,23,-344,-147,139
556,4313,1,-851,-4685,23,-335,-150,141
557,4314,0,-856,-4692,23,-333,-159,142
558,4319,11,-865,-4695,23,-339,-148,145
559,4317,9,-857,-4687,23,-343,-155,143
560,4318,13,-863,-4687,23,-347,-152,136
561,4325,15,-859,-4685,23,-343,-148,140
562,4322,10,-859,-4683,23,-340,-150,139
563,4321,7,-862,-4683,23,-346,-149,138
564,4319,15,-855,-4687,23,-345,-150,138
565,4320,7,-863,-4686,23,-340,-149,135
566,4317,3,-853,-4682,23,-344,-151,137
567,4318,5,-851,-4684,23,-346,-146,136
568,4320,7,-853,-4691,23,-343,-156,140
569,4328,8,-856,-4687,23,-336,-166,142
570,4321,6,-863,-4687,23,-348,-153,143
571,4321,5,-864,-4684,23,-339,-152,140
572,4316,10,-861,-4681,23,-346,-153,135
573,4324,5,-865,-4688,23,-353,-147,137
574,4324,-4,-863,-4687,23,-350,-144,139
575,4321,0,-869,-4684,23,-352,-143,142
576,4312,8,-858,-4686,23,-346,-142,138
577,4314,14,-858,-4689,23,-346,-146,141
578,4317,9,-862,-4684,23,-341,-145,140
579,4316,7,-866,-4689,23,-350,-139,139
580,4316,5,-865,-4687,23,-342,-149,143
581,4312,8,-857,-4686,23,-344,-152,142
582,4322,0,-852,-4692,23,-338,-154,142
583,4319,-2,-850,-4687,23,-351,-153,133
584,4314,-4,-872,-4683,23,-357,-144,138
585,4313,3,-868,-4685,23,-355,-147,141
586,4318,5,-878,-4690,23,-348,-148,135
587,4319,3,-860,-4690,23,-346,-146,143
588,4313,5,-865,-4691,23,-346,-147,139
589,4310,3,-857,-4689,23,-345,-145,135
590,4310,3,-868,-4685,23,-350,-153,133
591,4317,9,-865,-4686,23,-351,-148,132
592,4320,8,-875,-4684,23,-350,-153,138
593,4319,7,-870,-4688,23,-354,-157,137
594,4316,11,-870,-4690,23,-351,-151,142
595,4320,13,-869,-4693,23,-349,-157,142
596,4314,9,-853,-4694,23,-344,-147,148
597,4319,6,-863,-4688,23,-347,-144,143
598,4314,1,-866,-4686,23,-358,-153,140
599,4314,8,-856,-4687,23,-354,-154,139
600,4313,8,-857,-4690,23,-346,-152,139
601,4307,6,-855,-4687,23,-339,-158,133
602,4306,8,-870,-4691,23,-348,-147,139
603,4316,12,-860,-4683,23,-352,-153,133
604,4317,5,-865,-4687,23,-350,-147,143
605,4307,4,-865,-4685,23,-345,-149,141
606,4310,11,-872,-4686,23,-343,-143,139
607,4319,-5,-874,-4690,23,-342,-149,137
608,4323,2,-863,-4690,23,-344,-152,135
609,4317,2,-857,-4685,23,-346,-153,138
610,4323,3,-853,-4683,23,-345,-152,132
611,4325,8,-867,-4688,23,-345,-153,142
612,4310,8,-864,-4684,23,-341,-149,141
613,4313,8,-865,-4686,23,-346,-146,133
614,4319,5,-866,-4687,23,-347,-152,142
615,4318,1,-865,-4689,23,-349,-154,140
616,4318,12,-861,-4693,23,-345,-155,141
617,4312,5,-857,-4689,23,-353,-158,146
618,4307,4,-862,-4689,23,-346,-150,142
619,4313,7,-865,-4687,23,-353,-145,137
620,4313,5,-855,-4687,23,-355,-144,141
621,4315,4,-851,-4684,23,-354,-157,145
622,4308,7,-855,-4690,23,-353,-150,137
623,4316,9,-860,-4688,23,-345,-155,145
624,4312,10,-874,-4690,23,-345,-154,146
625,4315,9,-867,-4685,23,-343,-149,145
626,4313,12,-869,-4689,23,-338,-159,144
627,4315,12,-867,-4682,23,-341,-155,143
628,4316,19,-868,-4682,23,-350,-158,139
629,4311,1,-863,-4685,23,-348,-152,142
630,4310,7,-863,-4685,23,-348,-152,136
631,4312,2,-869,-4689,23,-348,-154,142
632,4319,10,-862,-4688,23,-351,-144,146
633,4318,8,-859,-4689,23,-345,-147,140
634,4320,6,-860,-4688,23,-341,-151,143
635,4318,2,-856,-4689,23,-343,-148,135
636,4312,-1,-873,-4694,23,-343,-148,140
637,4316,0,-863,-4689,23,-345,-150,143
638,4315,6,-866,-4685,23,-353,-150,141
639,4312,4,-864,-4686,23,-347,-150,138
640,4309,8,-864,-4687,23,-346,-141,146
641,4306,14,-852,-4692,23,-348,-148,142
642,4306,14,-860,-4689,23,-355,-144,137
643,4311,7,-880,-4690,23,-349,-147,138
644,4311,2,-869,-4690,23,-345,-145,139
645,4317,3,-863,-4689,23,-345,-154,133
646,4315,7,-864,-4690,23,-346,-155,137
647,4315,4,-864,-4692,23,-344,-161,143
648,4320,7,-871,-4688,23,-351,-155,141
649,4312,5,-859,-4687,23,-353,-153,140
650,4318,5,-857,-4686,23,-355,-156,137
651,4313,8,-858,-4691,23,-351,-152,141
652,4317,8,-854,-4687,23,-348,-149,138
653,4317,7,-854,-4691,23,-353,-153,142
654,4312,6,-859,-4693,23,-345,-141,141
655,4314,10,-863,-4693,23,-349,-145,141
656,4310,11,-861,-4690,23,-349,-149,142
657,4310,10,-860,-4688,23,-352,-148,142
658,4318,14,-862,-4687,23,-344,-153,141
659,4320,10,-857,-4689,23,-338,-147,139
660,4314,15,-857,-4687,23,-346,-142,136
661,4313,7,-847,-4690,23,-348,-153,143
662,4323,6,-863,-4687,23,-350,-148,149
663,4314,4,-863,-4682,23,-349,-147,146
664,4316,6,-852,-4687,23,-343,-151,146
665,4316,9,-855,-4681,23,-348,-150,143
666,4316,15,-861,-4682,23,-348,-154,137
667,4312,8,-862,-4683,23,-346,-151,143
668,4312,3,-863,-4688,23,-344,-152,137
669,4317,8,-870,-4691,23,-344,-149,141
670,4319,3,-876,-4688,23,-345,-139,143
671,4323,7,-870,-4687,23,-352,-147,139
672,4317,13,-861,-4687,23,-346,-143,141
673,4316,2,-854,-4691,23,-347,-153,140
674,4313,12,-868,-4685,23,-346,-163,142
675,4314,14,-863,-4689,23,-346,-157,141
676,4310,3,-865,-4688,23,-346,-156,144
677,4307,3,-869,-4689,23,-347,-154,145
678,4314,15,-854,-4692,23,-344,-145,137
679,4322,13,-858,-4688,23,-347,-148,136
680,4322,8,-867,-4690,23,-339,-153,135
681,4320,3,-883,-4690,23,-347,-156,140
682,4321,6,-864,-4691,23,-343,-150,142
683,4318,12,-864,-4689,23,-345,-161,145
684,4320,5,-863,-4686,23,-352,-154,139
685,4319,12,-852,-4687,23,-348,-155,135
686,4322,3,-850,-4685,23,-349,-151,139
687,4311,10,-859,-4684,23,-349,-149,138
688,4314,7,-862,-4685,23,-341,-145,138
689,4316,13,-862,-4690,23,-345,-149,135
690,4319,12,-867,-4691,23,-343,-152,143
691,4319,8,-853,-4689,23,-341,-156,139
692,4322,12,-868,-4692,23,-341,-153,136
693,4323,8,-866,-4690,23,-341,-149,144
694,4317,0,-868,-4689,23,-342,-150,147
695,4317,5,-860,-4691,23,-344,-149,144
696,4311,13,-862,-4688,23,-347,-146,147
697,4311,11,-866,-4690,23,-345,-152,145
698,4314,11,-861,-4693,23,-345,-148,138
699,4313,13,-850,-4688,23,-348,-149,137
700,4310,4,-856,-4683,23,-339,-151,132
701,4304,2,-860,-4689,23,-343,-153,132
702,4314,2,-862,-4690,23,-348,-153,134
703,4317,6,-864,-4686,23,-350,-156,135
704,4314,5,-859,-4688,23,-341,-152,142
705,4320,6,-859,-4688,23,-340,-153,142
706,4317,4,-862,-4688,23,-343,-152,148
707,4319,4,-858,-4685,23,-347,-152,137
708,4316,4,-856,-4693,23,-345,-148,138
709,4316,5,-858,-4690,23,-351,-156,137
710,4323,1,-861,-4692,23,-348,-160,139
711,4312,8,-875,-4684,23,-344,-156,136
712,4311,5,-864,-4683,23,-341,-156,144
713,4313,10,-864,-4689,23,-348,-150,145
714,4315,6,-866,-4693,23,-342,-149,139
715,4315,6,-861,-4688,23,-344,-154,139
716,4322,7,-859,-4691,23,-347,-156,145
717,4318,8,-861,-4687,23,-348,-152,145
718,4323,9,-858,-4683,23,-344,-148,142
719,4321,4,-853,-4689,23,-344,-149,142
720,4325,15,-849,-4688,23,-341,-146,140
721,4327,6,-868,-4686,23,-349,-149,138
722,4320,9,-866,-4686,23,-346,-159,140
723,4325,7,-851,-4683,23,-352,-151,143
724,4314,12,-858,-4687,23,-339,-152,138
725,4315,9,-853,-4683,23,-347,-152,143
726,4311,11,-869,-4687,23,-347,-151,149
727,4315,7,-862,-4687,23,-349,-150,137
728,4320,1,-860,-4688,23,-350,-149,144
729,4322,4,-857,-4688,23,-340,-148,148
730,4317,3,-858,-4686,23,-343,-151,146
731,4315,4,-855,-4694,23,-343,-154,141
732,4324,10,-860,-4687,23,-346,-153,134
733,4327,16,-861,-4689,23,-343,-150,135
734,4318,11,-859,-4691,23,-339,-149,135
735,4321,14,-856,-4685,23,-350,-150,137
736,4321,3,-865,-4687,23,-352,-147,144
737,4328,6,-862,-4686,23,-348,-154,141
738,4326,5,-862,-4688,23,-350,-146,146
739,4323,12,-862,-4688,23,-345,-152,147
740,4317,7,-857,-4692,23,-349,-155,143
741,4322,6,-857,-4691,23,-343,-149,144
742,4320,4,-854,-4686,23,-348,-151,146
743,4315,2,-864,-4682,23,-343,-147,143
744,4316,-3,-861,-4689,23,-345,-147,143
745,4316,10,-863,-4690,23,-350,-149,140
746,4314,3,-856,-4686,23,-339,-149,140
747,4321,8,-860,-4685,23,-348,-147,141
748,4316,11,-858,-4682,23,-353,-152,143
749,4320,10,-854,-4680,23,-341,-158,141
750,4315,9,-845,-4687,23,-342,-147,142
751,4314,10,-841,-4682,23,-344,-158,143
752,4311,15,-855,-4680,23,-351,-154,143
753,4313,8,-851,-4685,23,-346,-156,141
754,4320,15,-857,-4688,23,-349,-148,136
755,4314,16,-859,-4686,23,-345,-146,143
756,4317,15,-862,-4684,23,-353,-147,136
757,4323,18,-865,-4687,23,-352,-154,138
758,4326,9,-869,-4681,23,-352,-157,143
759,4318,14,-867,-4684,23,-346,-149,139
760,4318,6,-861,-4691,23,-340,-147,147
761,4313,5,-866,-4691,23,-341,-155,137
762,4316,8,-873,-4687,23,-346,-151,145
763,4313,7,-868,-4687,23,-340,-149,144
764,4316,3,-861,-4689,23,-343,-146,146
765,4319,6,-867,-4687,23,-343,-145,145
766,4314,5,-856,-4686,23,-343,-156,137
767,4310,8,-860,-4689,23,-348,-149,142
768,4317,8,-870,-4688,23,-345,-158,150
769,4321,5,-865,-4680,23,-341,-155,146
770,4323,7,-862,-4683,23,-350,-153,141
771,4314,10,-855,-4685,23,-350,-146,144
772,4312,6,-849,-4685,23,-353,-145,143
773,4315,13,-861,-4685,23,-348,-154,142
774,4310,12,-869,-4692,23,-347,-156,140
775,4315,2,-868,-4690,23,-340,-153,142
776,4313,8,-861,-4687,23,-344,-156,139
777,4315,9,-854,-4686,23,-337,-162,144
778,4315,4,-868,-4685,23,-341,-157,136
779,4313,3,-861,-4686,23,-345,-152,132
780,4318,5,-855,-4693,23,-350,-150,140
781,4321,10,-858,-4686,23,-353,-155,147
782,4319,9,-866,-4686,23,-347,-154,144
783,4316,14,-859,-4689,23,-347,-152,145
784,4320,7,-870,-4687,23,-343,-149,139
785,4321,11,-875,-4683,23,-363,-151,138
786,4319,11,-860,-4688,23,-356,-154,135
787,4319,11,-861,-4688,23,-351,-149,135
788,4321,12,-862,-4687,23,-354,-154,142
789,4316,10,-860,-4685,23,-352,-150,142
790,4310,5,-859,-4679,23,-344,-152,139
791,4321,1,-857,-4679,23,-348,-151,134
792,4322,8,-859,-4684,23,-348,-151,138
793,4315,11,-856,-4686,23,-347,-144,133
794,4325,11,-859,-4686,23,-347,-151,141
795,4324,9,-861,-4681,23,-351,-160,141
796,4316,8,-859,-4684,23,-344,-157,146
797,4310,3,-850,-4688,23,-349,-153,138
798,4317,10,-858,-4687,23,-346,-150,143
799,4319,5,-858,-4692,23,-343,-150,138
800,4314,7,-856,-4690,23,-342,-152,135
801,4317,9,-855,-4682,23,-344,-144,135
802,4318,2,-868,-4686,23,-343,-160,136
803,4320,5,-873,-4688,23,-342,-156,141
804,4324,7,-858,-4688,23,-346,-146,144
805,4314,5,-856,-4689,23,-345,-135,139
806,4314,7,-869,-4692,23,-342,-149,139
807,4314,6,-861,-4686,23,-341,-148,143
808,4314,5,-864,-4687,23,-345,-151,142
809,4320,6,-864,-4686,23,-350,-150,140
810,4320,11,-858,-4683,23,-346,-150,149
811,4325,9,-863,-4687,23,-348,-156,140
812,4327,10,-867,-4688,23,-345,-156,143
813,4320,7,-869,-4685,23,-348,-155,145
814,4321,6,-867,-4680,23,-345,-150,137
815,4321,9,-865,-4680,23,-344,-159,140
816,4319,10,-869,-4687,23,-343,-150,141
817,4317,10,-877,-4686,23,-347,-157,142
818,4321,6,-864,-4688,23,-344,-151,141
819,4324,3,-867,-4690,23,-342,-148,145
820,4322,3,-859,-4687,23,-346,-151,139
821,4316,3,-857,-4690,23,-351,-157,136
822,4326,4,-858,-4687,23,-346,-150,144
823,4318,2,-862,-4686,23,-349,-151,142
824,4322,1,-859,-4688,23,-348,-150,145
825,4324,-5,-863,-4690,23,-346,-155,141
826,4322,7,-864,-4678,23,-348,-157,139
827,4314,10,-851,-4680,23,-345,-151,138
828,4316,16,-871,-4686,23,-345,-157,142
829,4321,9,-870,-4683,23,-342,-163,142
830,4318,11,-864,-4680,23,-338,-160,140
831,4319,6,-862,-4686,23,-346,-154,143
832,4317,15,-864,-4688,23,-345,-148,144
833,4316,-4,-865,-4686,23,-340,-158,142
834,4309,7,-867,-4683,23,-341,-150,140
835,4318,2,-867,-4685,23,-341,-151,142
836,4307,7,-878,-4686,23,-345,-157,144
837,4311,10,-872,-4685,23,-344,-148,147
838,4316,15,-879,-4680,23,-348,-143,148
839,4302,3,-877,-4680,23,-342,-144,143
840,4311,3,-870,-4684,23,-345,-150,142
841,4311,12,-868,-4689,23,-351,-153,143
842,4312,1,-855,-4688,23,-350,-150,140
843,4313,1,-861,-4687,23,-346,-156,145
844,4322,5,-861,-4691,23,-340,-155,141
845,4320,-2,-874,-4688,23,-347,-147,138
846,4320,5,-868,-4682,23,-350,-153,142
847,4321,15,-862,-4686,23,-351,-151,138
848,4324,15,-859,-4682,23,-347,-145,144
849,4316,4,-872,-4691,23,-350,-149,137
850,4320,8,-862,-4684,23,-349,-155,137
851,4315,2,-861,-4682,23,-349,-154,139
852,4313,3,-862,-4686,23,-345,-153,134
853,4311,10,-865,-4687,23,-342,-159,140
854,4314,3,-861,-4681,23,-347,-158,143
855,4314,5,-858,-4683,23,-351,-150,140
856,4310,0,-867,-4690,23,-348,-152,135
857,4317,1,-872,-4687,23,-344,-155,143
858,4328,2,-868,-4689,23,-351,-148,147
859,4320,2,-856,-4685,23,-344,-151,146
860,4316,4,-868,-4683,23,-349,-149,145
861,4319,1,-865,-4692,23,-349,-152,140
862,4315,6,-861,-4688,23,-348,-152,139
863,4317,5,-861,-4688,23,-349,-153,139
864,4323,6,-853,-4688,23,-346,-154,138
865,4322,9,-858,-4683,23,-343,-152,142
866,4319,9,-862,-4689,23,-352,-145,142
867,4317,9,-867,-4689,23,-346,-145,142
868,4317,4,-857,-4687,23,-350,-149,140
869,4322,4,-866,-4682,23,-350,-152,135
870,4320,4,-870,-4688,23,-348,-147,148
871,4322,6,-870,-4681,23,-350,-152,144
872,4321,6,-871,-4679,23,-348,-158,140
873,4314,3,-861,-4681,23,-342,-155,142
874,4318,7,-865,-4684,23,-347,-156,139
875,4315,8,-869,-4680,23,-348,-155,134
876,4316,4,-860,-4688,23,-352,-155,131
877,4311,2,-858,-4683,23,-350,-148,144
878,4312,7,-858,-4685,23,-350,-152,139
879,4322,9,-862,-4680,23,-351,-145,139
880,4319,3,-849,-4685,23,-350,-152,135
881,4318,1,-859,-4684,23,-353,-153,137
882,4316,8,-858,-4687,23,-349,-151,145
883,4312,10,-859,-4684,23,-342,-151,139
884,4312,7,-858,-4688,23,-351,-147,141
885,4305,17,-869,-4685,23,-348,-152,139
886,4314,4,-871,-4688,23,-350,-153,133
887,4308,4,-876,-4688,23,-355,-147,134
888,4317,9,-879,-4685,23,-358,-146,133
889,4316,15,-867,-4688,23,-346,-144,136
890,4316,15,-857,-4682,23,-351,-144,138
891,4316,11,-853,-4684,23,-350,-155,137
892,4320,7,-867,-4686,23,-351,-155,140
893,4313,5,-863,-4690,23,-352,-149,142
894,4309,8,-877,-4685,23,-353,-147,144
895,4321,8,-871,-4690,23,-343,-150,137
896,4316,7,-860,-4688,23,-349,-149,138
897,4318,6,-854,-4682,23,-352,-155,136
898,4321,3,-870,-4682,23,-349,-154,138
899,4314,8,-869,-4683,23,-351,-152,141
900,4318,7,-862,-4680,23,-345,-153,145
901,4320,3,-852,-4680,23,-346,-154,138
902,4318,5,-855,-4680,23,-355,-148,145
903,4313,11,-848,-4686,23,-351,-150,141
904,4322,11,-870,-4685,23,-351,-148,137
905,4313,16,-856,-4682,23,-351,-151,140
906,4307,9,-862,-4680,23,-345,-151,138
907,4319,11,-870,-4686,23,-342,-154,142
908,4320,11,-864,-4687,23,-346,-148,139
909,4319,2,-862,-4688,23,-348,-150,136
910,4315,7,-863,-4687,23,-343,-151,144
911,4315,5,-864,-4687,23,-346,-152,147
912,4318,7,-856,-4688,23,-348,-147,144
913,4319,11,-858,-4683,23,-351,-148,140
914,4315,8,-857,-4684,23,-347,-145,142
915,4315,8,-867,-4679,23,-343,-151,139
916,4319,3,-861,-4677,23,-345,-150,143
917,4322,4,-856,-4681,23,-347,-147,150
918,4317,2,-857,-4680,23,-346,-146,145
919,4317,3,-861,-4685,23,-352,-144,141
920,4313,3,-861,-4685,23,-358,-154,141
921,4307,8,-861,-4686,23,-353,-152,144
922,4316,8,-858,-4685,23,-350,-150,140
923,4317,5,-865,-4684,23,-356,-152,143
924,4329,7,-860,-4682,23,-351,-148,140
925,4313,11,-859,-4686,23,-346,-152,135
926,4319,11,-858,-4691,23,-345,-150,134
927,4324,3,-860,-4687,23,-351,-150,135
928,4318,4,-854,-4686,23,-350,-145,139
929,4319,8,-862,-4682,23,-347,-145,132
930,4316,8,-866,-4681,23,-346,-148,137
931,4314,0,-862,-4685,23,-346,-147,131
932,4312,-3,-863,-4684,23,-350,-147,134
933,4323,1,-868,-4686,23,-352,-150,134
934,4319,1,-855,-4685,23,-342,-150,138
935,4317,5,-854,-4685,23,-346,-144,143
936,4316,11,-859,-4687,23,-339,-143,137
937,4314,5,-852,-4688,23,-351,-154,136
938,4311,1,-859,-4687,23,-349,-151,140
939,4317,1,-864,-4687,23,-344,-151,142
940,4316,-1,-869,-4685,23,-347,-148,139
941,4324,3,-860,-4687,23,-353,-150,142
942,4328,4,-855,-4687,23,-348,-149,143
943,4321,3,-856,-4689,23,-352,-155,141
944,4323,5,-858,-4682,23,-346,-157,143
945,4318,9,-860,-4682,23,-346,-143,138
946,4319,8,-862,-4678,23,-344,-148,135
947,4314,11,-854,-4680,23,-337,-145,135
948,4320,7,-861,-4684,23,-345,-156,137
949,4314,5,-871,-4683,23,-346,-148,138
950,4312,6,-867,-4682,23,-343,-149,140
951,4321,5,-870,-4685,23,-344,-145,144
952,4319,11,-859,-4679,23,-347,-150,137
953,4316,4,-867,-4679,23,-350,-159,140
954,4323,3,-864,-4683,23,-340,-159,142
955,4330,11,-863,-4689,23,-346,-156,146
956,4324,5,-849,-4684,23,-345,-153,139
957,4321,7,-862,-4681,23,-343,-148,137
958,4324,0,-866,-4684,23,-343,-148,138
959,4318,5,-863,-4678,23,-346,-148,142
960,4319,3,-869,-4680,23,-345,-148,140
961,4321,7,-874,-4678,23,-344,-148,132
962,4327,8,-867,-4682,23,-346,-147,129
963,4318,12,-871,-4684,23,-344,-149,137
964,4309,4,-861,-4682,23,-344,-150,142
965,4310,3,-865,-4679,23,-349,-146,144
966,4320,-2,-853,-4679,23,-348,-146,141
967,4314,0,-864,-4685,23,-343,-143,146
968,4317,4,-870,-4685,23,-346,-146,141
969,4320,6,-861,-4685,23,-344,-148,142
970,4320,13,-863,-4682,23,-343,-155,139
971,4319,3,-868,-4681,23,-344,-160,135
972,4319,5,-860,-4681,23,-342,-158,135
973,4312,8,-867,-4681,23,-350,-159,138
974,4317,14,-864,-4682,23,-350,-157,143
975,4314,8,-863,-4684,23,-352,-150,140
976,4316,11,-869,-4685,23,-344,-149,138
977,4323,10,-868,-4686,23,-350,-153,137
978,4325,11,-873,-4679,23,-353,-160,138
979,4317,4,-876,-4679,23,-346,-151,131
980,4325,9,-873,-4682,23,-346,-152,140
981,4317,10,-872,-4680,23,-345,-148,144
982,4323,5,-859,-4683,23,-349,-156,133
983,4325,5,-861,-4683,23,-346,-148,132
984,4310,1,-862,-4683,23,-350,-148,139
985,4315,6,-865,-4683,23,-349,-147,135
986,4313,7,-858,-4684,23,-349,-146,138
987,4308,2,-857,-4684,23,-355,-152,143
988,4317,1,-856,-4682,23,-350,-151,146
989,4315,6,-865,-4686,23,-345,-154,149
990,4311,2,-861,-4688,23,-341,-154,146
991,4307,4,-869,-4688,23,-351,-151,144
992,4312,8,-859,-4684,23,-351,-150,146
993,4321,7,-866,-4686,23,-349,-141,141
994,4326,15,-859,-4682,23,-343,-145,146
995,4318,8,-862,-4686,23,-348,-155,145
996,4315,13,-871,-4680,23,-344,-146,138
997,4315,12,-866,-4684,23,-339,-142,143
998,4309,5,-867,-4680,23,-346,-152,139
