,acc_X,acc_Y,acc_Z,temp,tempC,gyr_X,gyr_Y,gyr_Z
0,17288,18,-3410,-4865,22,-345,-151,133
1,17290,16,-3408,-4865,22,-345,-150,133
2,17292,18,-3400,-4865,22,-344,-151,133
3,17290,10,-3384,-4866,22,-343,-153,135
4,17286,8,-3388,-4865,22,-346,-154,134
5,17276,12,-3392,-4863,22,-343,-153,134
6,17276,16,-3392,-4863,22,-342,-153,135
7,17266,18,-3388,-4862,22,-342,-153,135
8,17274,18,-3398,-4863,22,-341,-155,134
9,17270,16,-3392,-4862,22,-342,-153,135
10,17270,18,-3384,-4860,22,-342,-156,136
11,17274,12,-3396,-4861,22,-341,-156,137
12,17274,14,-3410,-4862,22,-340,-153,137
13,17266,14,-3412,-4862,22,-341,-153,137
14,17266,18,-3402,-4861,22,-343,-155,139
15,17270,22,-3414,-4859,22,-341,-152,138
16,17270,28,-3410,-4857,22,-343,-152,138
17,17282,16,-3398,-4857,22,-342,-152,137
18,17280,10,-3400,-4857,22,-342,-150,139
19,17292,14,-3404,-4857,22,-345,-148,140
20,17282,14,-3384,-4857,22,-343,-147,139
21,17278,12,-3394,-4857,22,-343,-147,139
22,17278,6,-3406,-4856,22,-345,-147,140
23,17272,12,-3418,-4856,22,-346,-147,137
24,17276,12,-3416,-4856,22,-343,-148,138
25,17286,12,-3428,-4853,22,-343,-149,138
26,17280,0,-3418,-4853,22,-343,-149,136
27,17274,12,-3402,-4853,22,-342,-149,136
28,17276,6,-3410,-4855,22,-341,-147,134
29,17270,6,-3402,-4854,22,-342,-149,136
30,17272,10,-3400,-4852,22,-341,-148,137
31,17272,18,-3392,-4854,22,-346,-150,138
32,17276,20,-3394,-4851,22,-344,-150,140
33,17284,12,-3396,-4852,22,-345,-150,139
34,17282,10,-3406,-4852,22,-341,-150,137
35,17284,0,-3410,-4851,22,-342,-146,138
36,17282,-2,-3402,-4849,22,-341,-148,138
37,17276,8,-3410,-4850,22,-341,-149,139
38,17280,16,-3412,-4849,22,-341,-150,139
39,17280,8,-3404,-4851,22,-341,-149,139
40,17286,6,-3406,-4850,22,-342,-149,140
41,17280,14,-3414,-4848,22,-343,-148,139
42,17274,18,-3408,-4847,22,-342,-149,139
43,17276,16,-3400,-4847,22,-342,-148,140
44,17280,6,-3396,-4847,22,-340,-150,140
45,17282,4,-3396,-4847,22,-340,-150,138
46,17282,4,-3406,-4847,22,-341,-151,138
47,17272,6,-3390,-4846,22,-342,-150,139
48,17270,26,-3406,-4845,22,-345,-151,139
49,17268,24,-3398,-4846,22,-346,-151,140
50,17272,14,-3398,-4843,22,-343,-152,138
51,17270,12,-3392,-4845,22,-344,-155,139
52,17268,16,-3396,-4846,22,-345,-155,137
53,17272,14,-3400,-4847,22,-345,-151,135
54,17278,10,-3398,-4846,22,-344,-151,136
55,17284,2,-3394,-4848,22,-344,-150,137
56,17300,4,-3392,-4848,22,-345,-151,136
57,17294,6,-3402,-4846,22,-344,-150,136
58,17290,12,-3394,-4845,22,-341,-150,137
59,17282,14,-3392,-4844,22,-341,-148,137
60,17290,20,-3402,-4845,22,-342,-149,135
61,17292,16,-3398,-4845,22,-341,-151,137
62,17286,18,-3408,-4845,22,-342,-150,137
63,17288,16,-3408,-4843,22,-344,-148,136
64,17288,10,-3406,-4843,22,-345,-150,137
65,17292,8,-3410,-4843,22,-346,-150,138
66,17294,8,-3404,-4842,22,-344,-149,138
67,17288,14,-3406,-4840,22,-346,-147,136
68,17290,14,-3404,-4841,22,-343,-147,137
69,17300,8,-3408,-4841,22,-343,-146,135
70,17290,6,-3412,-4839,22,-342,-149,134
71,17274,6,-3418,-4841,22,-343,-150,136
72,17278,14,-3420,-4841,22,-344,-152,134
73,17280,10,-3414,-4840,22,-343,-154,135
74,17278,14,-3404,-4840,22,-343,-153,138
75,17276,16,-3404,-4840,22,-344,-154,137
76,17278,16,-3398,-4842,22,-345,-151,137
77,17290,14,-3398,-4844,22,-342,-151,138
78,17292,14,-3400,-4844,22,-342,-152,137
79,17292,16,-3424,-4842,22,-343,-153,139
80,17292,16,-3444,-4840,22,-343,-152,139
81,17288,10,-3440,-4839,22,-341,-152,136
82,17280,4,-3426,-4838,22,-343,-152,136
83,17278,4,-3420,-4836,22,-341,-151,138
84,17280,6,-3412,-4835,22,-341,-150,137
85,17274,14,-3404,-4834,22,-342,-149,136
86,17280,4,-3408,-4834,22,-344,-149,137
87,17290,0,-3412,-4836,22,-345,-151,136
88,17290,4,-3406,-4837,22,-344,-153,137
89,17290,12,-3402,-4837,22,-343,-153,137
90,17286,16,-3410,-4838,22,-341,-154,137
91,17284,14,-3422,-4837,22,-343,-152,140
92,17286,6,-3412,-4837,22,-339,-150,139
93,17288,10,-3416,-4836,22,-337,-151,139
94,17284,14,-3392,-4835,22,-339,-151,139
95,17284,18,-3400,-4835,22,-339,-154,138
96,17278,20,-3400,-4833,22,-338,-153,140
97,17278,18,-3398,-4833,22,-339,-154,141
98,17282,18,-3392,-4833,22,-337,-156,139
99,17286,20,-3396,-4834,22,-337,-154,138
100,17286,16,-3394,-4833,22,-340,-151,137
101,17280,20,-3398,-4831,22,-343,-152,138
102,17272,20,-3392,-4832,22,-344,-155,140
103,17274,2,-3396,-4831,22,-343,-155,139
104,17270,6,-3404,-4830,22,-344,-154,138
105,17272,18,-3390,-4831,22,-342,-154,139
106,17280,14,-3392,-4832,22,-339,-152,140
107,17276,6,-3388,-4831,22,-340,-150,141
108,17276,-2,-3382,-4832,22,-342,-149,141
109,17278,-4,-3390,-4831,22,-343,-147,140
110,17272,8,-3398,-4831,22,-344,-148,140
111,17278,4,-3390,-4829,22,-344,-149,140
112,17292,8,-3384,-4830,22,-345,-150,141
113,17296,4,-3376,-4831,22,-344,-150,141
114,17284,10,-3388,-4832,22,-343,-153,140
115,17288,-2,-3390,-4830,22,-344,-152,138
116,17282,4,-3366,-4827,22,-347,-149,138
117,17290,-2,-3384,-4826,22,-346,-149,138
118,17290,0,-3390,-4826,22,-348,-151,137
119,17290,-2,-3406,-4827,22,-348,-151,136
120,17286,4,-3400,-4826,22,-349,-151,137
121,17286,-6,-3406,-4828,22,-347,-150,135
122,17288,4,-3398,-4826,22,-346,-150,137
123,17286,10,-3402,-4826,22,-346,-148,136
124,17292,0,-3390,-4827,22,-347,-148,136
125,17282,2,-3396,-4826,22,-347,-150,136
126,17272,2,-3404,-4827,22,-346,-151,136
127,17272,6,-3406,-4825,22,-344,-152,137
128,17278,10,-3416,-4825,22,-343,-152,136
129,17266,4,-3416,-4825,22,-345,-153,136
130,17268,12,-3428,-4826,22,-345,-154,135
131,17258,16,-3436,-4825,22,-342,-154,137
132,17272,18,-3430,-4826,22,-343,-154,135
133,17280,2,-3428,-4825,22,-344,-154,136
134,17286,4,-3436,-4824,22,-344,-156,138
135,17280,14,-3426,-4825,22,-342,-154,135
136,17282,6,-3418,-4827,22,-342,-153,137
137,17288,14,-3406,-4825,22,-344,-154,138
138,17284,14,-3398,-4824,22,-343,-154,139
139,17290,6,-3400,-4824,22,-344,-152,137
140,17280,6,-3400,-4825,22,-341,-153,138
141,17274,8,-3390,-4826,22,-342,-152,138
142,17284,4,-3390,-4827,22,-342,-154,139
143,17280,4,-3400,-4826,22,-341,-155,140
144,17280,-2,-3404,-4824,22,-343,-155,141
145,17280,4,-3410,-4825,22,-343,-155,138
146,17276,0,-3412,-4826,22,-343,-153,139
147,17286,2,-3422,-4825,22,-342,-151,138
148,17294,20,-3434,-4823,22,-344,-150,138
149,17290,20,-3408,-4822,22,-346,-150,139
150,17284,16,-3428,-4822,22,-346,-149,140
151,17286,16,-3414,-4825,22,-346,-150,142
152,17286,14,-3402,-4823,22,-347,-151,142
153,17286,20,-3410,-4824,22,-349,-153,140
154,17284,20,-3408,-4822,22,-346,-151,140
155,17284,24,-3394,-4821,22,-344,-149,141
156,17282,26,-3384,-4822,22,-343,-152,141
157,17268,18,-3372,-4823,22,-344,-153,140
158,17268,14,-3378,-4824,22,-345,-152,141
159,17268,2,-3390,-4824,22,-345,-149,140
160,17274,-4,-3390,-4823,22,-343,-147,140
161,17278,-4,-3376,-4823,22,-346,-146,138
162,17280,-2,-3396,-4821,22,-344,-146,137
163,17278,8,-3400,-4821,22,-342,-148,137
164,17278,14,-3400,-4822,22,-342,-151,137
165,17270,10,-3390,-4821,22,-343,-151,139
166,17264,8,-3392,-4822,22,-344,-151,140
167,17274,-4,-3400,-4821,22,-342,-150,141
168,17276,2,-3396,-4821,22,-342,-149,140
169,17282,2,-3404,-4823,22,-343,-149,139
170,17280,2,-3396,-4822,22,-344,-152,137
171,17274,8,-3394,-4820,22,-344,-150,135
172,17280,8,-3394,-4818,22,-345,-151,136
173,17280,6,-3398,-4818,22,-343,-151,136
174,17282,6,-3388,-4817,22,-344,-149,135
175,17276,14,-3404,-4818,22,-344,-151,135
176,17278,16,-3402,-4817,22,-345,-152,135
177,17280,16,-3416,-4817,22,-345,-153,136
178,17272,20,-3396,-4817,22,-345,-151,137
179,17280,18,-3380,-4817,22,-344,-150,138
180,17284,14,-3374,-4816,22,-344,-151,136
181,17288,14,-3380,-4818,22,-344,-151,135
182,17288,18,-3386,-4817,22,-342,-151,137
183,17282,18,-3396,-4819,22,-343,-148,136
184,17280,12,-3388,-4819,22,-342,-147,136
185,17282,18,-3384,-4819,22,-342,-148,137
186,17274,14,-3390,-4819,22,-343,-147,139
187,17266,4,-3398,-4819,22,-343,-150,137
188,17276,0,-3402,-4818,22,-342,-149,138
189,17280,4,-3382,-4816,22,-339,-149,139
190,17282,-2,-3392,-4818,22,-342,-150,142
191,17286,-8,-3390,-4817,22,-342,-151,140
192,17282,-2,-3386,-4818,22,-343,-151,139
193,17282,2,-3390,-4819,22,-343,-149,140
194,17292,4,-3382,-4818,22,-344,-150,137
195,17286,-6,-3386,-4815,22,-344,-152,139
196,17282,-8,-3392,-4815,22,-346,-151,138
197,17286,-8,-3396,-4817,22,-344,-152,137
198,17278,-8,-3414,-4816,22,-343,-153,138
199,17278,-8,-3414,-4816,22,-342,-153,137
200,17286,-12,-3402,-4817,22,-343,-154,138
201,17284,-14,-3398,-4816,22,-344,-151,138
202,17276,-16,-3404,-4815,22,-345,-154,139
203,17284,-6,-3384,-4815,22,-343,-152,138
204,17278,-8,-3394,-4814,22,-341,-151,138
205,17278,-2,-3394,-4815,22,-341,-151,138
206,17284,2,-3388,-4815,22,-345,-149,138
207,17282,2,-3384,-4812,22,-345,-149,136
208,17288,14,-3386,-4812,22,-343,-146,138
209,17288,14,-3378,-4812,22,-342,-146,138
210,17286,10,-3382,-4813,22,-346,-147,137
211,17288,4,-3380,-4813,22,-346,-149,135
212,17290,4,-3384,-4812,22,-345,-148,137
213,17274,4,-3382,-4812,22,-346,-148,136
214,17276,2,-3396,-4812,22,-346,-152,136
215,17272,8,-3392,-4814,22,-348,-152,136
216,17276,12,-3388,-4812,22,-348,-151,137
217,17280,22,-3394,-4813,22,-349,-151,137
218,17274,28,-3394,-4812,22,-348,-151,135
219,17276,24,-3398,-4814,22,-346,-152,136
220,17282,30,-3398,-4813,22,-346,-151,138
221,17278,28,-3404,-4813,22,-350,-150,137
222,17282,20,-3398,-4813,22,-349,-148,137
223,17280,18,-3394,-4814,22,-348,-150,139
224,17288,16,-3388,-4812,22,-348,-149,139
225,17284,16,-3398,-4811,22,-347,-148,139
226,17278,12,-3398,-4811,22,-347,-148,140
227,17280,10,-3398,-4811,22,-345,-149,139
228,17286,10,-3394,-4810,22,-347,-150,139
229,17276,10,-3392,-4810,22,-347,-150,137
230,17280,12,-3388,-4808,22,-347,-153,137
231,17268,12,-3370,-4809,22,-346,-154,137
232,17270,10,-3372,-4809,22,-346,-156,137
233,17268,12,-3378,-4811,22,-345,-154,137
234,17274,6,-3400,-4810,22,-344,-154,137
235,17274,0,-3404,-4810,22,-345,-153,137
236,17268,8,-3400,-4811,22,-346,-152,137
237,17270,6,-3412,-4811,22,-344,-153,139
238,17274,12,-3398,-4812,22,-343,-150,140
239,17276,14,-3386,-4810,22,-342,-151,140
240,17282,20,-3402,-4811,22,-342,-151,140
241,17276,20,-3402,-4812,22,-344,-153,140
242,17266,14,-3400,-4812,22,-344,-156,139
243,17272,22,-3392,-4811,22,-346,-154,138
244,17280,22,-3402,-4811,22,-343,-157,138
245,17294,20,-3402,-4809,22,-343,-154,137
246,17290,10,-3412,-4809,22,-344,-153,138
247,17280,16,-3402,-4809,22,-346,-154,138
248,17282,24,-3402,-4809,22,-345,-153,138
249,17280,24,-3396,-4809,22,-345,-152,139
250,17272,26,-3390,-4809,22,-345,-151,138
251,17280,28,-3386,-4809,22,-347,-148,140
252,17292,32,-3392,-4810,22,-344,-150,141
253,17304,18,-3400,-4811,22,-345,-150,139
254,17284,14,-3414,-4810,22,-346,-147,140
255,17282,4,-3402,-4811,22,-345,-147,140
256,17274,4,-3400,-4809,22,-346,-148,138
257,17278,12,-3408,-4807,22,-345,-150,137
258,17280,8,-3408,-4807,22,-346,-153,138
259,17278,12,-3408,-4807,22,-344,-154,139
260,17280,6,-3398,-4808,22,-347,-155,137
261,17278,6,-3384,-4808,22,-346,-156,137
262,17278,4,-3396,-4808,22,-346,-153,139
263,17282,0,-3400,-4809,22,-345,-153,139
264,17278,-2,-3402,-4808,22,-346,-153,138
265,17282,2,-3394,-4808,22,-345,-152,139
266,17288,12,-3404,-4809,22,-346,-152,140
267,17288,14,-3394,-4809,22,-346,-151,139
268,17286,16,-3402,-4808,22,-345,-152,141
269,17286,18,-3400,-4805,22,-347,-151,140
270,17278,16,-3392,-4804,22,-346,-150,138
271,17272,16,-3404,-4803,22,-347,-148,136
272,17272,10,-3404,-4805,22,-345,-150,136
273,17276,10,-3412,-4804,22,-344,-148,135
274,17272,4,-3412,-4804,22,-343,-152,137
275,17274,12,-3416,-4803,22,-343,-153,135
276,17270,12,-3416,-4803,22,-341,-153,136
277,17264,8,-3420,-4803,22,-341,-153,137
278,17268,4,-3412,-4803,22,-342,-153,138
279,17280,-2,-3404,-4803,22,-342,-150,138
280,17272,8,-3388,-4801,22,-341,-148,137
281,17278,20,-3384,-4801,22,-341,-146,138
282,17286,22,-3400,-4804,22,-343,-148,138
283,17282,24,-3410,-4803,22,-343,-149,139
284,17280,22,-3414,-4802,22,-341,-151,139
285,17268,16,-3410,-4804,22,-343,-152,138
286,17276,0,-3404,-4804,22,-344,-150,140
287,17274,4,-3406,-4804,22,-345,-151,141
288,17282,16,-3412,-4804,22,-343,-153,143
289,17278,24,-3404,-4804,22,-345,-153,140
290,17264,30,-3412,-4803,22,-346,-155,139
291,17266,28,-3402,-4804,22,-345,-153,140
292,17262,16,-3400,-4805,22,-346,-153,140
293,17258,16,-3400,-4804,22,-344,-153,140
294,17264,22,-3386,-4804,22,-345,-154,140
295,17266,18,-3374,-4804,22,-345,-154,141
296,17272,22,-3382,-4804,22,-344,-152,140
297,17272,28,-3368,-4802,22,-344,-152,141
298,17280,28,-3382,-4802,22,-345,-152,138
299,17282,16,-3384,-4804,22,-347,-152,139
300,17284,18,-3388,-4801,22,-349,-151,139
301,17286,16,-3394,-4800,22,-349,-151,142
302,17286,18,-3400,-4800,22,-346,-151,143
303,17282,18,-3390,-4800,22,-345,-150,140
304,17288,26,-3410,-4800,22,-347,-152,141
305,17276,34,-3406,-4799,22,-345,-151,141
306,17272,36,-3408,-4799,22,-347,-149,140
307,17274,28,-3412,-4799,22,-348,-153,141
308,17274,28,-3400,-4801,22,-346,-153,140
309,17276,30,-3400,-4801,22,-347,-153,140
310,17270,24,-3402,-4802,22,-346,-149,141
311,17280,18,-3402,-4800,22,-344,-149,139
312,17280,18,-3388,-4800,22,-342,-149,139
313,17284,22,-3394,-4799,22,-342,-150,140
314,17290,14,-3382,-4798,22,-343,-148,140
315,17280,12,-3394,-4797,22,-342,-150,141
316,17276,8,-3390,-4797,22,-343,-150,141
317,17272,10,-3378,-4797,22,-342,-151,139
318,17278,6,-3388,-4800,22,-343,-151,138
319,17280,4,-3390,-4800,22,-345,-150,140
320,17274,10,-3394,-4800,22,-345,-149,141
321,17266,10,-3388,-4802,22,-346,-150,139
322,17270,16,-3390,-4801,22,-346,-149,139
323,17280,10,-3370,-4802,22,-345,-149,138
324,17276,18,-3360,-4801,22,-343,-147,137
325,17272,26,-3370,-4799,22,-344,-147,136
326,17276,30,-3370,-4800,22,-345,-148,137
327,17278,26,-3362,-4798,22,-345,-152,138
328,17278,24,-3382,-4797,22,-345,-151,138
329,17290,18,-3374,-4795,22,-344,-153,137
330,17290,16,-3400,-4797,22,-344,-153,137
331,17286,10,-3390,-4796,22,-345,-152,138
332,17292,16,-3394,-4796,22,-345,-155,138
333,17286,10,-3388,-4797,22,-345,-150,137
334,17294,4,-3390,-4797,22,-345,-148,138
335,17286,8,-3384,-4799,22,-346,-149,138
336,17288,8,-3378,-4799,22,-344,-148,138
337,17286,2,-3378,-4801,22,-342,-149,135
338,17294,10,-3390,-4801,22,-343,-148,137
339,17288,10,-3384,-4802,22,-343,-148,136
340,17288,6,-3388,-4799,22,-345,-149,136
341,17286,8,-3380,-4801,22,-344,-150,136
342,17286,4,-3392,-4800,22,-343,-151,138
343,17278,10,-3396,-4799,22,-342,-151,139
344,17272,4,-3398,-4799,22,-342,-152,137
345,17262,4,-3400,-4798,22,-343,-153,136
346,17260,0,-3402,-4797,22,-342,-152,135
347,17260,-8,-3416,-4797,22,-343,-154,136
348,17262,8,-3414,-4797,22,-343,-152,137
349,17264,10,-3420,-4796,22,-343,-152,140
350,17256,10,-3416,-4795,22,-346,-150,141
351,17268,14,-3426,-4796,22,-347,-151,141
352,17270,14,-3424,-4794,22,-345,-150,142
353,17276,10,-3412,-4795,22,-346,-151,142
354,17274,10,-3400,-4796,22,-346,-149,140
355,17280,4,-3406,-4795,22,-345,-149,139
356,17270,6,-3396,-4795,22,-345,-149,139
357,17260,10,-3410,-4796,22,-346,-150,137
358,17276,0,-3394,-4796,22,-347,-152,138
359,17278,-6,-3382,-4794,22,-347,-147,139
360,17274,2,-3378,-4796,22,-347,-146,139
361,17268,8,-3390,-4795,22,-347,-149,139
362,17264,0,-3384,-4795,22,-346,-149,139
363,17272,4,-3382,-4796,22,-342,-150,139
364,17268,8,-3372,-4796,22,-343,-150,141
365,17274,12,-3374,-4795,22,-345,-151,140
366,17268,12,-3370,-4797,22,-345,-151,139
367,17272,16,-3374,-4796,22,-347,-151,140
368,17280,18,-3384,-4796,22,-345,-150,141
369,17282,22,-3376,-4797,22,-345,-151,140
370,17282,16,-3378,-4796,22,-346,-149,141
371,17282,32,-3372,-4795,22,-346,-151,139
372,17282,20,-3368,-4794,22,-345,-148,137
373,17282,16,-3378,-4795,22,-343,-151,138
374,17282,14,-3382,-4796,22,-341,-151,139
375,17278,12,-3386,-4794,22,-342,-153,139
376,17278,16,-3388,-4794,22,-344,-156,138
377,17276,30,-3390,-4792,22,-344,-155,138
378,17268,24,-3394,-4791,22,-342,-152,139
379,17266,20,-3388,-4793,22,-345,-153,138
380,17270,10,-3366,-4793,22,-343,-150,138
381,17270,8,-3390,-4791,22,-346,-148,138
382,17266,2,-3394,-4791,22,-345,-149,139
383,17264,-2,-3390,-4791,22,-345,-151,139
384,17268,10,-3396,-4791,22,-346,-151,140
385,17264,6,-3398,-4789,22,-348,-149,139
386,17266,12,-3398,-4788,22,-348,-148,138
387,17264,14,-3406,-4788,22,-347,-147,138
388,17272,8,-3414,-4790,22,-346,-150,137
389,17274,10,-3406,-4790,22,-346,-152,137
390,17274,6,-3420,-4790,22,-344,-153,140
391,17280,8,-3400,-4790,22,-345,-151,140
392,17286,12,-3386,-4789,22,-344,-151,138
393,17300,2,-3392,-4788,22,-342,-152,137
394,17298,6,-3402,-4789,22,-344,-150,138
395,17288,12,-3400,-4791,22,-345,-151,138
396,17282,10,-3398,-4792,22,-343,-149,137
397,17272,4,-3390,-4792,22,-343,-150,138
398,17278,2,-3394,-4791,22,-345,-150,138
399,17284,8,-3412,-4790,22,-344,-152,138
400,17284,14,-3416,-4790,22,-343,-153,139
401,17284,16,-3418,-4790,22,-345,-154,140
402,17288,14,-3416,-4791,22,-346,-153,139
403,17286,2,-3410,-4790,22,-344,-152,138
404,17276,-4,-3396,-4789,22,-344,-151,138
405,17266,4,-3402,-4790,22,-345,-151,137
406,17262,18,-3408,-4793,22,-344,-151,139
407,17262,24,-3408,-4793,22,-342,-152,138
408,17266,30,-3376,-4792,22,-342,-149,139
409,17272,38,-3386,-4792,22,-343,-148,139
410,17266,32,-3382,-4792,22,-341,-148,138
411,17268,26,-3390,-4793,22,-340,-149,142
412,17266,28,-3384,-4792,22,-341,-148,140
413,17266,28,-3384,-4793,22,-341,-148,140
414,17268,34,-3398,-4792,22,-342,-145,139
415,17272,28,-3420,-4793,22,-341,-149,141
416,17276,34,-3420,-4792,22,-341,-147,139
417,17286,28,-3408,-4792,22,-341,-151,141
418,17274,14,-3412,-4792,22,-342,-150,141
419,17268,14,-3408,-4793,22,-344,-149,143
420,17272,10,-3380,-4795,22,-346,-149,141
421,17274,2,-3378,-4794,22,-346,-151,139
422,17276,6,-3396,-4793,22,-344,-151,140
423,17276,6,-3388,-4794,22,-343,-153,139
424,17274,6,-3398,-4793,22,-345,-153,140
425,17274,4,-3384,-4792,22,-348,-150,141
426,17276,10,-3384,-4791,22,-348,-149,138
427,17276,14,-3390,-4790,22,-346,-149,138
428,17274,8,-3396,-4790,22,-347,-147,136
429,17270,10,-3398,-4789,22,-345,-148,135
430,17276,24,-3402,-4790,22,-344,-147,135
431,17280,22,-3400,-4792,22,-341,-148,136
432,17278,14,-3388,-4793,22,-344,-150,138
433,17278,8,-3386,-4793,22,-344,-148,137
434,17274,10,-3392,-4792,22,-345,-149,137
435,17282,8,-3408,-4791,22,-345,-148,137
436,17276,4,-3404,-4792,22,-344,-149,138
437,17276,8,-3400,-4792,22,-343,-147,138
438,17272,2,-3414,-4792,22,-344,-147,139
439,17266,4,-3406,-4792,22,-345,-148,139
440,17268,2,-3402,-4791,22,-346,-149,140
441,17268,10,-3394,-4791,22,-346,-151,140
442,17272,16,-3382,-4793,22,-346,-150,140
443,17268,20,-3372,-4791,22,-343,-152,141
444,17260,18,-3378,-4791,22,-344,-152,140
445,17268,4,-3384,-4790,22,-344,-152,140
446,17282,-2,-3390,-4787,22,-344,-151,140
447,17280,4,-3384,-4787,22,-345,-151,138
448,17286,8,-3376,-4787,22,-344,-149,139
449,17280,2,-3388,-4787,22,-344,-151,138
450,17276,-8,-3390,-4786,22,-345,-151,139
451,17280,-12,-3396,-4787,22,-345,-150,139
452,17286,-2,-3390,-4785,22,-342,-149,139
453,17288,-6,-3388,-4785,22,-343,-150,138
454,17288,0,-3386,-4785,22,-341,-151,137
455,17284,6,-3386,-4785,22,-342,-149,139
456,17280,6,-3378,-4785,22,-342,-150,138
457,17282,4,-3380,-4784,22,-344,-149,138
458,17286,10,-3370,-4783,22,-343,-150,139
459,17280,14,-3382,-4784,22,-343,-150,139
460,17292,16,-3382,-4783,22,-344,-151,139
461,17280,12,-3388,-4785,22,-345,-151,138
462,17272,14,-3382,-4784,22,-345,-153,139
463,17282,8,-3394,-4783,22,-344,-154,138
464,17286,10,-3402,-4784,22,-344,-152,139
465,17282,6,-3406,-4784,22,-343,-152,137
466,17272,6,-3406,-4783,22,-344,-150,138
467,17270,0,-3408,-4786,22,-344,-148,137
468,17274,-6,-3390,-4786,22,-345,-146,140
469,17280,6,-3388,-4788,22,-344,-147,138
470,17274,-4,-3388,-4787,22,-347,-147,138
471,17276,-2,-3394,-4787,22,-348,-149,139
472,17260,2,-3402,-4786,22,-347,-147,137
473,17270,20,-3406,-4787,22,-344,-150,138
474,17272,18,-3422,-4786,22,-345,-150,136
475,17278,14,-3412,-4785,22,-346,-151,134
476,17282,26,-3396,-4786,22,-345,-149,138
477,17274,18,-3404,-4787,22,-342,-148,135
478,17272,24,-3400,-4788,22,-341,-147,133
479,17270,20,-3384,-4787,22,-342,-145,134
480,17268,20,-3388,-4787,22,-345,-144,135
481,17276,24,-3374,-4786,22,-344,-145,137
482,17272,6,-3384,-4786,22,-344,-148,138
483,17272,2,-3392,-4786,22,-342,-149,140
484,17266,2,-3396,-4785,22,-346,-149,138
485,17264,8,-3396,-4784,22,-349,-151,138
486,17268,16,-3390,-4783,22,-347,-150,139
487,17268,6,-3402,-4783,22,-345,-150,140
488,17268,2,-3400,-4783,22,-346,-152,139
489,17270,-4,-3404,-4783,22,-346,-153,140
490,17254,4,-3400,-4785,22,-346,-152,139
491,17256,4,-3406,-4786,22,-346,-152,136
492,17272,14,-3398,-4786,22,-345,-152,137
493,17278,8,-3406,-4785,22,-347,-153,137
494,17268,16,-3410,-4787,22,-346,-153,136
495,17272,22,-3408,-4786,22,-346,-153,136
496,17270,20,-3402,-4786,22,-343,-151,138
497,17268,16,-3400,-4788,22,-343,-150,137
498,17278,6,-3398,-4787,22,-344,-150,138
499,17268,10,-3402,-4787,22,-341,-150,138
500,17278,16,-3414,-4787,22,-343,-152,139
501,17278,12,-3410,-4787,22,-345,-152,139
502,17288,14,-3416,-4786,22,-344,-151,139
503,17290,14,-3426,-4785,22,-344,-151,138
504,17296,14,-3428,-4784,22,-343,-150,140
505,17292,6,-3422,-4784,22,-344,-152,141
506,17282,8,-3406,-4786,22,-344,-151,143
507,17284,18,-3396,-4783,22,-344,-153,142
508,17276,22,-3396,-4782,22,-345,-152,140
509,17272,18,-3396,-4783,22,-343,-153,138
510,17274,18,-3396,-4784,22,-345,-152,138
511,17272,22,-3400,-4784,22,-347,-151,137
512,17268,16,-3390,-4784,22,-348,-150,137
513,17272,10,-3394,-4784,22,-346,-152,136
514,17282,16,-3388,-4786,22,-345,-151,136
515,17290,8,-3390,-4786,22,-345,-151,136
516,17280,10,-3390,-4785,22,-346,-149,138
517,17272,14,-3404,-4787,22,-345,-150,139
518,17274,10,-3398,-4788,22,-345,-149,138
519,17276,4,-3404,-4789,22,-344,-149,138
520,17286,-2,-3412,-4788,22,-345,-145,137
521,17286,8,-3406,-4789,22,-344,-146,136
522,17288,12,-3412,-4790,22,-345,-147,138
523,17276,12,-3410,-4790,22,-346,-147,139
524,17278,10,-3416,-4787,22,-344,-147,140
525,17280,12,-3408,-4787,22,-342,-148,139
526,17278,12,-3410,-4786,22,-342,-148,139
527,17274,10,-3390,-4785,22,-342,-150,138
528,17272,10,-3386,-4785,22,-342,-151,138
529,17274,20,-3392,-4785,22,-344,-152,138
530,17260,18,-3414,-4784,22,-344,-151,138
531,17278,14,-3408,-4785,22,-344,-153,137
532,17280,18,-3406,-4784,22,-345,-150,137
533,17286,30,-3402,-4783,22,-346,-151,137
534,17290,22,-3402,-4781,22,-344,-153,139
535,17282,26,-3400,-4783,22,-345,-155,139
536,17272,26,-3378,-4784,22,-344,-153,137
537,17268,28,-3384,-4784,22,-344,-152,137
538,17276,22,-3382,-4782,22,-343,-151,138
539,17266,18,-3386,-4780,22,-343,-152,138
540,17270,22,-3396,-4781,22,-344,-152,138
541,17270,16,-3396,-4782,22,-346,-153,139
542,17272,16,-3396,-4783,22,-346,-153,137
543,17276,6,-3410,-4784,22,-345,-150,136
544,17266,4,-3404,-4783,22,-345,-149,136
545,17268,4,-3392,-4782,22,-343,-152,138
546,17262,6,-3388,-4781,22,-344,-151,138
547,17260,14,-3396,-4781,22,-344,-151,139
548,17260,14,-3392,-4780,22,-344,-154,139
549,17268,18,-3396,-4778,22,-343,-151,138
550,17270,20,-3412,-4779,22,-344,-151,137
551,17288,22,-3408,-4779,22,-346,-147,137
552,17294,14,-3408,-4782,22,-346,-146,137
553,17286,14,-3408,-4782,22,-344,-149,136
554,17276,14,-3406,-4781,22,-344,-151,136
555,17274,14,-3420,-4780,22,-345,-151,132
556,17278,12,-3402,-4784,22,-343,-151,134
557,17282,18,-3398,-4781,22,-347,-150,134
558,17280,14,-3398,-4783,22,-347,-151,132
559,17274,4,-3388,-4785,22,-347,-150,131
560,17272,14,-3394,-4784,22,-347,-151,132
561,17264,22,-3392,-4782,22,-347,-153,134
562,17272,32,-3404,-4782,22,-346,-153,136
563,17270,38,-3412,-4786,22,-343,-152,134
564,17274,28,-3412,-4785,22,-345,-151,134
565,17274,32,-3416,-4785,22,-344,-151,133
566,17272,26,-3412,-4782,22,-342,-152,133
567,17276,18,-3404,-4784,22,-342,-151,134
568,17264,18,-3390,-4785,22,-343,-153,135
569,17274,18,-3390,-4783,22,-343,-153,134
570,17270,20,-3392,-4782,22,-343,-154,135
571,17268,20,-3398,-4782,22,-345,-154,136
572,17272,10,-3410,-4780,22,-345,-150,138
573,17266,10,-3414,-4780,22,-346,-151,137
574,17264,18,-3400,-4779,22,-346,-153,138
575,17270,8,-3400,-4779,22,-347,-152,138
576,17274,16,-3398,-4780,22,-346,-151,136
577,17272,14,-3386,-4778,22,-347,-150,137
578,17274,0,-3382,-4778,22,-347,-151,140
579,17274,2,-3384,-4778,22,-347,-152,139
580,17264,-2,-3384,-4779,22,-346,-153,142
581,17256,-8,-3392,-4779,22,-343,-153,141
582,17272,-6,-3406,-4777,22,-343,-151,140
583,17278,12,-3392,-4779,22,-345,-151,140
584,17284,8,-3390,-4776,22,-348,-153,141
585,17284,14,-3388,-4776,22,-346,-153,139
586,17286,12,-3392,-4777,22,-346,-153,139
587,17282,2,-3386,-4779,22,-345,-154,140
588,17272,4,-3400,-4779,22,-346,-155,139
589,17274,14,-3410,-4779,22,-346,-155,141
590,17272,4,-3400,-4780,22,-345,-154,140
591,17264,16,-3416,-4779,22,-343,-150,141
592,17274,16,-3402,-4780,22,-344,-146,140
593,17258,10,-3400,-4782,22,-343,-147,141
594,17260,-6,-3412,-4782,22,-342,-149,140
595,17264,-2,-3396,-4781,22,-343,-149,140
596,17272,12,-3390,-4780,22,-343,-151,140
597,17268,14,-3410,-4778,22,-343,-152,139
598,17270,12,-3394,-4778,22,-345,-152,138
599,17274,14,-3392,-4777,22,-345,-151,138
600,17278,12,-3388,-4775,22,-344,-149,138
601,17274,4,-3374,-4775,22,-342,-151,136
602,17276,10,-3380,-4777,22,-343,-153,135
603,17282,8,-3376,-4777,22,-345,-152,135
604,17280,18,-3376,-4777,22,-344,-153,131
605,17282,10,-3392,-4776,22,-341,-154,133
606,17274,14,-3390,-4776,22,-341,-156,134
607,17274,16,-3394,-4777,22,-341,-154,134
608,17274,10,-3404,-4777,22,-342,-153,135
609,17266,18,-3406,-4778,22,-342,-153,135
610,17268,16,-3402,-4779,22,-342,-150,135
611,17274,16,-3396,-4778,22,-342,-151,137
612,17264,24,-3396,-4779,22,-340,-150,137
613,17270,26,-3396,-4780,22,-343,-150,137
614,17268,28,-3382,-4780,22,-346,-149,135
615,17268,34,-3376,-4779,22,-347,-148,137
616,17272,18,-3382,-4777,22,-346,-151,136
617,17270,22,-3396,-4780,22,-345,-151,137
618,17274,18,-3382,-4777,22,-347,-151,137
619,17272,16,-3378,-4775,22,-346,-151,138
620,17272,14,-3378,-4774,22,-347,-151,139
621,17274,16,-3376,-4774,22,-346,-152,138
622,17262,22,-3372,-4773,22,-346,-155,138
623,17256,14,-3398,-4774,22,-346,-153,140
624,17268,10,-3404,-4774,22,-345,-153,140
625,17276,12,-3420,-4775,22,-343,-154,140
626,17278,12,-3404,-4775,22,-343,-153,140
627,17280,18,-3392,-4776,22,-345,-151,141
628,17278,20,-3392,-4778,22,-345,-152,139
629,17274,18,-3384,-4777,22,-344,-153,139
630,17274,20,-3380,-4775,22,-345,-152,141
631,17270,16,-3402,-4776,22,-347,-151,140
632,17264,16,-3388,-4776,22,-346,-153,137
633,17268,16,-3396,-4775,22,-348,-154,139
634,17268,14,-3406,-4774,22,-350,-152,139
635,17272,8,-3400,-4774,22,-350,-155,139
636,17266,4,-3406,-4773,22,-348,-154,143
637,17266,12,-3402,-4771,22,-348,-152,140
638,17262,16,-3412,-4771,22,-348,-152,138
639,17266,22,-3434,-4771,22,-347,-154,139
640,17270,18,-3442,-4771,22,-347,-152,141
641,17270,14,-3458,-4774,22,-346,-150,139
642,17270,20,-3436,-4772,22,-347,-150,138
643,17280,14,-3424,-4773,22,-347,-150,136
644,17282,10,-3416,-4774,22,-348,-150,137
645,17282,-2,-3412,-4774,22,-350,-151,135
646,17278,-2,-3398,-4776,22,-350,-149,133
647,17278,2,-3394,-4777,22,-350,-149,133
648,17276,12,-3390,-4777,22,-348,-148,135
649,17274,12,-3392,-4777,22,-347,-149,137
650,17274,26,-3388,-4777,22,-347,-147,136
651,17276,16,-3394,-4777,22,-346,-147,137
652,17270,22,-3398,-4775,22,-345,-146,137
653,17278,28,-3394,-4777,22,-348,-149,138
654,17266,18,-3388,-4777,22,-348,-152,139
655,17270,26,-3388,-4778,22,-346,-152,138
656,17276,20,-3388,-4777,22,-346,-152,137
657,17274,0,-3392,-4776,22,-346,-151,137
658,17272,-4,-3400,-4776,22,-345,-149,139
659,17268,4,-3404,-4775,22,-345,-151,140
660,17272,10,-3402,-4775,22,-344,-154,142
661,17270,4,-3394,-4774,22,-344,-150,140
662,17274,-6,-3402,-4775,22,-344,-150,140
663,17278,-2,-3386,-4775,22,-346,-150,139
664,17268,2,-3392,-4776,22,-348,-148,138
665,17274,12,-3388,-4775,22,-348,-149,139
666,17280,8,-3384,-4776,22,-345,-149,138
667,17286,6,-3374,-4774,22,-347,-151,138
668,17278,18,-3372,-4774,22,-345,-152,140
669,17268,16,-3366,-4772,22,-344,-153,139
670,17266,10,-3384,-4773,22,-342,-155,139
671,17270,10,-3390,-4773,22,-342,-154,139
672,17274,18,-3392,-4773,22,-341,-153,140
673,17268,20,-3396,-4774,22,-342,-151,138
674,17276,24,-3400,-4774,22,-344,-151,135
675,17276,22,-3406,-4775,22,-344,-149,137
676,17284,20,-3402,-4774,22,-343,-150,135
677,17284,12,-3400,-4774,22,-343,-150,137
678,17278,20,-3412,-4775,22,-342,-150,138
679,17288,22,-3414,-4774,22,-343,-150,136
680,17284,26,-3416,-4774,22,-342,-148,137
681,17274,20,-3422,-4773,22,-340,-146,140
682,17276,16,-3414,-4773,22,-342,-148,138
683,17278,20,-3404,-4773,22,-343,-149,139
684,17272,16,-3390,-4774,22,-343,-149,138
685,17272,14,-3398,-4774,22,-344,-151,139
686,17272,16,-3390,-4772,22,-345,-151,140
687,17274,20,-3396,-4775,22,-345,-152,139
688,17268,26,-3398,-4776,22,-345,-153,139
689,17260,22,-3398,-4776,22,-343,-153,139
690,17266,22,-3390,-4773,22,-341,-151,137
691,17276,20,-3402,-4773,22,-345,-152,137
692,17274,16,-3406,-4774,22,-345,-150,137
693,17266,14,-3418,-4774,22,-345,-149,139
694,17278,10,-3414,-4775,22,-344,-149,140
695,17286,0,-3418,-4774,22,-343,-150,136
696,17286,-4,-3416,-4774,22,-344,-152,137
697,17292,2,-3418,-4774,22,-346,-149,137
698,17292,8,-3414,-4773,22,-346,-150,138
699,17296,-2,-3400,-4773,22,-346,-152,139
700,17290,12,-3382,-4771,22,-345,-152,140
701,17288,12,-3380,-4773,22,-344,-157,139
702,17286,22,-3386,-4773,22,-346,-157,142
703,17286,16,-3390,-4775,22,-346,-155,142
704,17280,12,-3396,-4774,22,-345,-155,141
705,17268,12,-3404,-4774,22,-345,-154,141
706,17270,16,-3398,-4774,22,-345,-154,142
707,17274,18,-3404,-4773,22,-345,-153,143
708,17280,8,-3394,-4772,22,-346,-151,140
709,17284,-2,-3382,-4771,22,-347,-150,139
710,17288,-16,-3380,-4771,22,-349,-150,139
711,17296,-10,-3378,-4771,22,-349,-150,138
712,17294,-2,-3378,-4771,22,-347,-151,138
713,17280,2,-3376,-4772,22,-348,-151,138
714,17278,-8,-3386,-4773,22,-347,-151,137
715,17286,-6,-3384,-4773,22,-347,-152,136
716,17286,4,-3384,-4771,22,-347,-151,138
717,17282,8,-3388,-4772,22,-347,-153,136
718,17292,8,-3390,-4772,22,-349,-153,138
719,17290,10,-3398,-4772,22,-346,-153,140
720,17286,14,-3404,-4770,22,-345,-153,139
721,17290,8,-3404,-4769,22,-346,-151,138
722,17290,12,-3404,-4769,22,-345,-151,137
723,17290,14,-3394,-4769,22,-347,-149,137
724,17288,10,-3400,-4768,22,-349,-151,136
725,17286,6,-3400,-4771,22,-348,-148,136
726,17282,4,-3378,-4772,22,-346,-148,136
727,17286,18,-3390,-4772,22,-347,-146,136
728,17286,8,-3390,-4773,22,-347,-146,135
729,17276,8,-3402,-4774,22,-347,-148,134
730,17270,6,-3392,-4774,22,-347,-149,136
731,17264,10,-3388,-4773,22,-346,-150,137
732,17260,6,-3384,-4772,22,-347,-152,136
733,17262,0,-3398,-4772,22,-347,-149,138
734,17266,4,-3410,-4773,22,-348,-148,140
735,17266,12,-3410,-4774,22,-348,-149,141
736,17274,10,-3410,-4775,22,-348,-150,143
737,17286,10,-3408,-4773,22,-349,-150,142
738,17282,14,-3396,-4772,22,-349,-148,141
739,17286,20,-3400,-4772,22,-349,-148,141
740,17292,16,-3412,-4773,22,-346,-150,140
741,17288,10,-3396,-4773,22,-348,-151,141
742,17296,10,-3382,-4772,22,-347,-153,141
743,17292,2,-3372,-4772,22,-346,-152,138
744,17292,-2,-3372,-4772,22,-347,-153,138
745,17292,-2,-3366,-4773,22,-345,-152,140
746,17280,4,-3374,-4775,22,-345,-153,140
747,17270,4,-3376,-4775,22,-344,-154,138
748,17278,8,-3382,-4776,22,-343,-155,140
749,17274,12,-3390,-4776,22,-344,-153,140
750,17262,16,-3388,-4775,22,-347,-152,138
751,17272,14,-3388,-4773,22,-346,-151,137
752,17270,14,-3382,-4773,22,-348,-153,136
753,17268,4,-3380,-4773,22,-346,-153,136
754,17258,8,-3380,-4774,22,-345,-153,138
755,17252,4,-3394,-4773,22,-347,-149,138
756,17254,8,-3418,-4773,22,-346,-151,138
757,17266,8,-3414,-4773,22,-345,-151,138
758,17272,4,-3420,-4772,22,-345,-151,136
759,17268,6,-3414,-4772,22,-343,-150,137
760,17268,8,-3414,-4774,22,-344,-151,139
761,17268,2,-3396,-4774,22,-343,-148,141
762,17276,2,-3404,-4775,22,-345,-149,141
763,17274,12,-3404,-4774,22,-343,-153,139
764,17274,12,-3402,-4774,22,-343,-152,139
765,17278,16,-3402,-4775,22,-344,-153,139
766,17282,10,-3398,-4774,22,-345,-153,139
767,17284,8,-3394,-4772,22,-345,-153,138
768,17288,6,-3394,-4770,22,-344,-153,140
769,17290,8,-3402,-4771,22,-344,-153,142
770,17286,4,-3420,-4771,22,-344,-155,143
771,17272,4,-3422,-4771,22,-344,-153,141
772,17268,4,-3424,-4771,22,-342,-151,142
773,17270,4,-3418,-4772,22,-342,-150,142
774,17264,12,-3402,-4772,22,-341,-150,140
775,17256,12,-3406,-4772,22,-343,-153,139
776,17268,22,-3396,-4770,22,-346,-150,138
777,17268,12,-3396,-4769,22,-347,-151,138
778,17268,8,-3402,-4770,22,-347,-151,138
779,17276,8,-3402,-4769,22,-348,-150,138
780,17278,6,-3404,-4771,22,-346,-152,136
781,17276,4,-3394,-4769,22,-346,-152,136
782,17270,8,-3396,-4769,22,-345,-153,135
783,17282,4,-3388,-4767,22,-348,-152,136
784,17274,-6,-3396,-4769,22,-347,-153,138
785,17266,-4,-3400,-4767,22,-347,-151,138
786,17274,-4,-3402,-4767,22,-345,-150,138
787,17280,2,-3392,-4768,22,-347,-150,138
788,17284,2,-3388,-4767,22,-347,-151,140
789,17276,8,-3396,-4769,22,-343,-150,139
790,17280,10,-3378,-4767,22,-343,-151,138
791,17278,6,-3378,-4768,22,-342,-150,138
792,17274,10,-3370,-4769,22,-342,-148,139
793,17282,6,-3370,-4771,22,-344,-149,138
794,17284,6,-3372,-4770,22,-343,-149,139
795,17296,4,-3380,-4770,22,-346,-152,139
796,17300,8,-3370,-4770,22,-347,-150,138
797,17302,0,-3376,-4768,22,-347,-149,139
798,17288,6,-3396,-4769,22,-348,-150,138
799,17280,4,-3406,-4770,22,-348,-152,138
800,17274,-8,-3400,-4767,22,-343,-149,138
801,17284,0,-3400,-4769,22,-342,-149,139
802,17284,2,-3404,-4769,22,-345,-152,138
803,17288,8,-3400,-4768,22,-343,-151,139
804,17288,8,-3388,-4768,22,-346,-151,139
805,17282,2,-3400,-4767,22,-347,-150,137
806,17268,2,-3416,-4767,22,-347,-151,137
807,17266,-2,-3402,-4767,22,-346,-151,138
808,17268,-2,-3390,-4768,22,-345,-153,139
809,17278,0,-3402,-4770,22,-346,-151,139
810,17280,-2,-3398,-4770,22,-346,-150,139
811,17274,-12,-3398,-4770,22,-347,-150,141
812,17276,-2,-3392,-4768,22,-346,-151,139
813,17276,0,-3400,-4767,22,-346,-150,138
814,17276,-2,-3412,-4769,22,-347,-147,139
815,17278,-6,-3422,-4769,22,-344,-150,137
816,17280,-4,-3408,-4768,22,-342,-150,137
817,17268,-6,-3394,-4769,22,-343,-150,135
818,17272,-4,-3386,-4768,22,-344,-150,136
819,17274,-2,-3376,-4769,22,-345,-152,136
820,17274,-6,-3364,-4770,22,-346,-152,139
821,17280,8,-3382,-4769,22,-345,-149,138
822,17282,18,-3384,-4769,22,-345,-150,139
823,17292,20,-3378,-4770,22,-343,-151,138
824,17298,12,-3388,-4769,22,-344,-148,139
825,17296,14,-3394,-4769,22,-344,-148,138
826,17292,16,-3392,-4766,22,-347,-148,136
827,17284,16,-3398,-4768,22,-347,-149,136
828,17284,18,-3396,-4769,22,-346,-149,136
829,17288,20,-3380,-4769,22,-346,-150,139
830,17288,24,-3386,-4768,22,-345,-151,138
831,17290,24,-3392,-4767,22,-344,-155,139
832,17280,10,-3398,-4769,22,-346,-154,138
833,17280,10,-3404,-4768,22,-345,-152,139
834,17266,16,-3398,-4768,22,-345,-152,138
835,17266,14,-3414,-4768,22,-344,-152,139
836,17272,12,-3398,-4769,22,-344,-151,141
837,17272,4,-3398,-4769,22,-344,-152,142
838,17268,12,-3400,-4770,22,-346,-152,141
839,17266,18,-3412,-4769,22,-346,-151,141
840,17280,16,-3410,-4769,22,-345,-149,142
841,17284,20,-3422,-4769,22,-344,-149,142
842,17282,24,-3406,-4767,22,-342,-149,140
843,17280,22,-3382,-4767,22,-343,-149,139
844,17276,16,-3380,-4768,22,-344,-148,137
845,17276,18,-3380,-4770,22,-342,-151,137
846,17282,20,-3400,-4769,22,-342,-151,137
847,17278,18,-3396,-4768,22,-342,-152,137
848,17278,16,-3398,-4767,22,-341,-153,138
849,17284,22,-3408,-4769,22,-342,-152,138
850,17274,28,-3392,-4769,22,-340,-149,139
851,17278,26,-3392,-4767,22,-339,-148,139
852,17274,32,-3398,-4766,22,-340,-151,139
853,17270,22,-3392,-4766,22,-341,-150,142
854,17272,14,-3388,-4766,22,-340,-152,143
855,17280,8,-3388,-4767,22,-341,-152,140
856,17272,8,-3392,-4766,22,-342,-152,140
857,17268,12,-3400,-4765,22,-344,-152,141
858,17272,4,-3388,-4766,22,-345,-152,139
859,17264,4,-3390,-4767,22,-345,-152,139
860,17274,10,-3392,-4766,22,-347,-154,139
861,17280,10,-3396,-4767,22,-346,-153,140
862,17278,2,-3392,-4765,22,-346,-150,141
863,17278,4,-3398,-4766,22,-347,-151,142
864,17278,8,-3400,-4766,22,-346,-152,142
865,17288,4,-3400,-4766,22,-345,-151,139
866,17278,6,-3400,-4766,22,-345,-151,141
867,17270,18,-3410,-4766,22,-344,-150,139
868,17272,16,-3418,-4767,22,-345,-151,140
869,17276,16,-3406,-4768,22,-349,-152,139
870,17282,8,-3406,-4770,22,-351,-155,139
871,17286,10,-3404,-4770,22,-349,-154,137
872,17276,4,-3406,-4772,22,-348,-158,137
873,17274,6,-3394,-4773,22,-350,-156,137
874,17270,10,-3388,-4771,22,-350,-155,136
875,17262,10,-3386,-4769,22,-351,-153,137
876,17264,12,-3388,-4768,22,-351,-154,139
877,17266,10,-3388,-4768,22,-349,-154,140
878,17266,10,-3386,-4765,22,-349,-154,142
879,17264,16,-3392,-4766,22,-348,-152,140
880,17266,16,-3384,-4764,22,-347,-151,139
881,17264,10,-3388,-4764,22,-343,-151,141
882,17274,10,-3390,-4765,22,-343,-151,140
883,17278,10,-3390,-4768,22,-344,-150,142
884,17274,14,-3382,-4770,22,-344,-149,142
885,17274,4,-3394,-4769,22,-344,-147,142
886,17272,14,-3388,-4767,22,-344,-149,139
887,17266,-6,-3394,-4768,22,-346,-147,140
888,17270,-6,-3394,-4768,22,-345,-146,140
889,17274,-10,-3398,-4767,22,-347,-147,142
890,17274,2,-3380,-4767,22,-345,-149,142
891,17272,-2,-3382,-4767,22,-346,-147,142
892,17274,-4,-3386,-4767,22,-345,-147,141
893,17262,-12,-3378,-4765,22,-345,-148,141
894,17268,-12,-3380,-4764,22,-345,-148,140
895,17282,-8,-3386,-4763,22,-346,-148,139
896,17278,2,-3372,-4764,22,-345,-149,141
897,17282,4,-3378,-4763,22,-346,-149,142
898,17282,4,-3374,-4766,22,-346,-149,140
899,17292,6,-3370,-4767,22,-346,-153,140
900,17294,10,-3374,-4767,22,-347,-153,139
901,17288,8,-3382,-4766,22,-347,-155,140
902,17282,16,-3390,-4767,22,-346,-153,141
903,17286,14,-3392,-4769,22,-344,-152,140
904,17282,16,-3386,-4768,22,-345,-153,138
905,17274,20,-3374,-4768,22,-343,-156,137
906,17276,18,-3386,-4768,22,-345,-154,139
907,17276,24,-3398,-4767,22,-345,-154,140
908,17282,26,-3396,-4767,22,-343,-152,137
909,17286,12,-3400,-4767,22,-343,-149,139
910,17284,18,-3396,-4765,22,-344,-148,138
911,17276,22,-3398,-4764,22,-345,-147,138
912,17280,12,-3384,-4766,22,-344,-147,138
913,17276,18,-3386,-4764,22,-344,-148,138
914,17276,22,-3388,-4765,22,-346,-147,136
915,17274,20,-3390,-4766,22,-346,-147,137
916,17282,14,-3388,-4764,22,-345,-147,136
917,17280,4,-3392,-4765,22,-344,-146,137
918,17278,-2,-3400,-4764,22,-343,-147,138
919,17274,2,-3402,-4764,22,-342,-146,138
920,17272,12,-3400,-4763,22,-344,-147,137
921,17270,4,-3398,-4764,22,-342,-149,138
922,17282,6,-3398,-4764,22,-343,-149,139
923,17290,8,-3406,-4763,22,-345,-146,139
924,17284,10,-3406,-4764,22,-345,-147,140
925,17286,6,-3420,-4762,22,-345,-146,140
926,17276,4,-3402,-4762,22,-343,-145,143
927,17282,6,-3402,-4763,22,-343,-148,142
928,17276,6,-3386,-4765,22,-344,-150,142
929,17276,8,-3386,-4765,22,-343,-151,141
930,17276,2,-3396,-4766,22,-342,-150,142
931,17280,0,-3398,-4764,22,-345,-152,140
932,17268,-2,-3404,-4765,22,-343,-152,141
933,17266,6,-3406,-4768,22,-344,-150,138
934,17282,8,-3404,-4766,22,-344,-150,140
935,17286,12,-3402,-4765,22,-345,-150,140
936,17284,18,-3404,-4765,22,-345,-150,140
937,17278,22,-3400,-4766,22,-344,-152,139
938,17280,12,-3400,-4766,22,-343,-151,138
939,17282,14,-3398,-4765,22,-341,-150,139
940,17282,6,-3390,-4764,22,-343,-150,140
941,17274,6,-3396,-4764,22,-344,-150,139
942,17280,10,-3398,-4764,22,-343,-151,138
943,17280,6,-3416,-4763,22,-345,-151,138
944,17278,6,-3412,-4762,22,-344,-152,137
945,17276,0,-3404,-4762,22,-344,-151,138
946,17272,4,-3394,-4762,22,-344,-150,140
947,17274,18,-3402,-4763,22,-344,-150,141
948,17268,14,-3398,-4763,22,-342,-150,141
949,17276,18,-3396,-4764,22,-342,-149,141
950,17278,14,-3392,-4765,22,-343,-149,138
951,17284,10,-3372,-4766,22,-344,-147,138
952,17274,6,-3354,-4763,22,-344,-147,139
953,17276,6,-3366,-4763,22,-347,-145,139
954,17272,10,-3366,-4765,22,-348,-147,140
955,17266,12,-3378,-4766,22,-348,-146,137
956,17262,16,-3386,-4764,22,-347,-147,138
957,17270,18,-3386,-4763,22,-348,-147,137
958,17266,14,-3384,-4765,22,-349,-147,137
959,17274,6,-3390,-4767,22,-349,-148,136
960,17278,10,-3390,-4765,22,-346,-149,135
961,17278,22,-3394,-4762,22,-347,-149,135
962,17282,26,-3388,-4763,22,-350,-150,135
963,17276,20,-3390,-4766,22,-347,-150,137
964,17282,14,-3386,-4765,22,-347,-151,138
965,17284,8,-3396,-4766,22,-346,-150,136
966,17284,10,-3378,-4764,22,-345,-148,134
967,17278,6,-3376,-4763,22,-345,-149,136
968,17284,2,-3376,-4762,22,-345,-148,138
969,17282,4,-3374,-4762,22,-345,-146,139
970,17290,4,-3384,-4763,22,-346,-145,138
971,17280,12,-3382,-4764,22,-345,-145,137
972,17282,4,-3408,-4763,22,-345,-148,138
973,17268,6,-3392,-4762,22,-345,-150,139
974,17276,8,-3400,-4762,22,-345,-149,141
975,17272,8,-3386,-4763,22,-347,-149,140
976,17276,6,-3388,-4764,22,-344,-150,140
977,17286,4,-3384,-4765,22,-343,-149,139
978,17284,4,-3390,-4764,22,-344,-146,138
979,17288,6,-3380,-4766,22,-344,-145,139
980,17286,4,-3386,-4767,22,-344,-148,137
981,17290,6,-3396,-4766,22,-344,-147,137
982,17282,2,-3402,-4766,22,-344,-150,136
983,17280,10,-3404,-4765,22,-343,-148,136
984,17280,6,-3406,-4766,22,-344,-150,137
985,17278,12,-3398,-4767,22,-346,-152,135
986,17278,18,-3402,-4769,22,-345,-150,133
987,17278,20,-3398,-4767,22,-345,-151,134
988,17278,24,-3394,-4767,22,-344,-151,136
989,17270,10,-3390,-4767,22,-347,-152,137
990,17270,8,-3392,-4766,22,-347,-151,138
991,17286,4,-3400,-4765,22,-346,-150,138
992,17280,4,-3400,-4764,22,-344,-153,139
993,17280,0,-3384,-4764,22,-346,-152,139
994,17266,4,-3402,-4764,22,-347,-153,139
995,17272,4,-3398,-4765,22,-348,-151,140
