,acc_X,acc_Y,acc_Z,temp,tempC,gyr_X,gyr_Y,gyr_Z
0,4320,1,-845,-4693,23,-174,-75,72
1,4321,3,-847,-4693,23,-174,-75,72
2,4320,4,-848,-4693,23,-174,-74,72
3,4319,4,-850,-4693,23,-175,-74,72
4,4318,4,-851,-4693,23,-175,-75,70
5,4320,4,-852,-4694,23,-175,-75,69
6,4319,6,-852,-4693,23,-174,-75,69
7,4317,6,-851,-4695,23,-174,-75,70
8,4317,5,-852,-4694,23,-175,-75,71
9,4315,5,-851,-4695,23,-175,-75,71
10,4316,6,-848,-4694,23,-175,-76,70
11,4317,4,-850,-4694,23,-176,-76,70
12,4318,6,-850,-4694,23,-174,-76,70
13,4319,4,-852,-4694,23,-174,-76,70
14,4320,4,-853,-4696,23,-174,-76,71
15,4321,3,-849,-4695,23,-174,-76,70
16,4321,2,-852,-4694,23,-174,-76,70
17,4320,2,-851,-4693,23,-174,-77,70
18,4320,1,-850,-4694,23,-173,-75,70
19,4321,5,-849,-4692,23,-173,-76,70
20,4322,4,-849,-4690,23,-173,-75,69
21,4323,3,-849,-4692,23,-174,-75,70
22,4322,4,-851,-4693,23,-175,-74,70
23,4321,3,-851,-4694,23,-175,-75,69
24,4323,4,-851,-4694,23,-175,-75,69
25,4322,6,-854,-4695,23,-175,-75,69
26,4321,7,-851,-4695,23,-174,-75,69
27,4319,7,-853,-4695,23,-173,-75,69
28,4319,5,-853,-4694,23,-175,-75,69
29,4318,7,-850,-4696,23,-174,-75,70
30,4319,7,-848,-4696,23,-175,-77,68
31,4318,6,-849,-4693,23,-175,-77,69
32,4319,5,-851,-4693,23,-174,-76,70
33,4317,4,-851,-4693,23,-175,-76,69
34,4317,4,-851,-4694,23,-176,-76,70
35,4318,4,-845,-4693,23,-175,-75,69
36,4318,4,-843,-4695,23,-175,-75,69
37,4315,5,-842,-4696,23,-174,-75,69
38,4316,5,-847,-4694,23,-174,-74,68
39,4318,5,-845,-4693,23,-173,-74,68
40,4316,5,-846,-4695,23,-174,-74,69
41,4315,5,-847,-4694,23,-173,-75,70
42,4318,4,-849,-4694,23,-172,-75,70
43,4319,2,-847,-4694,23,-172,-75,70
44,4319,0,-851,-4691,23,-172,-76,69
45,4319,2,-851,-4689,23,-172,-75,69
46,4320,3,-852,-4691,23,-173,-75,70
47,4318,4,-852,-4693,23,-173,-77,70
48,4318,4,-854,-4693,23,-173,-77,71
49,4317,4,-854,-4692,23,-172,-76,71
50,4318,3,-854,-4693,23,-173,-78,70
51,4319,2,-852,-4693,23,-173,-78,69
52,4319,2,-849,-4694,23,-173,-78,69
53,4318,1,-849,-4695,23,-173,-77,69
54,4317,2,-851,-4696,23,-174,-77,68
55,4318,1,-852,-4695,23,-174,-76,68
56,4318,2,-852,-4695,23,-173,-75,69
57,4316,2,-854,-4695,23,-173,-75,69
58,4318,2,-855,-4695,23,-173,-75,69
59,4315,1,-855,-4694,23,-173,-75,67
60,4315,3,-852,-4694,23,-172,-75,67
61,4316,3,-851,-4695,23,-172,-74,68
62,4319,5,-849,-4696,23,-173,-75,68
63,4319,3,-846,-4697,23,-172,-75,68
64,4319,0,-845,-4695,23,-172,-75,68
65,4320,1,-846,-4694,23,-172,-75,68
66,4319,1,-850,-4693,23,-170,-76,69
67,4319,0,-849,-4693,23,-172,-76,69
68,4319,1,-848,-4692,23,-172,-77,68
69,4320,3,-846,-4693,23,-172,-76,70
70,4319,3,-847,-4693,23,-172,-77,70
71,4319,2,-845,-4695,23,-172,-78,70
72,4322,1,-846,-4695,23,-173,-77,70
73,4323,3,-845,-4695,23,-173,-78,70
74,4326,0,-843,-4696,23,-173,-78,70
75,4324,1,-844,-4695,23,-175,-77,69
76,4322,0,-843,-4695,23,-174,-78,69
77,4322,1,-847,-4697,23,-173,-77,70
78,4321,-1,-846,-4696,23,-173,-77,69
79,4322,-1,-850,-4694,23,-174,-77,70
80,4320,0,-845,-4694,23,-172,-77,68
81,4318,-1,-842,-4694,23,-173,-76,69
82,4318,-1,-843,-4694,23,-174,-76,68
83,4319,1,-848,-4693,23,-174,-76,67
84,4317,2,-849,-4694,23,-174,-77,68
85,4318,1,-848,-4694,23,-173,-76,69
86,4318,-1,-849,-4692,23,-173,-76,69
87,4317,-2,-848,-4693,23,-172,-76,69
88,4315,-2,-849,-4693,23,-172,-75,69
89,4314,-3,-851,-4694,23,-174,-76,69
90,4315,-1,-850,-4694,23,-175,-76,69
91,4314,-2,-848,-4694,23,-174,-76,70
92,4316,-1,-849,-4692,23,-175,-75,71
93,4316,-1,-847,-4690,23,-176,-77,70
94,4316,1,-843,-4691,23,-175,-77,70
95,4317,3,-844,-4690,23,-175,-77,71
96,4316,1,-844,-4694,23,-176,-76,72
97,4317,1,-845,-4695,23,-176,-75,71
98,4317,0,-847,-4694,23,-177,-76,71
99,4318,1,-849,-4694,23,-175,-77,70
100,4317,3,-851,-4693,23,-175,-76,69
101,4317,3,-847,-4695,23,-175,-76,69
102,4319,3,-850,-4695,23,-175,-76,70
103,4316,4,-850,-4694,23,-175,-76,70
104,4316,4,-852,-4693,23,-174,-77,70
105,4317,4,-846,-4693,23,-174,-76,69
106,4317,6,-846,-4693,23,-174,-76,69
107,4317,4,-847,-4692,23,-175,-76,70
108,4317,2,-847,-4692,23,-175,-75,69
109,4318,0,-847,-4690,23,-174,-76,68
110,4318,0,-848,-4690,23,-173,-75,68
111,4320,2,-843,-4691,23,-173,-75,68
112,4321,1,-840,-4692,23,-173,-74,68
113,4320,3,-843,-4692,23,-173,-75,68
114,4320,3,-846,-4692,23,-174,-75,68
115,4319,3,-848,-4693,23,-174,-74,69
116,4319,2,-847,-4693,23,-174,-74,70
117,4319,3,-850,-4692,23,-173,-75,70
118,4319,1,-850,-4692,23,-172,-76,68
119,4320,4,-849,-4691,23,-172,-75,68
120,4319,4,-850,-4690,23,-172,-76,69
121,4318,2,-850,-4690,23,-173,-75,69
122,4317,1,-849,-4690,23,-173,-74,69
123,4316,0,-848,-4689,23,-173,-75,69
124,4314,1,-847,-4690,23,-172,-74,70
125,4315,2,-848,-4691,23,-173,-75,69
126,4316,4,-844,-4690,23,-174,-76,68
127,4318,5,-844,-4690,23,-174,-76,70
128,4317,3,-846,-4690,23,-174,-77,69
129,4318,4,-850,-4690,23,-173,-77,69
130,4316,4,-849,-4690,23,-173,-76,69
131,4317,5,-853,-4690,23,-172,-77,69
132,4318,5,-854,-4691,23,-172,-78,69
133,4320,5,-856,-4692,23,-172,-78,69
134,4319,2,-858,-4691,23,-172,-77,69
135,4320,1,-854,-4690,23,-173,-77,70
136,4320,0,-848,-4691,23,-174,-76,71
137,4320,4,-850,-4693,23,-174,-77,70
138,4320,1,-849,-4693,23,-175,-74,70
139,4319,0,-847,-4692,23,-174,-73,69
140,4318,-1,-849,-4692,23,-175,-73,69
141,4320,-2,-850,-4694,23,-174,-74,68
142,4320,-1,-850,-4693,23,-174,-76,68
143,4319,-2,-849,-4691,23,-173,-76,67
144,4316,-3,-851,-4691,23,-173,-78,67
145,4318,0,-849,-4690,23,-174,-76,68
146,4320,-1,-850,-4690,23,-174,-75,68
147,4319,-1,-848,-4690,23,-174,-75,70
148,4319,0,-847,-4687,23,-174,-75,70
149,4317,1,-851,-4688,23,-174,-74,70
150,4320,0,-848,-4688,23,-174,-74,71
151,4321,-1,-847,-4689,23,-173,-74,70
152,4320,-1,-848,-4689,23,-172,-74,71
153,4318,-1,-851,-4689,23,-173,-75,71
154,4319,-2,-848,-4689,23,-174,-76,70
155,4318,-1,-851,-4691,23,-174,-76,70
156,4319,-1,-851,-4692,23,-174,-77,70
157,4317,0,-852,-4691,23,-172,-76,70
158,4314,2,-851,-4693,23,-172,-77,70
159,4315,2,-851,-4692,23,-174,-78,70
160,4315,3,-852,-4693,23,-174,-78,70
161,4315,2,-854,-4692,23,-174,-77,70
162,4316,4,-856,-4692,23,-173,-76,70
163,4317,4,-857,-4693,23,-174,-76,70
164,4317,5,-853,-4690,23,-174,-76,69
165,4320,5,-855,-4690,23,-173,-75,69
166,4320,5,-851,-4687,23,-173,-75,69
167,4319,5,-846,-4687,23,-173,-75,70
168,4318,4,-846,-4688,23,-172,-77,70
169,4316,3,-845,-4688,23,-172,-76,70
170,4316,4,-847,-4690,23,-172,-76,70
171,4316,3,-845,-4690,23,-172,-76,69
172,4316,2,-845,-4689,23,-173,-77,69
173,4317,4,-847,-4689,23,-173,-77,71
174,4317,4,-847,-4687,23,-173,-77,69
175,4317,7,-845,-4689,23,-173,-76,70
176,4315,7,-849,-4689,23,-173,-76,71
177,4319,8,-849,-4688,23,-173,-76,71
178,4318,5,-849,-4688,23,-172,-76,70
179,4317,3,-848,-4687,23,-174,-76,70
180,4317,3,-846,-4687,23,-175,-76,69
181,4316,2,-849,-4688,23,-173,-76,69
182,4315,4,-852,-4689,23,-173,-77,69
183,4316,5,-856,-4689,23,-174,-77,70
184,4317,6,-854,-4688,23,-175,-78,69
185,4316,4,-855,-4688,23,-176,-77,68
186,4316,3,-853,-4689,23,-174,-78,68
187,4316,2,-854,-4688,23,-174,-78,69
188,4317,1,-855,-4687,23,-174,-77,69
189,4316,-1,-855,-4688,23,-174,-76,69
190,4315,0,-851,-4689,23,-173,-76,69
191,4317,2,-848,-4689,23,-173,-76,69
192,4315,0,-849,-4689,23,-174,-76,70
193,4316,1,-850,-4689,23,-175,-76,69
194,4315,2,-850,-4687,23,-174,-76,69
195,4316,1,-850,-4686,23,-175,-75,68
196,4316,1,-850,-4687,23,-175,-74,69
197,4318,2,-853,-4688,23,-175,-74,68
198,4320,3,-851,-4689,23,-174,-75,69
199,4321,4,-854,-4688,23,-174,-77,69
200,4320,1,-853,-4687,23,-173,-78,69
201,4320,2,-851,-4687,23,-173,-76,69
202,4319,5,-850,-4688,23,-173,-76,70
203,4320,4,-851,-4687,23,-173,-76,70
204,4319,3,-850,-4686,23,-173,-77,70
205,4317,4,-849,-4687,23,-173,-76,70
206,4319,7,-848,-4687,23,-174,-76,70
207,4316,6,-847,-4686,23,-175,-76,69
208,4315,5,-847,-4685,23,-174,-76,69
209,4313,8,-848,-4686,23,-174,-76,70
210,4316,6,-848,-4687,23,-174,-76,70
211,4319,6,-848,-4688,23,-174,-76,70
212,4318,4,-852,-4688,23,-174,-77,70
213,4318,3,-854,-4689,23,-174,-76,69
214,4319,4,-849,-4689,23,-173,-76,70
215,4318,5,-850,-4689,23,-173,-75,70
216,4318,5,-850,-4689,23,-173,-75,70
217,4316,2,-850,-4688,23,-174,-74,70
218,4317,3,-850,-4688,23,-173,-74,70
219,4314,3,-846,-4692,23,-174,-75,70
220,4313,0,-847,-4690,23,-174,-75,70
221,4316,0,-849,-4692,23,-174,-75,70
222,4316,2,-853,-4690,23,-174,-75,71
223,4319,0,-853,-4691,23,-175,-74,71
224,4320,1,-853,-4690,23,-174,-75,70
225,4319,2,-853,-4689,23,-174,-75,69
226,4319,2,-853,-4688,23,-174,-75,70
227,4319,1,-852,-4689,23,-174,-75,69
228,4318,0,-855,-4690,23,-174,-76,70
229,4320,1,-855,-4689,23,-175,-75,69
230,4319,2,-853,-4691,23,-175,-75,68
231,4320,2,-853,-4691,23,-175,-75,69
232,4317,3,-853,-4690,23,-175,-76,68
233,4317,3,-855,-4688,23,-175,-76,68
234,4318,5,-852,-4689,23,-176,-76,68
235,4320,4,-853,-4688,23,-174,-75,68
236,4321,4,-851,-4687,23,-175,-76,68
237,4322,2,-851,-4687,23,-175,-76,69
238,4320,5,-853,-4687,23,-175,-77,70
239,4318,8,-853,-4689,23,-174,-78,70
240,4318,9,-854,-4688,23,-175,-77,70
241,4318,7,-852,-4688,23,-174,-76,70
242,4317,5,-852,-4688,23,-173,-75,71
243,4317,6,-858,-4689,23,-175,-75,70
244,4319,2,-854,-4689,23,-174,-75,69
245,4320,0,-854,-4690,23,-174,-75,69
246,4320,4,-856,-4690,23,-174,-75,69
247,4318,3,-852,-4689,23,-175,-76,69
248,4316,3,-850,-4688,23,-175,-77,68
249,4317,3,-850,-4688,23,-174,-76,69
250,4318,4,-851,-4690,23,-173,-75,68
251,4320,2,-845,-4689,23,-174,-75,68
252,4319,3,-845,-4689,23,-173,-74,69
253,4318,1,-843,-4691,23,-173,-75,68
254,4321,0,-846,-4691,23,-174,-74,69
255,4318,0,-850,-4691,23,-173,-76,69
256,4319,1,-847,-4689,23,-174,-75,70
257,4320,0,-849,-4689,23,-174,-76,69
258,4321,1,-853,-4690,23,-175,-76,69
259,4320,2,-854,-4690,23,-174,-75,68
260,4318,4,-849,-4688,23,-174,-76,68
261,4317,3,-853,-4686,23,-173,-75,69
262,4317,4,-853,-4685,23,-173,-77,70
263,4317,3,-850,-4688,23,-174,-77,70
264,4316,4,-849,-4689,23,-175,-77,69
265,4318,4,-848,-4688,23,-175,-77,68
266,4318,4,-846,-4688,23,-174,-77,69
267,4319,5,-843,-4688,23,-175,-76,70
268,4320,4,-845,-4687,23,-174,-77,69
269,4320,5,-848,-4689,23,-173,-77,68
270,4318,4,-845,-4688,23,-173,-76,67
271,4318,3,-843,-4688,23,-173,-76,67
272,4317,2,-844,-4689,23,-173,-75,67
273,4318,2,-844,-4690,23,-173,-76,68
274,4319,4,-845,-4690,23,-173,-77,68
275,4321,7,-846,-4689,23,-173,-77,68
276,4319,5,-849,-4688,23,-173,-76,68
277,4320,4,-847,-4690,23,-172,-75,68
278,4321,5,-847,-4689,23,-172,-75,68
279,4322,4,-848,-4689,23,-173,-75,69
280,4321,4,-846,-4691,23,-174,-74,70
281,4321,4,-847,-4688,23,-173,-75,70
282,4318,4,-845,-4688,23,-173,-75,69
283,4315,4,-848,-4688,23,-173,-75,68
284,4316,2,-849,-4688,23,-173,-76,67
285,4316,0,-849,-4688,23,-172,-76,67
286,4320,0,-850,-4687,23,-173,-77,68
287,4321,2,-848,-4687,23,-173,-77,67
288,4319,2,-848,-4686,23,-173,-76,67
289,4319,2,-851,-4686,23,-173,-76,67
290,4321,0,-850,-4687,23,-172,-75,69
291,4321,-1,-848,-4688,23,-174,-75,70
292,4320,-2,-849,-4687,23,-173,-76,70
293,4320,0,-848,-4686,23,-172,-76,69
294,4319,2,-846,-4687,23,-173,-75,70
295,4319,3,-847,-4687,23,-173,-74,70
296,4322,3,-847,-4689,23,-173,-73,70
297,4321,5,-852,-4689,23,-173,-73,69
298,4323,4,-850,-4689,23,-174,-74,70
299,4322,4,-849,-4688,23,-174,-76,69
300,4320,5,-849,-4686,23,-174,-76,68
301,4321,3,-848,-4684,23,-173,-76,70
302,4320,1,-850,-4686,23,-173,-76,69
303,4319,2,-849,-4686,23,-174,-77,69
304,4320,1,-849,-4684,23,-174,-77,68
305,4321,1,-850,-4685,23,-174,-77,69
306,4321,0,-850,-4685,23,-174,-77,71
307,4320,0,-851,-4685,23,-174,-77,71
308,4322,1,-853,-4686,23,-174,-77,71
309,4321,3,-850,-4685,23,-174,-76,70
310,4321,3,-848,-4685,23,-174,-76,71
311,4320,2,-847,-4686,23,-175,-76,71
312,4319,3,-846,-4686,23,-175,-76,70
313,4320,1,-847,-4688,23,-175,-75,69
314,4319,1,-852,-4688,23,-175,-75,69
315,4319,2,-852,-4688,23,-174,-74,70
316,4320,1,-850,-4688,23,-174,-74,69
317,4321,2,-850,-4688,23,-174,-74,69
318,4323,1,-849,-4690,23,-174,-74,70
319,4323,0,-851,-4689,23,-174,-76,69
320,4323,-1,-851,-4689,23,-173,-76,68
321,4324,1,-849,-4688,23,-174,-75,69
322,4322,2,-848,-4688,23,-174,-75,69
323,4323,2,-849,-4687,23,-173,-76,69
324,4319,0,-851,-4688,23,-173,-76,69
325,4319,0,-853,-4688,23,-173,-75,69
326,4320,3,-853,-4690,23,-172,-75,69
327,4320,4,-850,-4689,23,-173,-75,70
328,4318,7,-850,-4689,23,-173,-75,70
329,4319,7,-850,-4689,23,-174,-76,70
330,4319,5,-849,-4689,23,-173,-76,71
331,4320,5,-854,-4689,23,-173,-75,70
332,4318,4,-849,-4689,23,-174,-75,70
333,4318,5,-850,-4689,23,-175,-76,68
334,4317,5,-848,-4689,23,-174,-76,69
335,4318,4,-848,-4688,23,-174,-76,70
336,4320,3,-849,-4688,23,-173,-75,70
337,4321,6,-847,-4688,23,-172,-74,70
338,4319,6,-847,-4688,23,-173,-75,70
339,4318,7,-850,-4687,23,-173,-75,69
340,4319,5,-849,-4689,23,-171,-75,70
341,4320,5,-849,-4689,23,-172,-76,70
342,4319,2,-845,-4689,23,-171,-76,69
343,4319,1,-846,-4689,23,-172,-77,69
344,4317,-1,-844,-4691,23,-173,-77,69
345,4318,-2,-846,-4690,23,-173,-76,69
346,4319,-3,-844,-4690,23,-173,-75,69
347,4320,-1,-848,-4689,23,-174,-74,69
348,4318,1,-846,-4688,23,-173,-75,71
349,4318,0,-848,-4689,23,-173,-76,71
350,4317,-1,-848,-4689,23,-173,-76,72
351,4318,1,-847,-4688,23,-173,-76,70
352,4317,0,-850,-4688,23,-173,-76,70
353,4316,1,-851,-4688,23,-174,-76,71
354,4319,3,-848,-4688,23,-174,-76,69
355,4321,1,-848,-4688,23,-174,-76,70
356,4321,3,-850,-4689,23,-174,-75,70
357,4322,4,-850,-4689,23,-173,-76,69
358,4321,4,-849,-4690,23,-172,-75,69
359,4320,6,-849,-4689,23,-171,-75,68
360,4320,4,-850,-4689,23,-171,-75,68
361,4320,6,-853,-4688,23,-172,-74,69
362,4320,5,-851,-4688,23,-172,-76,69
363,4319,5,-849,-4687,23,-171,-76,70
364,4320,3,-846,-4687,23,-171,-76,70
365,4319,2,-846,-4688,23,-171,-74,70
366,4319,3,-850,-4689,23,-173,-75,69
367,4319,3,-846,-4688,23,-172,-76,68
368,4320,3,-850,-4688,23,-172,-75,68
369,4322,5,-854,-4687,23,-173,-75,69
370,4321,5,-855,-4687,23,-175,-76,69
371,4320,4,-854,-4689,23,-174,-76,69
372,4321,4,-848,-4688,23,-173,-76,69
373,4322,4,-849,-4688,23,-173,-76,70
374,4323,4,-848,-4688,23,-174,-76,69
375,4324,3,-851,-4688,23,-173,-76,68
376,4323,1,-853,-4687,23,-173,-77,68
377,4321,3,-853,-4688,23,-172,-77,70
378,4321,4,-854,-4688,23,-171,-77,69
379,4319,6,-853,-4689,23,-171,-76,67
380,4320,6,-852,-4688,23,-172,-77,69
381,4320,6,-851,-4688,23,-172,-77,69
382,4319,7,-852,-4687,23,-172,-76,68
383,4320,7,-853,-4686,23,-173,-76,68
384,4322,4,-850,-4686,23,-172,-76,68
385,4323,1,-847,-4685,23,-173,-77,69
386,4320,0,-849,-4685,23,-174,-75,67
387,4317,2,-846,-4686,23,-174,-76,68
388,4315,3,-849,-4686,23,-173,-76,68
389,4313,4,-849,-4686,23,-174,-75,69
390,4315,5,-852,-4686,23,-173,-77,69
391,4314,6,-852,-4689,23,-173,-77,69
392,4316,5,-849,-4689,23,-172,-74,70
393,4316,3,-850,-4688,23,-173,-75,69
394,4314,4,-849,-4686,23,-173,-76,68
395,4314,3,-853,-4686,23,-173,-75,68
396,4315,2,-851,-4685,23,-173,-75,68
397,4317,3,-851,-4687,23,-172,-75,67
398,4317,2,-852,-4686,23,-173,-76,68
399,4318,2,-853,-4685,23,-173,-75,68
400,4318,1,-854,-4685,23,-173,-74,69
401,4318,0,-849,-4687,23,-172,-75,69
402,4317,2,-848,-4686,23,-172,-75,68
403,4319,3,-849,-4685,23,-172,-76,69
404,4319,3,-847,-4684,23,-173,-75,69
405,4315,2,-845,-4683,23,-174,-76,69
406,4317,3,-843,-4686,23,-174,-75,69
407,4318,2,-844,-4685,23,-175,-75,67
408,4316,0,-845,-4683,23,-174,-74,69
409,4317,2,-850,-4685,23,-173,-75,69
410,4315,4,-851,-4684,23,-173,-74,69
411,4317,3,-849,-4685,23,-173,-74,69
412,4318,5,-847,-4683,23,-173,-75,68
413,4315,4,-850,-4682,23,-174,-76,69
414,4315,4,-850,-4683,23,-174,-76,67
415,4315,6,-851,-4682,23,-174,-76,68
416,4314,4,-848,-4683,23,-173,-76,68
417,4317,4,-847,-4684,23,-172,-76,69
418,4316,5,-851,-4684,23,-173,-74,69
419,4316,5,-850,-4683,23,-174,-73,69
420,4316,4,-850,-4683,23,-173,-74,69
421,4317,2,-853,-4683,23,-172,-74,68
422,4316,1,-855,-4682,23,-173,-74,68
423,4315,2,-854,-4683,23,-173,-74,69
424,4315,3,-854,-4684,23,-174,-74,69
425,4315,2,-856,-4683,23,-175,-75,69
426,4316,0,-855,-4682,23,-175,-76,69
427,4317,3,-853,-4682,23,-174,-75,70
428,4319,4,-853,-4684,23,-176,-73,70
429,4319,3,-852,-4684,23,-176,-74,70
430,4320,4,-850,-4683,23,-177,-75,71
431,4321,4,-850,-4683,23,-177,-75,71
432,4321,4,-849,-4682,23,-177,-75,70
433,4321,5,-850,-4682,23,-176,-75,71
434,4319,4,-850,-4683,23,-175,-76,70
435,4319,1,-852,-4683,23,-174,-75,70
436,4319,0,-856,-4684,23,-175,-77,69
437,4320,0,-854,-4682,23,-175,-76,68
438,4320,-2,-855,-4684,23,-175,-75,68
439,4321,-1,-857,-4682,23,-174,-76,67
440,4322,0,-854,-4682,23,-174,-76,69
441,4321,-2,-858,-4682,23,-174,-75,69
442,4321,-1,-856,-4684,23,-174,-75,70
443,4322,-2,-853,-4684,23,-173,-74,71
444,4320,-3,-852,-4685,23,-173,-74,71
445,4317,-2,-851,-4685,23,-174,-75,70
446,4317,-2,-851,-4685,23,-174,-76,72
447,4317,0,-851,-4687,23,-173,-75,71
448,4316,1,-854,-4686,23,-172,-76,71
449,4316,1,-855,-4686,23,-173,-76,71
450,4317,3,-850,-4685,23,-175,-76,71
451,4315,3,-856,-4685,23,-174,-76,72
452,4316,3,-856,-4684,23,-175,-77,71
453,4319,4,-854,-4685,23,-175,-76,70
454,4319,5,-856,-4686,23,-175,-76,71
455,4319,7,-857,-4685,23,-176,-75,70
456,4322,8,-857,-4686,23,-176,-76,71
457,4321,8,-856,-4685,23,-176,-76,69
458,4319,5,-856,-4685,23,-175,-75,70
459,4319,3,-856,-4684,23,-174,-75,70
460,4320,4,-856,-4685,23,-174,-75,70
461,4319,4,-855,-4687,23,-173,-77,71
462,4317,5,-850,-4686,23,-173,-76,71
463,4316,3,-849,-4686,23,-175,-76,71
464,4315,4,-851,-4685,23,-174,-75,71
465,4319,6,-853,-4684,23,-174,-75,71
466,4320,7,-853,-4685,23,-173,-75,71
467,4322,5,-853,-4685,23,-173,-75,70
468,4321,5,-856,-4686,23,-172,-75,71
469,4322,5,-854,-4686,23,-173,-76,70
470,4322,4,-853,-4687,23,-174,-76,70
471,4322,3,-854,-4686,23,-173,-75,70
472,4320,2,-855,-4686,23,-173,-75,71
473,4319,2,-854,-4686,23,-172,-76,71
474,4316,3,-856,-4684,23,-171,-76,71
475,4319,5,-855,-4685,23,-172,-75,71
476,4317,3,-851,-4684,23,-173,-75,70
477,4316,3,-851,-4683,23,-174,-74,69
478,4318,3,-849,-4684,23,-173,-76,69
479,4318,3,-851,-4684,23,-172,-76,69
480,4321,2,-849,-4684,23,-173,-77,70
481,4319,2,-853,-4684,23,-173,-77,70
482,4319,2,-855,-4685,23,-173,-77,69
483,4317,4,-851,-4685,23,-172,-75,69
484,4318,3,-852,-4686,23,-173,-75,69
485,4319,3,-852,-4686,23,-174,-75,69
486,4318,5,-851,-4688,23,-174,-76,68
487,4317,3,-852,-4686,23,-174,-75,69
488,4320,4,-852,-4687,23,-174,-75,68
489,4320,3,-854,-4686,23,-173,-75,68
490,4321,0,-849,-4686,23,-174,-75,68
491,4320,1,-850,-4686,23,-174,-75,68
492,4319,1,-853,-4686,23,-174,-75,70
493,4320,2,-857,-4685,23,-173,-77,69
494,4319,2,-859,-4685,23,-175,-76,69
495,4320,2,-857,-4684,23,-174,-76,69
496,4321,-1,-856,-4683,23,-174,-75,69
497,4321,-1,-857,-4684,23,-174,-76,70
498,4320,1,-855,-4685,23,-174,-74,70
499,4320,1,-855,-4686,23,-173,-75,71
500,4319,1,-856,-4687,23,-174,-75,72
501,4320,2,-854,-4688,23,-174,-74,71
502,4319,1,-856,-4689,23,-174,-74,70
503,4318,1,-857,-4689,23,-174,-75,69
504,4317,0,-855,-4688,23,-174,-76,69
505,4317,1,-854,-4688,23,-173,-76,69
506,4318,1,-849,-4687,23,-174,-76,70
507,4318,2,-848,-4686,23,-174,-76,70
508,4319,-2,-850,-4686,23,-174,-75,70
509,4320,-2,-855,-4685,23,-174,-76,68
510,4321,0,-859,-4683,23,-174,-75,69
511,4322,1,-857,-4683,23,-174,-75,68
512,4323,3,-857,-4681,23,-173,-76,69
513,4322,3,-855,-4681,23,-172,-75,68
514,4320,2,-853,-4682,23,-172,-76,70
515,4318,1,-855,-4682,23,-172,-74,69
516,4320,2,-855,-4682,23,-173,-75,70
517,4318,3,-855,-4683,23,-175,-76,69
518,4318,3,-853,-4682,23,-176,-77,68
519,4318,5,-852,-4682,23,-176,-76,68
520,4319,6,-854,-4682,23,-175,-77,68
521,4320,4,-851,-4682,23,-173,-76,69
522,4318,4,-849,-4684,23,-174,-76,68
523,4319,2,-847,-4684,23,-173,-77,68
524,4319,2,-845,-4684,23,-174,-75,68
525,4320,2,-846,-4684,23,-174,-74,68
526,4319,3,-843,-4685,23,-174,-75,69
527,4318,5,-848,-4684,23,-176,-76,69
528,4320,6,-848,-4684,23,-176,-75,69
529,4318,3,-846,-4684,23,-175,-75,68
530,4318,5,-846,-4685,23,-174,-75,69
531,4318,3,-846,-4686,23,-173,-77,69
532,4319,3,-845,-4683,23,-173,-76,70
533,4317,6,-846,-4684,23,-173,-77,69
534,4320,5,-848,-4684,23,-174,-75,69
535,4319,7,-849,-4683,23,-176,-75,68
536,4319,6,-847,-4683,23,-175,-74,68
537,4319,8,-847,-4682,23,-173,-74,69
538,4318,5,-849,-4681,23,-174,-74,69
539,4319,5,-854,-4681,23,-174,-75,69
540,4321,3,-851,-4683,23,-174,-74,69
541,4323,6,-849,-4682,23,-174,-75,69
542,4323,7,-850,-4683,23,-174,-75,69
543,4321,6,-849,-4683,23,-174,-76,68
544,4320,7,-850,-4684,23,-173,-75,69
545,4319,5,-843,-4685,23,-173,-75,69
546,4321,5,-846,-4685,23,-173,-74,69
547,4320,5,-846,-4685,23,-173,-75,69
548,4318,3,-845,-4685,23,-174,-75,69
549,4317,2,-841,-4686,23,-175,-76,71
550,4316,0,-844,-4687,23,-175,-77,71
551,4315,2,-844,-4687,23,-174,-76,70
552,4316,5,-843,-4686,23,-174,-77,70
553,4317,5,-842,-4686,23,-174,-79,71
554,4316,4,-844,-4685,23,-174,-80,72
555,4316,2,-845,-4687,23,-174,-79,72
556,4315,3,-843,-4685,23,-174,-78,71
557,4313,4,-844,-4687,23,-174,-78,71
558,4314,4,-845,-4684,23,-174,-76,70
559,4313,5,-846,-4683,23,-174,-76,69
560,4314,5,-846,-4682,23,-174,-77,69
561,4315,5,-844,-4682,23,-174,-76,69
562,4315,0,-852,-4683,23,-175,-76,69
563,4317,2,-852,-4682,23,-173,-75,70
564,4317,2,-849,-4683,23,-173,-75,69
565,4316,4,-848,-4683,23,-175,-74,69
566,4316,4,-848,-4683,23,-174,-74,69
567,4317,4,-847,-4684,23,-174,-74,69
568,4320,5,-849,-4684,23,-174,-75,69
569,4321,5,-841,-4685,23,-174,-75,70
570,4320,3,-845,-4685,23,-174,-75,68
571,4321,1,-843,-4685,23,-175,-74,70
572,4321,1,-845,-4685,23,-174,-75,69
573,4319,2,-847,-4685,23,-174,-76,69
574,4317,4,-846,-4685,23,-175,-75,69
575,4318,5,-848,-4684,23,-176,-75,69
576,4317,4,-847,-4683,23,-175,-74,68
577,4318,4,-849,-4685,23,-176,-74,69
578,4319,3,-847,-4686,23,-176,-75,69
579,4319,5,-850,-4686,23,-176,-78,70
580,4320,2,-851,-4686,23,-175,-78,69
581,4319,0,-851,-4685,23,-174,-77,68
582,4314,1,-851,-4686,23,-174,-77,69
583,4316,1,-849,-4685,23,-173,-76,69
584,4316,3,-850,-4685,23,-173,-76,70
585,4316,3,-850,-4686,23,-173,-76,69
586,4317,1,-850,-4685,23,-173,-75,69
587,4317,0,-854,-4683,23,-173,-75,69
588,4316,-1,-854,-4682,23,-173,-76,69
589,4318,1,-851,-4681,23,-173,-76,70
590,4318,0,-848,-4681,23,-173,-76,70
591,4319,1,-848,-4682,23,-173,-76,69
592,4320,3,-850,-4681,23,-174,-75,69
593,4319,2,-851,-4680,23,-175,-76,70
594,4320,2,-851,-4680,23,-174,-76,69
595,4317,5,-847,-4681,23,-172,-76,69
596,4319,2,-848,-4681,23,-172,-76,67
597,4319,3,-848,-4681,23,-173,-76,67
598,4318,1,-848,-4682,23,-173,-77,67
599,4318,0,-846,-4682,23,-172,-77,67
600,4319,-1,-846,-4682,23,-172,-76,68
601,4319,0,-845,-4682,23,-173,-75,68
602,4320,2,-847,-4683,23,-173,-74,69
603,4320,1,-846,-4682,23,-173,-76,69
604,4319,4,-848,-4682,23,-173,-76,69
605,4320,5,-849,-4682,23,-173,-76,68
606,4323,4,-848,-4682,23,-173,-78,69
607,4322,6,-849,-4680,23,-173,-76,68
608,4321,7,-849,-4681,23,-173,-77,68
609,4321,5,-850,-4681,23,-172,-77,68
610,4321,6,-852,-4680,23,-173,-78,68
611,4320,4,-852,-4681,23,-173,-78,69
612,4319,4,-848,-4684,23,-173,-77,68
613,4321,4,-849,-4685,23,-173,-78,68
614,4321,2,-844,-4686,23,-173,-78,70
615,4321,2,-844,-4686,23,-173,-79,70
616,4321,1,-846,-4685,23,-173,-79,70
617,4319,1,-847,-4684,23,-173,-78,69
618,4320,0,-852,-4684,23,-174,-77,69
619,4319,1,-852,-4685,23,-174,-75,69
620,4319,3,-852,-4683,23,-175,-76,70
621,4319,2,-849,-4684,23,-176,-76,70
622,4317,2,-845,-4684,23,-175,-76,70
623,4317,2,-846,-4682,23,-174,-76,71
624,4317,3,-847,-4682,23,-174,-75,69
625,4320,1,-849,-4683,23,-174,-76,69
626,4320,2,-851,-4682,23,-174,-75,68
627,4320,3,-853,-4681,23,-175,-76,69
628,4319,2,-851,-4683,23,-175,-76,69
629,4320,1,-852,-4683,23,-175,-75,70
630,4317,2,-850,-4683,23,-174,-75,70
631,4316,2,-853,-4682,23,-174,-74,70
632,4316,2,-852,-4683,23,-173,-74,71
633,4317,3,-850,-4683,23,-174,-75,71
634,4320,5,-852,-4682,23,-173,-76,70
635,4317,4,-854,-4684,23,-173,-75,70
636,4318,3,-852,-4685,23,-173,-75,70
637,4319,2,-848,-4684,23,-172,-75,70
638,4319,3,-849,-4685,23,-173,-76,69
639,4319,3,-849,-4685,23,-172,-75,69
640,4320,2,-850,-4683,23,-171,-76,70
641,4318,4,-848,-4681,23,-173,-76,70
642,4318,2,-853,-4682,23,-173,-75,71
643,4318,1,-847,-4682,23,-174,-76,71
644,4319,1,-847,-4683,23,-174,-75,70
645,4319,2,-848,-4683,23,-174,-75,70
646,4318,2,-847,-4681,23,-175,-74,69
647,4317,0,-847,-4682,23,-176,-76,68
648,4317,1,-848,-4684,23,-175,-76,68
649,4316,4,-849,-4684,23,-174,-76,69
650,4316,4,-852,-4683,23,-174,-76,69
651,4317,4,-852,-4682,23,-174,-77,70
652,4318,4,-851,-4682,23,-174,-77,70
653,4318,5,-852,-4682,23,-173,-77,69
654,4318,5,-854,-4682,23,-174,-76,69
655,4317,5,-852,-4682,23,-174,-76,70
656,4318,4,-851,-4683,23,-175,-75,70
657,4317,4,-851,-4684,23,-174,-76,70
658,4319,4,-849,-4683,23,-174,-75,70
659,4320,4,-853,-4684,23,-174,-74,71
660,4320,3,-853,-4683,23,-175,-74,70
661,4319,3,-855,-4682,23,-175,-75,69
662,4320,3,-854,-4681,23,-174,-74,68
663,4320,4,-850,-4682,23,-175,-75,68
664,4319,3,-849,-4683,23,-175,-76,69
665,4321,1,-851,-4684,23,-174,-74,70
666,4321,0,-849,-4684,23,-173,-74,69
667,4321,2,-850,-4684,23,-175,-74,70
668,4320,2,-847,-4684,23,-174,-75,70
669,4319,0,-847,-4684,23,-173,-75,69
670,4318,1,-843,-4684,23,-173,-75,70
671,4318,0,-846,-4683,23,-173,-75,69
672,4318,-1,-846,-4684,23,-173,-74,70
673,4320,1,-848,-4685,23,-175,-72,70
674,4318,2,-848,-4683,23,-174,-73,69
675,4320,0,-848,-4683,23,-175,-73,70
676,4319,1,-850,-4683,23,-173,-74,68
677,4320,2,-850,-4682,23,-173,-74,68
678,4320,3,-850,-4681,23,-175,-74,68
679,4321,2,-850,-4683,23,-175,-76,68
680,4321,2,-848,-4681,23,-174,-75,69
681,4319,4,-846,-4680,23,-173,-75,68
682,4316,3,-848,-4681,23,-173,-75,68
683,4317,2,-849,-4681,23,-173,-76,69
684,4317,3,-847,-4679,23,-173,-74,69
685,4318,6,-844,-4679,23,-173,-74,69
686,4318,4,-848,-4678,23,-173,-73,69
687,4316,6,-851,-4678,23,-172,-74,68
688,4314,4,-854,-4677,23,-171,-75,69
689,4314,1,-854,-4677,23,-171,-75,70
690,4315,3,-853,-4679,23,-172,-74,69
691,4317,6,-851,-4678,23,-172,-73,68
692,4316,5,-851,-4678,23,-172,-74,70
693,4317,3,-851,-4679,23,-172,-75,70
694,4316,4,-850,-4679,23,-173,-75,70
695,4317,2,-849,-4680,23,-173,-75,70
696,4315,0,-847,-4681,23,-174,-75,69
697,4316,2,-846,-4682,23,-173,-74,70
698,4313,3,-848,-4680,23,-173,-75,69
699,4314,2,-850,-4680,23,-174,-75,70
700,4316,2,-853,-4679,23,-173,-75,69
701,4318,0,-849,-4679,23,-174,-74,68
702,4320,-1,-852,-4677,23,-174,-74,70
703,4320,0,-853,-4679,23,-173,-74,69
704,4319,0,-855,-4680,23,-173,-75,69
705,4320,2,-855,-4681,23,-172,-74,69
706,4320,4,-855,-4680,23,-173,-75,70
707,4321,4,-857,-4680,23,-173,-75,70
708,4321,5,-854,-4682,23,-174,-75,71
709,4319,6,-852,-4682,23,-174,-75,71
710,4320,5,-852,-4683,23,-174,-74,71
711,4321,7,-849,-4682,23,-175,-75,71
712,4319,5,-846,-4682,23,-175,-74,71
713,4321,4,-847,-4681,23,-174,-76,71
714,4319,5,-845,-4680,23,-174,-76,71
715,4319,4,-848,-4680,23,-174,-75,70
716,4320,1,-846,-4680,23,-174,-76,69
717,4318,-1,-848,-4679,23,-175,-76,70
718,4315,-1,-847,-4678,23,-176,-76,72
719,4313,-4,-847,-4679,23,-174,-77,70
720,4313,-5,-848,-4680,23,-173,-76,70
721,4311,-3,-848,-4679,23,-173,-76,71
722,4314,-2,-850,-4677,23,-172,-75,71
723,4315,-1,-851,-4679,23,-172,-76,72
724,4319,0,-855,-4679,23,-172,-74,71
725,4319,0,-854,-4678,23,-172,-75,71
726,4318,3,-853,-4678,23,-173,-76,72
727,4317,3,-850,-4678,23,-173,-76,72
728,4319,1,-850,-4677,23,-174,-77,72
729,4320,0,-849,-4680,23,-174,-77,71
730,4318,0,-851,-4681,23,-173,-76,71
731,4320,3,-850,-4681,23,-174,-76,70
732,4321,4,-850,-4682,23,-174,-75,70
733,4321,6,-852,-4682,23,-174,-74,70
734,4318,6,-852,-4683,23,-174,-73,70
735,4320,6,-852,-4682,23,-173,-73,70
736,4319,6,-851,-4681,23,-173,-74,69
737,4320,4,-852,-4682,23,-173,-74,69
738,4318,4,-850,-4680,23,-173,-75,69
739,4319,3,-845,-4681,23,-173,-76,71
740,4319,3,-845,-4681,23,-172,-76,70
741,4320,5,-845,-4680,23,-172,-76,70
742,4319,2,-844,-4680,23,-173,-75,70
743,4320,3,-844,-4681,23,-173,-75,70
744,4317,1,-847,-4681,23,-173,-75,69
745,4317,3,-847,-4680,23,-174,-74,69
746,4320,4,-842,-4678,23,-173,-75,69
747,4321,4,-842,-4679,23,-173,-75,69
748,4324,5,-846,-4678,23,-173,-76,70
749,4325,5,-848,-4677,23,-174,-76,71
750,4321,3,-850,-4679,23,-174,-76,71
751,4320,3,-848,-4679,23,-174,-76,71
752,4320,3,-850,-4679,23,-174,-77,71
753,4322,4,-847,-4678,23,-174,-76,70
754,4320,5,-848,-4680,23,-174,-76,70
755,4319,6,-847,-4680,23,-174,-76,70
756,4319,7,-844,-4678,23,-173,-75,70
757,4319,9,-843,-4678,23,-173,-76,69
758,4319,6,-842,-4676,23,-174,-75,70
759,4320,4,-841,-4676,23,-173,-74,71
760,4321,5,-844,-4678,23,-173,-75,71
761,4321,7,-843,-4680,23,-173,-74,70
762,4320,7,-843,-4681,23,-175,-74,69
763,4319,5,-843,-4679,23,-175,-76,70
764,4319,3,-844,-4681,23,-174,-76,71
765,4321,2,-841,-4679,23,-175,-75,70
766,4321,2,-843,-4682,23,-174,-76,70
767,4321,2,-844,-4682,23,-174,-75,70
768,4319,2,-845,-4683,23,-175,-75,69
769,4318,0,-847,-4681,23,-175,-74,69
770,4320,0,-848,-4680,23,-174,-75,69
771,4319,1,-848,-4680,23,-174,-75,68
772,4322,1,-844,-4679,23,-173,-76,69
773,4321,1,-846,-4678,23,-172,-76,68
774,4320,3,-845,-4676,23,-174,-76,68
775,4320,2,-842,-4677,23,-175,-75,66
776,4320,2,-844,-4679,23,-174,-75,67
777,4318,1,-845,-4679,23,-174,-75,68
778,4318,0,-844,-4679,23,-174,-75,69
779,4317,2,-844,-4677,23,-174,-74,69
780,4317,2,-848,-4678,23,-174,-73,68
781,4317,4,-850,-4679,23,-174,-74,69
782,4318,5,-847,-4678,23,-175,-75,69
783,4316,6,-845,-4680,23,-176,-75,69
784,4316,5,-847,-4679,23,-175,-74,70
785,4314,4,-849,-4679,23,-175,-74,70
786,4315,2,-850,-4679,23,-173,-75,70
787,4314,0,-854,-4681,23,-173,-75,70
788,4316,-1,-856,-4680,23,-173,-74,69
789,4316,2,-854,-4679,23,-173,-74,70
790,4318,1,-856,-4677,23,-173,-76,70
791,4320,2,-856,-4678,23,-174,-76,68
792,4318,2,-852,-4677,23,-173,-76,70
793,4318,1,-851,-4676,23,-173,-76,70
794,4316,1,-849,-4675,23,-174,-75,70
795,4315,0,-846,-4676,23,-173,-75,69
796,4316,0,-848,-4678,23,-173,-76,70
797,4316,1,-848,-4677,23,-173,-75,70
798,4315,1,-845,-4678,23,-173,-75,69
799,4314,1,-846,-4679,23,-174,-75,69
800,4313,1,-843,-4679,23,-174,-74,69
801,4313,3,-847,-4680,23,-174,-75,69
802,4314,7,-849,-4680,23,-175,-74,69
803,4315,5,-849,-4682,23,-174,-74,69
804,4316,4,-848,-4681,23,-174,-76,71
805,4318,6,-849,-4680,23,-174,-76,71
806,4319,4,-850,-4678,23,-173,-75,71
807,4318,4,-853,-4679,23,-173,-75,69
808,4320,3,-852,-4677,23,-174,-75,70
809,4321,4,-845,-4675,23,-174,-74,70
810,4322,1,-843,-4673,23,-176,-74,69
811,4322,2,-844,-4672,23,-174,-75,69
812,4322,1,-844,-4674,23,-174,-76,69
813,4323,3,-850,-4675,23,-174,-76,69
814,4324,1,-852,-4676,23,-174,-77,69
815,4324,0,-849,-4677,23,-173,-76,69
816,4324,-1,-851,-4678,23,-174,-75,68
817,4322,1,-851,-4678,23,-174,-75,68
818,4320,1,-851,-4678,23,-173,-75,68
819,4318,0,-849,-4677,23,-174,-75,68
820,4316,0,-848,-4679,23,-174,-75,69
821,4319,0,-847,-4678,23,-174,-74,69
822,4320,0,-849,-4678,23,-174,-74,69
823,4322,1,-851,-4678,23,-175,-76,68
824,4323,1,-852,-4677,23,-174,-75,68
825,4322,-1,-853,-4675,23,-173,-75,69
826,4319,-2,-850,-4674,23,-173,-75,70
827,4320,0,-851,-4674,23,-173,-75,69
828,4320,1,-849,-4674,23,-173,-76,70
829,4319,1,-851,-4673,23,-174,-76,70
830,4318,2,-852,-4673,23,-173,-77,69
831,4318,0,-851,-4674,23,-173,-77,69
832,4317,0,-853,-4677,23,-172,-75,69
833,4317,-2,-853,-4676,23,-173,-75,69
834,4316,-1,-849,-4677,23,-173,-73,69
835,4316,-1,-845,-4678,23,-174,-73,69
836,4317,-2,-845,-4678,23,-175,-73,68
837,4319,-1,-850,-4678,23,-175,-75,68
838,4317,-3,-848,-4677,23,-173,-75,68
839,4316,-4,-850,-4678,23,-173,-76,68
840,4318,-2,-848,-4677,23,-173,-77,70
841,4317,-1,-849,-4677,23,-173,-77,69
842,4314,0,-853,-4678,23,-173,-77,69
843,4315,0,-855,-4679,23,-173,-76,70
844,4317,-2,-856,-4678,23,-173,-77,68
845,4317,-2,-855,-4678,23,-172,-77,69
846,4318,-4,-854,-4678,23,-172,-76,69
847,4318,-3,-854,-4679,23,-171,-76,69
848,4317,-5,-852,-4680,23,-173,-77,69
849,4315,-2,-849,-4680,23,-173,-78,69
850,4316,0,-849,-4681,23,-173,-77,69
851,4315,1,-849,-4680,23,-173,-75,70
852,4317,2,-847,-4682,23,-174,-76,71
853,4315,1,-850,-4680,23,-173,-76,70
854,4317,1,-850,-4679,23,-173,-76,70
855,4318,2,-849,-4679,23,-172,-76,69
856,4322,2,-847,-4678,23,-172,-76,68
857,4322,1,-847,-4679,23,-173,-76,70
858,4323,2,-849,-4678,23,-173,-76,69
859,4324,1,-849,-4679,23,-173,-76,70
860,4322,3,-848,-4679,23,-173,-75,70
861,4321,4,-847,-4679,23,-173,-76,69
862,4318,3,-847,-4678,23,-174,-77,69
863,4318,2,-849,-4676,23,-175,-77,70
864,4319,2,-850,-4676,23,-174,-76,71
865,4317,3,-851,-4676,23,-174,-76,70
866,4315,1,-849,-4677,23,-175,-76,70
867,4315,1,-845,-4676,23,-175,-77,70
868,4316,1,-845,-4677,23,-174,-77,71
869,4318,3,-851,-4677,23,-174,-77,70
870,4319,3,-853,-4677,23,-173,-78,70
871,4319,2,-849,-4676,23,-172,-78,70
872,4320,2,-848,-4675,23,-172,-76,70
873,4324,2,-848,-4674,23,-172,-75,70
874,4323,2,-847,-4675,23,-173,-76,70
875,4322,-1,-851,-4679,23,-174,-77,69
876,4320,2,-849,-4679,23,-175,-77,69
877,4321,1,-850,-4678,23,-175,-76,70
878,4319,1,-849,-4677,23,-175,-76,70
879,4319,2,-851,-4678,23,-175,-76,69
880,4317,2,-849,-4680,23,-174,-75,69
881,4317,1,-850,-4680,23,-174,-76,70
882,4315,-3,-850,-4680,23,-174,-76,70
883,4318,-3,-849,-4679,23,-173,-77,69
884,4319,-4,-846,-4678,23,-174,-77,70
885,4321,-2,-852,-4677,23,-173,-77,70
886,4322,-2,-855,-4676,23,-174,-78,69
887,4322,-3,-857,-4677,23,-174,-76,69
888,4323,-1,-852,-4676,23,-172,-78,69
889,4321,1,-852,-4675,23,-174,-77,69
890,4322,2,-850,-4676,23,-174,-77,70
891,4320,4,-848,-4676,23,-174,-77,69
892,4319,2,-852,-4675,23,-174,-76,68
893,4320,2,-850,-4676,23,-174,-74,69
894,4319,3,-852,-4675,23,-175,-75,69
895,4319,5,-846,-4674,23,-175,-76,70
896,4320,7,-846,-4673,23,-174,-77,70
897,4319,6,-847,-4672,23,-174,-77,69
898,4322,6,-849,-4673,23,-174,-77,69
899,4321,6,-852,-4671,23,-174,-78,68
900,4320,6,-850,-4672,23,-175,-79,68
901,4316,6,-850,-4674,23,-175,-78,68
902,4316,6,-851,-4675,23,-175,-77,68
903,4317,6,-844,-4673,23,-174,-77,69
904,4318,5,-847,-4675,23,-174,-77,70
905,4316,7,-848,-4674,23,-174,-77,70
906,4317,6,-849,-4674,23,-174,-77,69
907,4320,7,-853,-4675,23,-173,-77,69
908,4319,5,-850,-4675,23,-172,-77,69
909,4318,6,-848,-4677,23,-173,-76,69
910,4319,5,-845,-4677,23,-174,-76,68
911,4319,7,-844,-4676,23,-173,-75,69
912,4318,4,-846,-4676,23,-174,-76,69
913,4318,3,-846,-4675,23,-174,-75,68
914,4319,3,-846,-4676,23,-172,-75,69
915,4320,2,-849,-4676,23,-173,-75,70
916,4319,1,-851,-4675,23,-173,-76,70
917,4319,4,-853,-4673,23,-172,-76,71
918,4319,5,-855,-4674,23,-173,-76,71
919,4324,3,-856,-4673,23,-173,-76,71
920,4324,1,-854,-4673,23,-173,-76,72
921,4321,0,-851,-4672,23,-174,-76,72
922,4318,3,-851,-4673,23,-173,-75,72
923,4319,4,-852,-4673,23,-172,-75,72
924,4317,2,-851,-4674,23,-174,-76,71
925,4316,3,-852,-4675,23,-175,-76,70
926,4317,3,-850,-4675,23,-174,-77,71
927,4319,1,-851,-4677,23,-174,-77,70
928,4318,1,-852,-4676,23,-174,-76,70
929,4316,2,-852,-4677,23,-174,-75,69
930,4314,5,-854,-4678,23,-174,-75,68
931,4316,5,-853,-4677,23,-174,-75,68
932,4316,4,-853,-4676,23,-174,-74,68
933,4317,3,-853,-4676,23,-174,-75,70
934,4317,5,-851,-4676,23,-174,-76,70
935,4316,3,-848,-4678,23,-172,-75,68
936,4317,4,-849,-4679,23,-172,-74,68
937,4318,3,-849,-4679,23,-173,-74,69
938,4319,5,-850,-4678,23,-174,-74,69
939,4319,5,-849,-4676,23,-174,-74,70
940,4318,6,-850,-4678,23,-175,-75,70
941,4314,5,-851,-4677,23,-174,-74,69
942,4317,5,-849,-4680,23,-174,-74,68
943,4317,3,-851,-4677,23,-173,-73,68
944,4316,2,-847,-4677,23,-174,-74,69
945,4315,0,-850,-4675,23,-175,-75,69
946,4314,1,-852,-4674,23,-175,-74,69
947,4316,2,-852,-4675,23,-175,-74,69
948,4318,4,-855,-4675,23,-175,-74,70
949,4318,3,-854,-4675,23,-175,-76,68
950,4318,2,-851,-4675,23,-175,-76,68
951,4319,0,-852,-4675,23,-175,-75,69
952,4321,-1,-852,-4676,23,-174,-75,68
953,4321,0,-852,-4677,23,-173,-75,70
954,4320,-1,-850,-4677,23,-173,-75,70
955,4321,0,-847,-4675,23,-174,-75,70
956,4321,0,-846,-4674,23,-174,-75,70
957,4321,2,-847,-4674,23,-173,-74,69
958,4322,0,-850,-4674,23,-173,-76,69
959,4321,2,-856,-4674,23,-173,-75,68
960,4321,3,-853,-4674,23,-173,-76,68
961,4318,3,-854,-4673,23,-173,-76,69
962,4317,2,-853,-4671,23,-172,-75,69
963,4318,1,-851,-4675,23,-173,-77,69
964,4317,1,-849,-4676,23,-172,-77,68
965,4317,1,-847,-4675,23,-173,-76,68
966,4316,2,-847,-4676,23,-173,-76,68
967,4316,2,-845,-4676,23,-172,-75,68
968,4316,3,-848,-4676,23,-172,-75,68
969,4316,5,-851,-4677,23,-172,-75,69
970,4316,5,-852,-4677,23,-173,-76,69
971,4318,3,-850,-4676,23,-173,-76,70
972,4320,1,-850,-4675,23,-173,-76,70
973,4322,2,-850,-4674,23,-173,-76,70
974,4322,2,-853,-4677,23,-174,-75,69
975,4320,4,-855,-4676,23,-173,-76,70
976,4320,5,-855,-4676,23,-173,-77,70
977,4320,5,-852,-4676,23,-173,-76,70
978,4319,6,-851,-4677,23,-173,-76,70
979,4318,5,-850,-4677,23,-174,-77,69
980,4318,4,-850,-4676,23,-173,-78,70
981,4316,4,-855,-4677,23,-173,-77,71
982,4317,3,-850,-4676,23,-173,-77,70
983,4317,3,-851,-4676,23,-173,-77,70
984,4314,0,-853,-4677,23,-175,-79,70
985,4314,-1,-854,-4676,23,-175,-79,69
986,4315,0,-853,-4676,23,-174,-77,70
987,4316,1,-849,-4674,23,-174,-77,69
988,4316,1,-850,-4676,23,-174,-78,69
989,4317,2,-848,-4676,23,-173,-78,69
990,4317,2,-843,-4674,23,-173,-77,69
991,4316,4,-842,-4674,23,-174,-77,69
992,4318,3,-842,-4674,23,-173,-77,70
993,4318,4,-846,-4675,23,-173,-76,71
994,4318,3,-851,-4675,23,-173,-75,70
995,4317,5,-852,-4676,23,-173,-75,70
996,4316,6,-850,-4674,23,-174,-74,69
997,4316,6,-848,-4674,23,-174,-75,71
998,4318,7,-850,-4673,23,-174,-76,69
