,acc_X,acc_Y,acc_Z,temp,tempC,gyr_X,gyr_Y,gyr_Z
0,2160,1,-426,-4790,22,-43,-19,17
1,2160,0,-426,-4790,22,-43,-19,17
2,2160,1,-426,-4791,22,-44,-19,17
3,2160,1,-424,-4790,22,-44,-19,17
4,2161,1,-425,-4789,22,-44,-19,17
5,2161,1,-426,-4788,22,-43,-19,17
6,2160,1,-425,-4787,22,-43,-19,17
7,2161,0,-425,-4787,22,-44,-19,17
8,2160,-1,-426,-4787,22,-44,-19,17
9,2161,-1,-424,-4788,22,-43,-19,17
10,2162,-1,-423,-4787,22,-44,-19,17
11,2161,0,-424,-4787,22,-44,-19,17
12,2161,0,-424,-4785,22,-43,-19,17
13,2160,-1,-425,-4785,22,-44,-19,17
14,2159,0,-427,-4785,22,-43,-19,17
15,2160,1,-427,-4785,22,-44,-19,17
16,2160,2,-427,-4784,22,-44,-19,17
17,2159,1,-427,-4783,22,-44,-19,17
18,2159,0,-424,-4783,22,-44,-19,17
19,2158,0,-423,-4785,22,-44,-19,17
20,2157,1,-422,-4784,22,-44,-20,17
21,2156,1,-422,-4785,22,-44,-20,17
22,2157,2,-424,-4784,22,-43,-20,17
23,2158,1,-425,-4784,22,-44,-20,17
24,2158,2,-426,-4782,22,-43,-20,17
25,2159,2,-425,-4781,22,-43,-20,17
26,2158,3,-425,-4782,22,-44,-20,17
27,2158,2,-426,-4782,22,-44,-20,17
28,2157,2,-426,-4784,22,-44,-19,17
29,2158,2,-425,-4782,22,-44,-20,17
30,2158,1,-424,-4782,22,-44,-20,17
31,2158,2,-425,-4782,22,-44,-19,17
32,2159,3,-424,-4780,22,-44,-19,17
33,2160,2,-424,-4781,22,-44,-19,17
34,2160,2,-423,-4782,22,-44,-19,17
35,2160,1,-424,-4783,22,-44,-18,17
36,2160,1,-424,-4782,22,-43,-19,17
37,2159,0,-424,-4781,22,-43,-19,16
38,2160,0,-423,-4781,22,-43,-19,17
39,2159,1,-423,-4783,22,-43,-19,17
40,2160,1,-423,-4783,22,-44,-19,17
41,2159,1,-424,-4781,22,-44,-18,17
42,2159,1,-425,-4779,22,-44,-19,17
43,2161,2,-425,-4780,22,-43,-19,17
44,2159,2,-425,-4779,22,-44,-19,17
45,2160,1,-424,-4779,22,-44,-19,17
46,2160,-1,-424,-4777,22,-44,-19,17
47,2159,-1,-425,-4777,22,-44,-20,17
48,2159,-1,-424,-4776,22,-44,-19,17
49,2159,0,-423,-4775,22,-44,-19,17
50,2158,0,-423,-4776,22,-44,-19,17
51,2159,0,-424,-4775,22,-44,-19,17
52,2159,1,-423,-4773,22,-44,-20,17
53,2160,1,-422,-4774,22,-44,-19,17
54,2158,2,-424,-4772,22,-44,-19,17
55,2158,1,-426,-4772,22,-44,-20,17
56,2157,2,-427,-4773,22,-44,-19,17
57,2158,2,-426,-4772,22,-44,-19,17
58,2158,2,-426,-4772,22,-44,-20,17
59,2158,1,-426,-4771,22,-44,-20,17
60,2157,1,-424,-4771,22,-44,-20,17
61,2158,2,-423,-4771,22,-44,-20,17
62,2157,1,-424,-4770,22,-44,-20,17
63,2158,1,-424,-4771,22,-44,-19,17
64,2158,2,-425,-4772,22,-44,-19,17
65,2158,2,-424,-4771,22,-43,-19,17
66,2157,1,-425,-4770,22,-44,-20,17
67,2158,1,-425,-4770,22,-44,-20,17
68,2159,1,-426,-4770,22,-44,-19,17
69,2158,2,-426,-4769,22,-43,-19,17
70,2159,4,-426,-4770,22,-43,-20,17
71,2160,3,-426,-4768,22,-43,-19,17
72,2159,3,-426,-4767,22,-43,-19,17
73,2158,2,-426,-4768,22,-44,-19,17
74,2158,2,-425,-4769,22,-43,-19,17
75,2157,2,-424,-4770,22,-43,-19,17
76,2158,1,-425,-4769,22,-43,-19,17
77,2158,0,-427,-4768,22,-43,-19,17
78,2160,0,-430,-4768,22,-43,-19,17
79,2160,0,-429,-4767,22,-43,-19,17
80,2159,1,-427,-4767,22,-43,-19,17
81,2160,1,-427,-4768,22,-43,-19,17
82,2160,2,-429,-4767,22,-43,-19,17
83,2160,0,-429,-4765,22,-43,-19,17
84,2159,1,-429,-4764,22,-43,-19,17
85,2160,1,-428,-4763,22,-43,-19,17
86,2160,1,-427,-4762,22,-43,-19,17
87,2159,1,-426,-4761,22,-43,-19,17
88,2160,1,-426,-4762,22,-44,-19,17
89,2159,1,-426,-4763,22,-44,-19,17
90,2159,1,-424,-4763,22,-44,-19,17
91,2158,0,-423,-4762,22,-44,-19,17
92,2158,0,-423,-4763,22,-44,-19,17
93,2159,-1,-424,-4762,22,-44,-19,17
94,2157,0,-425,-4760,22,-44,-19,17
95,2157,1,-424,-4762,22,-44,-19,17
96,2158,1,-425,-4762,22,-43,-19,17
97,2158,0,-425,-4761,22,-44,-20,17
98,2158,1,-424,-4763,22,-44,-19,17
99,2158,0,-427,-4762,22,-44,-19,17
100,2158,0,-426,-4763,22,-44,-19,17
101,2159,0,-426,-4763,22,-44,-19,17
102,2159,0,-427,-4762,22,-44,-19,17
103,2159,0,-427,-4762,22,-44,-19,17
104,2158,0,-426,-4761,22,-44,-19,17
105,2158,-1,-426,-4762,22,-44,-19,17
106,2157,-2,-427,-4761,22,-44,-19,17
107,2159,-2,-426,-4761,22,-44,-20,17
108,2159,-2,-426,-4761,22,-44,-19,17
109,2159,-2,-425,-4760,22,-44,-19,17
110,2158,-3,-425,-4759,23,-44,-20,17
111,2157,-2,-424,-4761,22,-44,-20,17
112,2158,-2,-423,-4760,22,-44,-20,17
113,2157,0,-425,-4761,22,-44,-20,17
114,2157,1,-424,-4762,22,-44,-19,17
115,2158,1,-425,-4762,22,-44,-19,17
116,2159,1,-425,-4763,22,-44,-19,17
117,2160,1,-424,-4761,22,-44,-19,17
118,2160,1,-425,-4762,22,-43,-19,17
119,2161,1,-425,-4761,22,-44,-19,17
120,2160,2,-425,-4760,22,-43,-19,17
121,2160,2,-424,-4760,22,-43,-19,17
122,2160,2,-423,-4758,23,-44,-19,17
123,2161,3,-422,-4757,23,-44,-19,17
124,2160,2,-423,-4756,23,-44,-20,17
125,2160,2,-424,-4757,23,-44,-20,17
126,2160,2,-423,-4757,23,-44,-20,17
127,2161,3,-424,-4755,23,-44,-20,17
128,2160,3,-425,-4755,23,-44,-20,17
129,2160,3,-424,-4755,23,-44,-20,17
130,2159,3,-425,-4754,23,-43,-20,17
131,2159,2,-427,-4756,23,-44,-20,17
132,2161,2,-426,-4755,23,-44,-19,17
133,2160,2,-425,-4754,23,-44,-20,17
134,2159,3,-424,-4756,23,-44,-19,17
135,2158,3,-425,-4755,23,-44,-19,17
136,2159,2,-424,-4754,23,-44,-19,17
137,2159,2,-423,-4754,23,-44,-19,17
138,2160,2,-425,-4754,23,-43,-19,17
139,2160,3,-425,-4753,23,-44,-19,17
140,2160,3,-427,-4754,23,-44,-19,17
141,2160,2,-425,-4753,23,-44,-19,17
142,2158,2,-425,-4752,23,-43,-19,17
143,2159,2,-425,-4753,23,-43,-19,17
144,2159,3,-424,-4751,23,-44,-19,17
145,2159,3,-427,-4753,23,-44,-20,17
146,2159,3,-426,-4753,23,-44,-19,17
147,2159,3,-426,-4753,23,-44,-19,17
148,2160,4,-425,-4753,23,-44,-19,17
149,2160,3,-425,-4752,23,-43,-19,17
150,2161,4,-425,-4754,23,-43,-19,17
151,2161,4,-424,-4753,23,-44,-19,17
152,2161,3,-423,-4752,23,-44,-19,17
153,2161,3,-423,-4753,23,-44,-20,17
154,2160,1,-423,-4754,23,-44,-20,17
155,2161,2,-423,-4753,23,-44,-20,17
156,2160,3,-423,-4751,23,-44,-20,17
157,2161,2,-424,-4750,23,-44,-20,17
158,2160,1,-424,-4752,23,-44,-19,17
159,2159,0,-424,-4751,23,-44,-19,17
160,2159,1,-424,-4750,23,-44,-19,17
161,2159,1,-425,-4747,23,-44,-19,17
162,2159,1,-427,-4746,23,-44,-19,17
163,2158,2,-427,-4745,23,-44,-20,17
164,2158,1,-427,-4746,23,-44,-19,17
165,2157,1,-425,-4746,23,-44,-19,17
166,2158,1,-424,-4746,23,-44,-19,17
167,2158,1,-423,-4746,23,-44,-20,17
168,2158,2,-424,-4745,23,-44,-19,17
169,2158,1,-425,-4745,23,-44,-19,17
170,2158,1,-424,-4745,23,-44,-19,17
171,2159,0,-424,-4746,23,-44,-19,17
172,2160,1,-423,-4746,23,-44,-19,17
173,2159,1,-423,-4747,23,-44,-19,17
174,2159,-1,-424,-4746,23,-44,-20,17
175,2159,1,-424,-4748,23,-44,-19,17
176,2159,-1,-425,-4747,23,-44,-19,17
177,2160,0,-427,-4747,23,-44,-19,17
178,2160,1,-426,-4748,23,-44,-20,17
179,2160,0,-425,-4747,23,-44,-20,17
180,2161,1,-427,-4746,23,-44,-20,17
181,2161,1,-427,-4748,23,-44,-20,17
182,2162,-1,-425,-4750,23,-44,-19,17
183,2162,0,-425,-4749,23,-43,-19,17
184,2161,0,-426,-4750,23,-44,-19,17
185,2160,0,-429,-4749,23,-43,-19,17
186,2160,0,-429,-4747,23,-44,-19,17
187,2159,2,-427,-4745,23,-44,-19,17
188,2158,2,-427,-4745,23,-43,-19,17
189,2159,4,-427,-4744,23,-43,-19,16
190,2158,5,-427,-4743,23,-44,-19,16
191,2158,3,-426,-4742,23,-43,-19,16
192,2159,3,-427,-4743,23,-43,-19,16
193,2159,1,-427,-4744,23,-44,-19,16
194,2160,2,-426,-4745,23,-44,-19,16
195,2161,1,-426,-4745,23,-44,-19,16
196,2161,1,-427,-4745,23,-44,-19,16
197,2160,1,-426,-4745,23,-44,-20,17
198,2161,0,-425,-4744,23,-44,-19,17
199,2161,1,-423,-4743,23,-44,-19,17
200,2159,0,-423,-4744,23,-44,-19,17
201,2159,0,-422,-4744,23,-44,-19,17
202,2159,0,-423,-4743,23,-43,-19,16
203,2160,1,-423,-4743,23,-44,-19,17
204,2160,3,-424,-4744,23,-43,-19,17
205,2160,2,-424,-4741,23,-44,-19,17
206,2160,2,-424,-4742,23,-44,-19,17
207,2159,1,-423,-4742,23,-43,-20,17
208,2160,1,-422,-4744,23,-44,-20,17
209,2160,2,-422,-4746,23,-44,-20,17
210,2160,1,-421,-4746,23,-44,-19,17
211,2161,0,-423,-4744,23,-44,-19,17
212,2160,1,-422,-4744,23,-44,-19,17
213,2160,1,-423,-4745,23,-44,-19,17
214,2159,0,-422,-4743,23,-44,-19,17
215,2159,0,-421,-4744,23,-44,-19,17
216,2159,0,-421,-4744,23,-44,-19,17
217,2159,1,-422,-4743,23,-44,-19,17
218,2158,1,-422,-4744,23,-44,-19,17
219,2159,1,-423,-4743,23,-44,-19,17
220,2159,2,-425,-4741,23,-43,-19,17
221,2159,0,-426,-4741,23,-43,-19,17
222,2159,2,-425,-4741,23,-44,-19,17
223,2158,2,-424,-4739,23,-43,-19,17
224,2159,1,-426,-4739,23,-44,-19,17
225,2159,2,-426,-4739,23,-43,-19,17
226,2158,0,-426,-4741,23,-44,-19,17
227,2158,0,-426,-4740,23,-44,-19,17
228,2159,-1,-426,-4739,23,-44,-19,17
229,2159,0,-424,-4740,23,-44,-19,17
230,2160,0,-425,-4739,23,-44,-19,17
231,2160,2,-426,-4740,23,-44,-19,17
232,2159,2,-427,-4739,23,-43,-19,17
233,2159,2,-427,-4738,23,-43,-19,17
234,2159,2,-424,-4737,23,-44,-19,17
235,2159,1,-423,-4736,23,-43,-19,17
236,2160,1,-424,-4737,23,-44,-19,17
237,2160,1,-426,-4737,23,-44,-19,17
238,2160,2,-427,-4736,23,-44,-19,17
239,2160,2,-426,-4737,23,-44,-19,17
240,2160,1,-425,-4737,23,-44,-20,17
241,2160,0,-426,-4738,23,-44,-20,17
242,2161,0,-427,-4738,23,-44,-20,17
243,2161,0,-426,-4739,23,-44,-19,17
244,2161,2,-426,-4741,23,-44,-19,17
245,2160,2,-425,-4740,23,-44,-19,17
246,2160,2,-426,-4739,23,-44,-19,17
247,2160,2,-425,-4738,23,-44,-19,17
248,2161,2,-424,-4736,23,-44,-19,17
249,2160,1,-423,-4737,23,-44,-19,17
250,2159,1,-424,-4738,23,-44,-19,17
251,2159,1,-425,-4738,23,-44,-19,17
252,2159,0,-424,-4738,23,-44,-19,17
253,2159,2,-424,-4737,23,-44,-19,17
254,2159,2,-425,-4738,23,-44,-19,17
255,2159,2,-427,-4737,23,-44,-19,17
256,2159,2,-428,-4738,23,-44,-19,16
257,2159,2,-428,-4739,23,-44,-19,16
258,2160,2,-428,-4739,23,-44,-19,16
259,2160,2,-427,-4738,23,-44,-19,17
260,2159,1,-427,-4738,23,-44,-19,17
261,2159,2,-427,-4739,23,-44,-19,16
262,2160,1,-425,-4738,23,-44,-19,17
263,2159,0,-425,-4737,23,-44,-19,16
264,2159,1,-425,-4737,23,-44,-19,17
265,2159,2,-424,-4736,23,-44,-19,17
266,2160,3,-424,-4736,23,-44,-19,17
267,2160,4,-425,-4735,23,-44,-19,17
268,2160,3,-423,-4734,23,-44,-19,17
269,2161,2,-424,-4734,23,-44,-19,17
270,2159,3,-425,-4736,23,-44,-19,17
271,2159,3,-425,-4737,23,-44,-19,17
272,2159,2,-425,-4737,23,-44,-19,17
273,2159,1,-426,-4737,23,-44,-20,17
274,2159,1,-425,-4739,23,-44,-20,17
275,2158,1,-424,-4739,23,-44,-20,17
276,2159,1,-426,-4740,23,-44,-20,17
277,2161,2,-425,-4737,23,-44,-20,17
278,2159,1,-424,-4736,23,-44,-20,17
279,2159,-1,-425,-4737,23,-44,-20,17
280,2160,-1,-425,-4738,23,-44,-20,17
281,2160,-1,-424,-4737,23,-44,-20,17
282,2159,0,-423,-4736,23,-44,-20,17
283,2159,-1,-424,-4735,23,-43,-19,17
284,2159,1,-425,-4736,23,-43,-19,17
285,2160,1,-426,-4736,23,-44,-19,17
286,2159,1,-424,-4734,23,-44,-19,17
287,2159,1,-423,-4736,23,-44,-19,17
288,2158,0,-423,-4736,23,-44,-19,17
289,2157,0,-423,-4735,23,-44,-19,17
290,2156,0,-423,-4732,23,-43,-20,17
291,2156,-1,-424,-4732,23,-43,-20,17
292,2157,-1,-426,-4734,23,-44,-20,17
293,2157,0,-426,-4733,23,-44,-20,17
294,2158,0,-426,-4734,23,-44,-20,17
295,2157,0,-427,-4735,23,-44,-20,17
296,2158,0,-426,-4735,23,-44,-19,17
297,2157,0,-426,-4734,23,-44,-20,17
298,2158,0,-427,-4733,23,-44,-19,17
299,2159,0,-426,-4733,23,-43,-19,17
300,2159,2,-425,-4732,23,-43,-19,17
301,2159,0,-424,-4732,23,-44,-19,17
302,2159,0,-425,-4730,23,-44,-19,17
303,2160,0,-424,-4729,23,-43,-20,17
304,2161,0,-425,-4730,23,-44,-19,17
305,2160,0,-424,-4730,23,-44,-19,17
306,2158,0,-426,-4730,23,-44,-19,16
307,2158,0,-425,-4733,23,-44,-19,17
308,2158,-1,-424,-4732,23,-44,-19,17
309,2158,0,-423,-4733,23,-44,-19,17
310,2158,0,-424,-4732,23,-44,-19,17
311,2158,0,-425,-4732,23,-44,-19,17
312,2158,0,-426,-4731,23,-44,-19,17
313,2159,0,-425,-4730,23,-44,-19,17
314,2159,1,-425,-4731,23,-44,-19,17
315,2159,0,-426,-4730,23,-44,-19,17
316,2157,0,-427,-4730,23,-44,-19,17
317,2159,1,-428,-4729,23,-43,-19,17
318,2159,1,-426,-4730,23,-44,-19,17
319,2159,1,-426,-4730,23,-44,-19,17
320,2158,1,-427,-4729,23,-44,-19,17
321,2158,1,-428,-4729,23,-44,-19,17
322,2159,2,-428,-4730,23,-44,-19,17
323,2158,2,-428,-4729,23,-44,-19,17
324,2158,3,-427,-4726,23,-44,-19,17
325,2159,2,-426,-4726,23,-44,-19,17
326,2158,2,-425,-4727,23,-44,-19,17
327,2158,1,-425,-4729,23,-44,-19,17
328,2158,1,-424,-4729,23,-44,-19,17
329,2158,0,-424,-4730,23,-44,-19,17
330,2158,0,-425,-4731,23,-44,-19,17
331,2158,-1,-427,-4732,23,-44,-19,17
332,2158,-1,-427,-4732,23,-44,-19,17
333,2159,-2,-426,-4731,23,-44,-19,17
334,2159,-1,-426,-4732,23,-44,-19,17
335,2158,-1,-427,-4732,23,-43,-19,17
336,2157,-1,-426,-4731,23,-43,-19,17
337,2158,-2,-425,-4730,23,-44,-19,17
338,2157,-1,-424,-4730,23,-44,-19,17
339,2159,-1,-424,-4730,23,-44,-19,17
340,2159,0,-426,-4730,23,-44,-19,17
341,2159,0,-426,-4728,23,-44,-19,17
342,2160,0,-426,-4728,23,-44,-19,17
343,2159,1,-425,-4729,23,-44,-19,17
344,2158,1,-425,-4728,23,-44,-19,17
345,2157,1,-425,-4728,23,-44,-19,17
346,2158,1,-424,-4729,23,-44,-19,17
347,2158,2,-425,-4728,23,-44,-19,17
348,2157,2,-425,-4728,23,-44,-19,17
349,2158,2,-425,-4728,23,-44,-19,17
350,2157,1,-425,-4728,23,-44,-19,17
351,2157,2,-425,-4729,23,-43,-19,17
352,2157,2,-424,-4729,23,-43,-19,17
353,2158,0,-424,-4729,23,-43,-19,17
354,2158,1,-423,-4730,23,-44,-19,17
355,2159,1,-423,-4730,23,-44,-19,17
356,2159,1,-423,-4730,23,-44,-19,17
357,2160,0,-425,-4730,23,-44,-19,17
358,2159,-1,-423,-4731,23,-44,-19,17
359,2159,-1,-424,-4731,23,-44,-19,16
360,2160,0,-424,-4730,23,-44,-19,16
361,2159,-1,-425,-4730,23,-44,-19,16
362,2159,0,-425,-4731,23,-44,-19,16
363,2159,-1,-424,-4731,23,-44,-19,17
364,2159,-1,-424,-4731,23,-44,-19,17
365,2159,0,-423,-4731,23,-43,-19,16
366,2159,0,-421,-4728,23,-44,-19,17
367,2159,-1,-421,-4726,23,-43,-19,17
368,2159,0,-421,-4726,23,-43,-18,17
369,2159,0,-424,-4727,23,-44,-19,17
370,2160,0,-425,-4726,23,-44,-19,17
371,2160,0,-424,-4728,23,-44,-19,17
372,2160,1,-424,-4729,23,-44,-19,17
373,2160,0,-424,-4728,23,-44,-19,17
374,2159,0,-424,-4728,23,-43,-19,17
375,2158,-1,-426,-4727,23,-43,-19,17
376,2159,-1,-427,-4728,23,-43,-19,17
377,2161,-1,-427,-4728,23,-43,-19,17
378,2161,0,-425,-4727,23,-44,-19,17
379,2162,0,-424,-4727,23,-43,-19,17
380,2161,1,-426,-4728,23,-44,-19,17
381,2162,1,-427,-4727,23,-44,-19,17
382,2162,0,-428,-4725,23,-44,-19,16
383,2162,2,-427,-4726,23,-44,-19,16
384,2162,1,-428,-4726,23,-44,-19,16
385,2163,0,-426,-4725,23,-44,-19,16
386,2161,0,-426,-4725,23,-44,-19,16
387,2160,0,-424,-4725,23,-44,-19,17
388,2161,0,-427,-4724,23,-44,-19,17
389,2162,-1,-425,-4724,23,-44,-19,17
390,2162,0,-427,-4724,23,-44,-19,17
391,2161,1,-426,-4726,23,-44,-19,17
392,2160,2,-424,-4726,23,-44,-19,17
393,2161,2,-424,-4724,23,-44,-19,17
394,2160,2,-423,-4723,23,-44,-19,17
395,2160,1,-424,-4722,23,-43,-19,17
396,2159,1,-424,-4721,23,-44,-19,17
397,2159,2,-425,-4722,23,-44,-19,17
398,2159,2,-425,-4723,23,-44,-19,17
399,2158,3,-424,-4726,23,-44,-19,17
400,2160,2,-425,-4727,23,-44,-19,17
401,2159,2,-426,-4726,23,-44,-19,17
402,2159,0,-425,-4728,23,-44,-19,17
403,2159,2,-427,-4727,23,-44,-19,17
404,2158,2,-424,-4725,23,-44,-19,17
405,2158,2,-424,-4724,23,-44,-19,17
406,2159,0,-423,-4722,23,-44,-19,17
407,2159,0,-424,-4722,23,-44,-19,17
408,2159,0,-423,-4721,23,-44,-19,17
409,2160,-1,-423,-4723,23,-44,-19,17
410,2161,-1,-424,-4723,23,-44,-19,17
411,2162,0,-422,-4722,23,-44,-19,17
412,2161,-1,-424,-4726,23,-44,-19,17
413,2160,0,-423,-4725,23,-44,-19,17
414,2160,0,-422,-4725,23,-44,-19,17
415,2159,0,-422,-4724,23,-44,-19,17
416,2159,-1,-423,-4724,23,-44,-19,17
417,2159,-1,-422,-4724,23,-44,-19,17
418,2159,0,-423,-4722,23,-44,-19,17
419,2159,0,-423,-4723,23,-44,-19,17
420,2160,-1,-421,-4721,23,-44,-20,17
421,2159,0,-422,-4720,23,-44,-19,17
422,2160,2,-422,-4719,23,-44,-19,17
423,2158,1,-424,-4722,23,-44,-19,17
424,2158,1,-423,-4723,23,-44,-19,17
425,2159,1,-425,-4723,23,-44,-19,17
426,2158,1,-425,-4723,23,-44,-19,17
427,2159,0,-424,-4723,23,-44,-19,17
428,2160,-1,-426,-4723,23,-44,-19,17
429,2159,0,-427,-4723,23,-43,-19,17
430,2160,0,-427,-4724,23,-44,-19,17
431,2161,0,-427,-4724,23,-44,-19,17
432,2160,1,-427,-4724,23,-44,-19,17
433,2159,1,-427,-4724,23,-44,-19,17
434,2158,1,-427,-4723,23,-44,-19,17
435,2156,1,-425,-4724,23,-44,-19,17
436,2157,0,-426,-4724,23,-44,-20,17
437,2157,1,-426,-4722,23,-44,-19,17
438,2159,1,-424,-4722,23,-44,-20,17
439,2159,1,-425,-4722,23,-44,-20,17
440,2158,1,-426,-4722,23,-44,-20,17
441,2159,2,-426,-4721,23,-44,-20,17
442,2159,2,-426,-4722,23,-44,-19,17
443,2159,2,-425,-4723,23,-44,-19,17
444,2160,1,-425,-4722,23,-44,-19,17
445,2159,0,-425,-4722,23,-44,-19,17
446,2160,1,-424,-4720,23,-44,-19,17
447,2159,0,-423,-4720,23,-43,-19,17
448,2159,-1,-423,-4721,23,-43,-19,17
449,2159,0,-423,-4722,23,-43,-19,17
450,2159,1,-422,-4722,23,-43,-19,17
451,2159,1,-425,-4723,23,-43,-19,17
452,2159,0,-425,-4723,23,-43,-19,17
453,2159,0,-424,-4722,23,-43,-18,17
454,2159,1,-424,-4722,23,-43,-19,17
455,2160,1,-423,-4723,23,-43,-18,17
456,2161,3,-424,-4723,23,-43,-18,17
457,2160,3,-425,-4723,23,-43,-19,17
458,2160,3,-427,-4723,23,-43,-19,17
459,2159,3,-428,-4722,23,-43,-19,17
460,2159,3,-428,-4722,23,-43,-19,17
461,2159,3,-425,-4721,23,-44,-19,17
462,2159,3,-424,-4723,23,-44,-19,17
463,2160,3,-423,-4722,23,-44,-19,17
464,2159,3,-424,-4721,23,-43,-19,17
465,2158,3,-422,-4720,23,-44,-19,17
466,2159,1,-422,-4720,23,-44,-19,17
467,2159,0,-421,-4718,23,-44,-19,17
468,2159,1,-421,-4719,23,-44,-19,17
469,2161,2,-421,-4718,23,-44,-20,17
470,2161,1,-420,-4719,23,-44,-19,17
471,2160,1,-420,-4719,23,-44,-20,17
472,2159,1,-421,-4718,23,-44,-20,17
473,2159,-1,-421,-4718,23,-44,-19,17
474,2159,0,-424,-4719,23,-44,-20,17
475,2159,0,-425,-4719,23,-44,-19,17
476,2159,0,-424,-4719,23,-44,-19,17
477,2160,0,-424,-4719,23,-44,-19,17
478,2160,-1,-426,-4717,23,-44,-19,17
479,2160,0,-426,-4716,23,-44,-19,17
480,2160,0,-427,-4718,23,-44,-19,17
481,2160,0,-426,-4717,23,-44,-20,17
482,2159,0,-426,-4717,23,-44,-19,17
483,2158,0,-425,-4719,23,-44,-19,17
484,2157,0,-425,-4719,23,-44,-20,17
485,2158,0,-424,-4720,23,-44,-20,17
486,2158,1,-425,-4718,23,-44,-20,17
487,2159,2,-426,-4718,23,-44,-19,17
488,2159,1,-425,-4715,23,-44,-19,17
489,2160,2,-424,-4715,23,-44,-19,17
490,2159,0,-424,-4716,23,-44,-19,17
491,2159,0,-421,-4717,23,-44,-19,17
492,2159,0,-422,-4718,23,-44,-19,17
493,2159,1,-423,-4716,23,-44,-19,17
494,2160,0,-425,-4717,23,-44,-19,17
495,2161,1,-424,-4718,23,-44,-19,17
496,2160,0,-423,-4715,23,-44,-19,17
497,2159,0,-423,-4715,23,-44,-19,17
498,2160,1,-422,-4716,23,-44,-19,17
499,2159,2,-423,-4715,23,-44,-19,17
500,2160,1,-424,-4715,23,-44,-19,17
501,2160,2,-422,-4714,23,-44,-19,17
502,2159,2,-421,-4714,23,-44,-19,17
503,2160,3,-420,-4712,23,-44,-19,17
504,2160,2,-420,-4712,23,-44,-19,17
505,2159,3,-421,-4713,23,-44,-19,17
506,2159,2,-423,-4710,23,-44,-19,17
507,2160,2,-423,-4711,23,-44,-19,17
508,2159,3,-424,-4711,23,-44,-19,17
509,2159,2,-424,-4711,23,-44,-19,17
510,2158,2,-423,-4709,23,-44,-19,17
511,2158,1,-423,-4710,23,-44,-19,17
512,2158,1,-425,-4712,23,-44,-19,17
513,2158,1,-423,-4712,23,-44,-19,17
514,2157,1,-425,-4714,23,-44,-19,17
515,2158,1,-424,-4713,23,-44,-19,17
516,2159,1,-425,-4713,23,-43,-19,17
517,2158,-1,-424,-4713,23,-44,-19,17
518,2158,-1,-423,-4713,23,-44,-19,17
519,2158,-1,-425,-4714,23,-44,-20,17
520,2157,-1,-427,-4712,23,-44,-20,17
521,2157,0,-426,-4714,23,-44,-20,17
522,2157,0,-425,-4714,23,-44,-20,17
523,2157,0,-426,-4712,23,-43,-19,17
524,2157,0,-424,-4713,23,-43,-20,17
525,2158,2,-426,-4713,23,-43,-20,17
526,2159,2,-426,-4715,23,-43,-19,17
527,2159,1,-428,-4715,23,-43,-19,17
528,2158,1,-428,-4715,23,-43,-19,17
529,2158,2,-427,-4713,23,-43,-19,17
530,2157,2,-427,-4713,23,-43,-19,17
531,2158,2,-425,-4712,23,-43,-19,17
532,2158,2,-426,-4713,23,-43,-19,17
533,2159,0,-427,-4714,23,-43,-19,17
534,2159,1,-427,-4713,23,-44,-19,17
535,2158,0,-427,-4713,23,-44,-19,17
536,2158,0,-427,-4715,23,-44,-19,17
537,2157,1,-426,-4715,23,-44,-19,17
538,2157,2,-427,-4715,23,-44,-19,17
539,2158,1,-427,-4715,23,-44,-19,17
540,2159,2,-424,-4714,23,-44,-19,17
541,2161,3,-425,-4713,23,-44,-19,17
542,2161,3,-424,-4714,23,-44,-20,17
543,2159,3,-426,-4713,23,-44,-20,17
544,2160,3,-426,-4713,23,-44,-19,18
545,2160,3,-425,-4712,23,-44,-20,17
546,2160,2,-425,-4711,23,-44,-20,17
547,2159,2,-425,-4712,23,-44,-19,17
548,2160,1,-425,-4712,23,-44,-19,18
549,2161,1,-424,-4711,23,-44,-19,17
550,2161,0,-423,-4714,23,-43,-19,17
551,2161,-1,-423,-4713,23,-44,-19,17
552,2160,0,-422,-4712,23,-44,-19,17
553,2159,0,-422,-4711,23,-44,-19,17
554,2159,2,-423,-4710,23,-44,-20,17
555,2158,1,-423,-4712,23,-44,-20,17
556,2157,2,-425,-4713,23,-44,-19,17
557,2158,3,-426,-4714,23,-44,-19,17
558,2157,2,-425,-4713,23,-44,-19,17
559,2157,2,-427,-4713,23,-44,-19,17
560,2157,1,-426,-4713,23,-44,-19,17
561,2157,1,-426,-4713,23,-44,-19,17
562,2158,-1,-426,-4714,23,-44,-19,17
563,2159,0,-427,-4715,23,-44,-19,17
564,2160,0,-426,-4714,23,-44,-19,17
565,2160,0,-427,-4716,23,-44,-19,17
566,2159,1,-427,-4715,23,-44,-19,17
567,2158,1,-426,-4714,23,-44,-19,17
568,2158,1,-426,-4715,23,-44,-19,17
569,2159,0,-426,-4713,23,-44,-19,17
570,2159,0,-426,-4714,23,-44,-19,17
571,2159,1,-427,-4713,23,-44,-19,17
572,2159,0,-424,-4713,23,-44,-19,17
573,2159,1,-424,-4713,23,-44,-19,17
574,2158,1,-426,-4712,23,-44,-19,17
575,2159,1,-425,-4711,23,-43,-19,17
576,2159,1,-426,-4711,23,-43,-20,17
577,2159,0,-429,-4713,23,-43,-19,17
578,2159,-1,-427,-4714,23,-44,-19,17
579,2159,0,-427,-4712,23,-44,-20,17
580,2160,0,-427,-4712,23,-44,-19,17
581,2159,0,-427,-4713,23,-43,-19,17
582,2159,0,-427,-4712,23,-44,-19,17
583,2159,1,-426,-4711,23,-44,-19,17
584,2160,0,-425,-4711,23,-44,-19,17
585,2160,0,-427,-4711,23,-44,-19,17
586,2159,0,-426,-4711,23,-44,-19,17
587,2160,1,-428,-4710,23,-44,-19,17
588,2159,1,-429,-4710,23,-44,-19,17
589,2160,1,-427,-4710,23,-44,-19,17
590,2160,0,-427,-4711,23,-43,-20,17
591,2160,0,-425,-4711,23,-44,-19,17
592,2159,0,-425,-4711,23,-44,-19,17
593,2158,1,-425,-4710,23,-44,-19,17
594,2159,3,-425,-4710,23,-44,-19,17
595,2159,3,-426,-4710,23,-44,-19,17
596,2159,2,-425,-4711,23,-44,-19,17
597,2159,2,-426,-4713,23,-44,-19,17
598,2159,1,-425,-4711,23,-43,-19,17
599,2159,0,-424,-4711,23,-44,-19,17
600,2159,0,-426,-4711,23,-44,-19,17
601,2159,1,-427,-4710,23,-44,-19,17
602,2159,1,-425,-4709,23,-44,-19,17
603,2159,0,-425,-4710,23,-44,-19,17
604,2159,1,-425,-4711,23,-44,-19,17
605,2159,2,-425,-4710,23,-44,-19,17
606,2160,2,-427,-4711,23,-44,-19,17
607,2159,2,-427,-4712,23,-44,-19,17
608,2160,2,-426,-4712,23,-44,-19,17
609,2159,2,-425,-4712,23,-44,-19,17
610,2158,2,-425,-4711,23,-44,-19,17
611,2159,1,-424,-4712,23,-44,-19,17
612,2160,1,-424,-4712,23,-44,-19,17
613,2159,1,-424,-4712,23,-44,-19,17
614,2160,2,-425,-4713,23,-44,-19,17
615,2160,1,-424,-4712,23,-44,-19,17
616,2160,1,-424,-4713,23,-44,-20,17
617,2159,2,-422,-4712,23,-44,-20,17
618,2160,0,-422,-4712,23,-44,-20,17
619,2159,1,-422,-4713,23,-44,-19,17
620,2159,1,-424,-4714,23,-44,-19,17
621,2159,1,-425,-4714,23,-44,-19,17
622,2159,1,-425,-4712,23,-44,-19,17
623,2160,1,-425,-4711,23,-44,-19,17
624,2159,2,-424,-4710,23,-44,-19,17
625,2159,2,-423,-4709,23,-44,-19,17
626,2159,2,-424,-4708,23,-44,-19,17
627,2160,2,-425,-4707,23,-44,-19,17
628,2160,2,-425,-4707,23,-44,-19,16
629,2160,1,-424,-4705,23,-44,-19,16
630,2160,2,-423,-4705,23,-44,-19,17
631,2160,2,-424,-4706,23,-44,-19,17
632,2159,3,-424,-4705,23,-44,-19,17
633,2158,2,-426,-4704,23,-44,-19,17
634,2159,2,-425,-4704,23,-44,-19,17
635,2160,2,-426,-4705,23,-44,-19,17
636,2160,2,-425,-4705,23,-44,-20,17
637,2161,1,-427,-4705,23,-44,-19,17
638,2161,1,-427,-4705,23,-44,-19,17
639,2159,1,-427,-4707,23,-44,-19,17
640,2159,1,-426,-4708,23,-44,-19,17
641,2158,0,-427,-4708,23,-44,-19,17
642,2158,0,-426,-4707,23,-44,-19,17
643,2159,0,-426,-4708,23,-44,-19,17
644,2159,0,-427,-4706,23,-44,-19,17
645,2159,1,-428,-4708,23,-44,-19,17
646,2159,0,-428,-4707,23,-44,-19,17
647,2159,0,-427,-4707,23,-44,-19,17
648,2160,0,-426,-4710,23,-44,-19,17
649,2159,0,-424,-4710,23,-44,-19,17
650,2160,-1,-425,-4707,23,-44,-19,17
651,2160,0,-425,-4705,23,-44,-19,17
652,2159,2,-426,-4706,23,-44,-19,17
653,2160,0,-426,-4708,23,-44,-20,17
654,2158,1,-424,-4708,23,-44,-19,17
655,2158,3,-422,-4709,23,-44,-19,17
656,2158,2,-423,-4710,23,-44,-19,16
657,2159,2,-425,-4708,23,-44,-19,17
658,2159,1,-425,-4707,23,-44,-19,17
659,2160,2,-426,-4709,23,-44,-19,17
660,2159,1,-426,-4707,23,-44,-19,17
661,2158,1,-425,-4706,23,-44,-19,17
662,2158,2,-425,-4706,23,-44,-19,17
663,2158,1,-425,-4706,23,-44,-19,17
664,2158,2,-426,-4705,23,-44,-19,17
665,2160,2,-426,-4705,23,-44,-19,17
666,2160,1,-425,-4706,23,-44,-19,17
667,2159,2,-425,-4705,23,-44,-20,17
668,2159,3,-427,-4706,23,-44,-19,17
669,2159,0,-426,-4706,23,-44,-19,17
670,2159,1,-425,-4705,23,-44,-19,17
671,2160,-1,-426,-4706,23,-43,-19,17
672,2159,0,-426,-4706,23,-43,-19,17
673,2159,2,-425,-4704,23,-43,-19,17
674,2159,0,-425,-4704,23,-43,-19,17
675,2159,1,-425,-4704,23,-43,-19,17
676,2159,0,-426,-4705,23,-44,-19,17
677,2159,0,-425,-4705,23,-43,-19,17
678,2159,0,-424,-4705,23,-43,-19,17
679,2160,0,-424,-4707,23,-43,-19,17
680,2160,2,-426,-4706,23,-44,-19,17
681,2159,2,-425,-4707,23,-44,-19,17
682,2159,1,-426,-4707,23,-44,-19,17
683,2160,1,-426,-4704,23,-44,-19,17
684,2159,0,-427,-4704,23,-44,-19,17
685,2160,0,-427,-4704,23,-44,-19,17
686,2160,1,-427,-4704,23,-44,-19,17
687,2160,1,-425,-4703,23,-44,-19,17
688,2161,1,-423,-4702,23,-44,-20,17
689,2161,1,-423,-4702,23,-44,-19,17
690,2160,1,-424,-4703,23,-44,-19,17
691,2159,2,-424,-4705,23,-44,-19,17
692,2160,2,-424,-4706,23,-44,-19,17
693,2160,2,-425,-4706,23,-44,-19,17
694,2159,2,-425,-4704,23,-44,-19,17
695,2159,2,-425,-4704,23,-44,-19,17
696,2158,1,-425,-4703,23,-44,-19,17
697,2158,0,-423,-4703,23,-44,-19,17
698,2159,-1,-424,-4705,23,-44,-19,17
699,2159,0,-424,-4705,23,-44,-19,17
700,2158,0,-424,-4706,23,-44,-19,17
701,2158,0,-425,-4705,23,-44,-19,17
702,2158,0,-425,-4706,23,-44,-19,17
703,2158,0,-424,-4705,23,-44,-19,17
704,2158,0,-425,-4704,23,-44,-19,17
705,2157,0,-425,-4702,23,-44,-19,17
706,2159,0,-427,-4705,23,-44,-20,17
707,2159,1,-426,-4705,23,-44,-20,17
708,2157,1,-425,-4706,23,-44,-19,17
709,2157,1,-426,-4705,23,-44,-19,17
710,2158,1,-425,-4705,23,-44,-19,17
711,2158,1,-426,-4704,23,-43,-19,17
712,2159,2,-426,-4705,23,-43,-19,17
713,2160,3,-426,-4706,23,-44,-20,17
714,2160,3,-426,-4705,23,-44,-19,17
715,2161,4,-426,-4707,23,-44,-19,17
716,2160,2,-426,-4707,23,-44,-19,17
717,2160,1,-427,-4706,23,-44,-20,17
718,2159,1,-428,-4703,23,-44,-19,17
719,2161,0,-429,-4703,23,-44,-19,17
720,2161,0,-428,-4704,23,-44,-19,17
721,2161,-1,-428,-4706,23,-44,-19,17
722,2159,-1,-429,-4705,23,-44,-19,17
723,2159,0,-427,-4705,23,-44,-19,17
724,2159,1,-427,-4706,23,-44,-19,17
725,2159,1,-425,-4705,23,-44,-19,17
726,2159,1,-426,-4705,23,-44,-19,17
727,2159,2,-425,-4704,23,-44,-19,17
728,2158,1,-425,-4704,23,-44,-19,17
729,2159,2,-425,-4703,23,-44,-19,17
730,2160,2,-424,-4704,23,-44,-19,17
731,2160,2,-426,-4704,23,-44,-19,17
732,2161,2,-427,-4702,23,-44,-19,17
733,2161,2,-426,-4703,23,-44,-19,17
734,2161,1,-426,-4702,23,-44,-19,17
735,2161,1,-426,-4702,23,-44,-19,17
736,2160,0,-425,-4701,23,-44,-19,17
737,2161,-1,-423,-4702,23,-44,-19,17
738,2160,0,-425,-4704,23,-44,-19,17
739,2160,0,-426,-4705,23,-43,-19,17
740,2160,0,-424,-4706,23,-44,-19,17
741,2160,1,-425,-4706,23,-44,-19,17
742,2159,1,-424,-4706,23,-44,-19,17
743,2159,1,-425,-4705,23,-44,-19,17
744,2160,1,-424,-4704,23,-44,-19,17
745,2160,0,-425,-4702,23,-44,-19,17
746,2159,0,-424,-4701,23,-44,-19,17
747,2158,-1,-425,-4701,23,-44,-19,17
748,2158,0,-424,-4701,23,-44,-19,17
749,2159,0,-424,-4702,23,-44,-19,17
750,2159,0,-424,-4702,23,-44,-19,17
751,2157,0,-424,-4702,23,-44,-19,17
752,2156,2,-422,-4702,23,-44,-19,17
753,2157,1,-422,-4701,23,-44,-19,17
754,2157,2,-424,-4702,23,-44,-20,17
755,2158,3,-423,-4704,23,-44,-19,17
756,2158,4,-423,-4702,23,-44,-19,17
757,2158,1,-425,-4702,23,-44,-19,17
758,2159,1,-423,-4701,23,-44,-19,17
759,2159,2,-424,-4700,23,-44,-19,17
760,2158,2,-424,-4700,23,-44,-19,17
761,2158,3,-424,-4699,23,-44,-19,17
762,2158,2,-425,-4698,23,-44,-19,17
763,2158,1,-425,-4698,23,-44,-19,17
764,2158,1,-424,-4696,23,-44,-19,17
765,2159,2,-423,-4696,23,-44,-19,17
766,2159,2,-424,-4698,23,-44,-19,17
767,2158,2,-425,-4700,23,-44,-19,17
768,2159,1,-424,-4700,23,-44,-19,17
769,2159,2,-425,-4699,23,-44,-19,17
770,2159,2,-425,-4698,23,-44,-19,17
771,2158,2,-424,-4697,23,-44,-19,17
772,2157,3,-424,-4698,23,-44,-19,17
773,2155,1,-424,-4700,23,-44,-19,17
774,2156,2,-424,-4701,23,-44,-19,17
775,2157,2,-425,-4700,23,-44,-19,17
776,2158,1,-423,-4700,23,-44,-19,17
777,2157,2,-422,-4700,23,-44,-20,17
778,2157,1,-423,-4701,23,-43,-20,17
779,2158,2,-424,-4701,23,-44,-20,17
780,2159,1,-424,-4700,23,-43,-20,17
781,2159,1,-426,-4701,23,-44,-20,17
782,2159,1,-426,-4698,23,-44,-19,17
783,2159,1,-426,-4698,23,-44,-19,17
784,2159,2,-425,-4699,23,-43,-19,17
785,2159,2,-424,-4701,23,-43,-20,17
786,2160,2,-423,-4702,23,-43,-19,17
787,2160,1,-424,-4703,23,-44,-19,17
788,2160,1,-425,-4702,23,-44,-19,17
789,2158,2,-427,-4703,23,-44,-19,17
790,2159,2,-427,-4701,23,-44,-19,17
791,2159,2,-426,-4702,23,-44,-19,17
792,2158,3,-425,-4700,23,-44,-19,17
793,2158,4,-425,-4697,23,-44,-19,17
794,2159,4,-425,-4699,23,-44,-19,17
795,2159,3,-426,-4698,23,-43,-19,17
796,2159,2,-427,-4698,23,-43,-19,17
797,2158,1,-427,-4699,23,-44,-19,16
798,2157,2,-427,-4699,23,-44,-19,16
799,2157,2,-425,-4696,23,-43,-19,17
800,2157,2,-426,-4696,23,-43,-19,17
801,2157,3,-427,-4697,23,-43,-19,17
802,2157,3,-427,-4698,23,-44,-19,17
803,2157,2,-427,-4698,23,-44,-19,17
804,2157,4,-426,-4697,23,-44,-19,16
805,2157,2,-424,-4696,23,-44,-19,16
806,2157,2,-425,-4697,23,-44,-19,17
807,2158,2,-424,-4695,23,-44,-19,17
808,2158,1,-424,-4696,23,-44,-19,16
809,2159,1,-423,-4697,23,-43,-19,17
810,2159,0,-424,-4698,23,-43,-19,17
811,2158,-1,-424,-4697,23,-43,-19,17
812,2156,-1,-423,-4699,23,-43,-19,17
813,2157,-1,-425,-4698,23,-43,-19,17
814,2159,0,-426,-4700,23,-43,-19,17
815,2158,-1,-426,-4699,23,-43,-19,17
816,2158,0,-426,-4700,23,-43,-19,17
817,2158,0,-426,-4699,23,-43,-19,17
818,2158,1,-426,-4698,23,-43,-19,17
819,2158,1,-426,-4699,23,-43,-19,17
820,2158,2,-423,-4698,23,-44,-19,17
821,2157,2,-425,-4697,23,-44,-19,17
822,2158,2,-423,-4696,23,-44,-19,17
823,2158,2,-423,-4696,23,-43,-19,17
824,2158,1,-423,-4696,23,-44,-19,17
825,2158,1,-422,-4697,23,-43,-19,17
826,2159,1,-423,-4699,23,-43,-19,17
827,2159,1,-425,-4700,23,-43,-19,17
828,2158,1,-425,-4700,23,-43,-19,17
829,2158,1,-425,-4699,23,-43,-19,17
830,2158,2,-423,-4699,23,-43,-19,16
831,2159,1,-423,-4699,23,-44,-19,17
832,2159,2,-420,-4700,23,-43,-19,17
833,2160,1,-423,-4700,23,-43,-19,17
834,2160,1,-423,-4700,23,-43,-19,16
835,2160,1,-425,-4699,23,-43,-19,17
836,2160,1,-426,-4699,23,-43,-19,17
837,2160,1,-425,-4699,23,-44,-19,17
838,2160,1,-426,-4700,23,-44,-19,17
839,2161,1,-427,-4699,23,-44,-19,17
840,2159,2,-426,-4700,23,-44,-19,17
841,2158,2,-426,-4701,23,-44,-19,17
842,2159,2,-426,-4700,23,-44,-19,17
843,2159,3,-426,-4700,23,-44,-19,17
844,2158,1,-428,-4699,23,-44,-19,17
845,2158,1,-428,-4698,23,-44,-19,17
846,2158,1,-428,-4700,23,-44,-19,17
847,2158,2,-428,-4700,23,-44,-20,17
848,2158,2,-429,-4698,23,-44,-20,17
849,2158,1,-428,-4698,23,-44,-20,17
850,2159,0,-428,-4698,23,-44,-20,17
851,2160,1,-427,-4699,23,-44,-20,17
852,2160,0,-427,-4699,23,-44,-20,17
853,2159,0,-426,-4697,23,-44,-20,17
854,2161,1,-425,-4697,23,-44,-20,17
855,2160,-1,-426,-4694,23,-44,-19,17
856,2160,0,-424,-4693,23,-44,-19,17
857,2160,-1,-424,-4693,23,-44,-19,17
858,2160,0,-425,-4693,23,-44,-19,17
859,2160,1,-425,-4695,23,-43,-20,17
860,2160,0,-426,-4695,23,-44,-19,16
861,2160,1,-426,-4694,23,-44,-19,16
862,2160,0,-424,-4695,23,-44,-19,16
863,2161,-1,-424,-4697,23,-44,-19,16
864,2160,0,-424,-4698,23,-44,-19,17
865,2159,1,-426,-4697,23,-44,-19,17
866,2159,0,-427,-4697,23,-44,-20,17
867,2158,1,-424,-4696,23,-44,-20,17
868,2159,0,-425,-4696,23,-43,-20,17
869,2159,0,-424,-4695,23,-43,-19,17
870,2158,1,-424,-4696,23,-43,-19,17
871,2158,1,-424,-4697,23,-43,-19,17
872,2158,2,-424,-4697,23,-44,-19,17
873,2159,1,-424,-4696,23,-44,-19,17
874,2158,0,-425,-4697,23,-43,-19,17
875,2158,1,-426,-4697,23,-44,-19,17
876,2157,0,-424,-4697,23,-44,-19,17
877,2158,1,-424,-4696,23,-44,-19,17
878,2158,1,-425,-4696,23,-44,-19,17
879,2158,1,-426,-4696,23,-44,-19,17
880,2159,1,-426,-4696,23,-44,-19,16
881,2159,-1,-427,-4695,23,-44,-19,16
882,2158,0,-427,-4695,23,-44,-19,16
883,2158,0,-427,-4695,23,-43,-19,16
884,2159,1,-427,-4695,23,-44,-19,17
885,2160,1,-426,-4696,23,-44,-19,17
886,2159,1,-427,-4695,23,-44,-19,17
887,2159,1,-427,-4694,23,-44,-19,17
888,2158,1,-424,-4695,23,-44,-19,17
889,2158,1,-423,-4696,23,-44,-19,16
890,2158,3,-423,-4696,23,-44,-19,17
891,2158,3,-423,-4696,23,-44,-20,17
892,2159,3,-423,-4698,23,-44,-20,17
893,2160,2,-422,-4697,23,-44,-19,17
894,2160,2,-422,-4696,23,-44,-19,16
895,2159,2,-422,-4696,23,-44,-19,17
896,2159,3,-423,-4697,23,-44,-19,17
897,2158,2,-424,-4694,23,-44,-19,17
898,2159,2,-425,-4696,23,-44,-19,17
899,2158,2,-425,-4696,23,-44,-19,17
900,2159,2,-425,-4696,23,-44,-19,17
901,2159,1,-427,-4696,23,-44,-19,17
902,2160,2,-426,-4697,23,-44,-19,17
903,2159,1,-425,-4696,23,-44,-19,17
904,2159,1,-424,-4696,23,-44,-19,17
905,2158,0,-425,-4695,23,-44,-19,17
906,2159,1,-425,-4694,23,-44,-19,17
907,2160,1,-423,-4695,23,-44,-19,17
908,2159,2,-424,-4695,23,-44,-20,17
909,2160,2,-423,-4696,23,-44,-20,17
910,2160,2,-423,-4696,23,-44,-20,17
911,2161,2,-423,-4697,23,-44,-20,17
912,2161,2,-422,-4699,23,-44,-20,17
913,2160,3,-422,-4699,23,-44,-20,17
914,2161,2,-423,-4698,23,-44,-19,17
915,2160,2,-424,-4696,23,-44,-19,17
916,2160,2,-424,-4696,23,-44,-19,17
917,2159,2,-424,-4694,23,-44,-19,17
918,2159,2,-424,-4696,23,-44,-19,17
919,2158,1,-426,-4696,23,-43,-19,17
920,2158,1,-425,-4696,23,-43,-19,17
921,2158,1,-424,-4697,23,-43,-19,17
922,2159,2,-423,-4698,23,-43,-19,17
923,2160,2,-423,-4698,23,-44,-19,17
924,2160,1,-423,-4699,23,-44,-19,17
925,2160,2,-423,-4699,23,-43,-19,17
926,2161,3,-424,-4699,23,-44,-19,17
927,2160,2,-425,-4695,23,-44,-19,17
928,2161,2,-425,-4696,23,-44,-19,17
929,2160,2,-426,-4695,23,-44,-19,17
930,2160,1,-427,-4696,23,-44,-19,16
931,2160,2,-427,-4696,23,-44,-19,16
932,2160,3,-427,-4696,23,-44,-19,17
933,2161,3,-426,-4695,23,-44,-19,17
934,2161,4,-428,-4696,23,-44,-19,17
935,2160,4,-426,-4696,23,-44,-19,17
936,2160,2,-427,-4697,23,-44,-19,17
937,2160,2,-427,-4697,23,-44,-19,17
938,2160,1,-426,-4697,23,-44,-19,17
939,2158,1,-426,-4696,23,-44,-19,17
940,2158,0,-426,-4695,23,-44,-19,17
941,2159,1,-426,-4696,23,-44,-19,17
942,2159,1,-426,-4697,23,-44,-19,17
943,2158,2,-426,-4697,23,-44,-19,17
944,2157,2,-425,-4696,23,-44,-19,17
945,2158,2,-424,-4696,23,-44,-19,17
946,2160,1,-427,-4697,23,-44,-19,17
947,2158,1,-426,-4696,23,-43,-19,16
948,2158,2,-425,-4695,23,-44,-19,17
949,2159,1,-424,-4693,23,-44,-19,17
950,2160,0,-424,-4695,23,-44,-19,17
951,2160,0,-425,-4695,23,-44,-19,17
952,2159,0,-422,-4697,23,-44,-19,17
953,2159,0,-425,-4697,23,-44,-19,17
954,2159,0,-425,-4699,23,-44,-19,17
955,2159,1,-423,-4697,23,-44,-19,17
956,2160,0,-423,-4698,23,-44,-19,17
957,2159,1,-424,-4697,23,-44,-19,17
958,2158,0,-423,-4695,23,-44,-19,17
959,2158,0,-425,-4695,23,-44,-19,17
960,2159,0,-423,-4696,23,-44,-20,17
961,2160,1,-423,-4694,23,-44,-19,17
962,2159,2,-425,-4693,23,-44,-19,17
963,2158,3,-423,-4691,23,-44,-19,17
964,2157,2,-425,-4691,23,-44,-19,17
965,2158,1,-426,-4691,23,-44,-19,17
966,2157,1,-426,-4692,23,-44,-19,17
967,2157,1,-423,-4692,23,-44,-18,17
968,2157,1,-423,-4692,23,-44,-18,17
969,2159,0,-425,-4691,23,-44,-18,17
970,2159,1,-424,-4691,23,-44,-19,17
971,2159,0,-423,-4692,23,-44,-19,17
972,2159,0,-425,-4691,23,-45,-19,17
973,2159,1,-425,-4690,23,-44,-19,17
974,2159,0,-424,-4689,23,-44,-19,17
975,2160,0,-424,-4690,23,-44,-19,17
976,2159,0,-425,-4689,23,-44,-19,17
977,2161,1,-424,-4690,23,-44,-19,17
978,2160,1,-422,-4689,23,-44,-19,17
979,2160,1,-423,-4690,23,-44,-19,17
980,2160,1,-421,-4691,23,-44,-19,17
981,2159,1,-421,-4692,23,-44,-20,17
982,2156,1,-421,-4690,23,-44,-20,17
983,2157,0,-422,-4689,23,-44,-19,17
984,2157,1,-420,-4690,23,-44,-19,17
985,2157,1,-421,-4689,23,-44,-20,17
986,2158,1,-422,-4691,23,-44,-20,17
987,2160,2,-423,-4691,23,-44,-20,17
988,2160,2,-424,-4691,23,-44,-20,17
989,2159,1,-425,-4690,23,-44,-20,17
990,2158,2,-426,-4690,23,-44,-19,17
991,2159,2,-426,-4689,23,-44,-19,17
992,2159,1,-425,-4689,23,-44,-19,17
993,2158,1,-426,-4689,23,-44,-19,17
994,2159,2,-425,-4689,23,-44,-19,17
995,2160,3,-426,-4690,23,-44,-19,17
