,acc_X,acc_Y,acc_Z,temp,tempC,gyr_X,gyr_Y,gyr_Z
0,2158,2,-430,-4656,23,-87,-39,35
1,2159,2,-430,-4656,23,-87,-39,35
2,2159,2,-431,-4656,23,-87,-38,35
3,2160,1,-429,-4655,23,-87,-38,35
4,2159,2,-427,-4656,23,-87,-37,34
5,2159,2,-427,-4657,23,-87,-37,35
6,2159,1,-426,-4656,23,-87,-37,34
7,2159,1,-427,-4657,23,-86,-37,34
8,2160,2,-427,-4656,23,-87,-37,34
9,2160,2,-427,-4657,23,-87,-37,34
10,2159,1,-428,-4657,23,-87,-38,34
11,2159,2,-429,-4656,23,-87,-38,34
12,2159,2,-430,-4656,23,-87,-38,35
13,2158,3,-430,-4657,23,-86,-39,35
14,2157,3,-430,-4657,23,-87,-39,35
15,2157,2,-429,-4657,23,-87,-38,35
16,2158,1,-430,-4658,23,-87,-38,35
17,2159,1,-430,-4657,23,-87,-38,35
18,2158,0,-428,-4656,23,-87,-39,35
19,2157,1,-428,-4657,23,-87,-39,35
20,2157,0,-428,-4657,23,-87,-39,35
21,2157,0,-430,-4659,23,-88,-39,35
22,2157,0,-430,-4659,23,-88,-39,35
23,2158,-1,-427,-4659,23,-87,-38,34
24,2159,-1,-426,-4659,23,-87,-38,34
25,2159,-1,-427,-4658,23,-87,-38,34
26,2160,0,-427,-4658,23,-87,-38,34
27,2159,0,-425,-4657,23,-87,-39,34
28,2159,0,-426,-4656,23,-87,-38,34
29,2159,0,-427,-4655,23,-86,-38,34
30,2158,1,-428,-4655,23,-86,-38,33
31,2157,2,-430,-4654,23,-87,-38,33
32,2157,1,-429,-4654,23,-87,-38,33
33,2159,1,-430,-4653,23,-87,-38,34
34,2159,2,-430,-4654,23,-87,-38,35
35,2159,3,-429,-4655,23,-87,-38,35
36,2159,2,-428,-4656,23,-87,-38,35
37,2160,0,-427,-4655,23,-87,-38,35
38,2159,0,-428,-4656,23,-87,-39,35
39,2159,2,-428,-4656,23,-87,-39,35
40,2159,3,-428,-4657,23,-87,-39,35
41,2159,2,-428,-4657,23,-87,-39,35
42,2158,3,-427,-4656,23,-86,-38,35
43,2157,2,-427,-4653,23,-87,-39,35
44,2156,2,-428,-4654,23,-87,-38,34
45,2157,1,-426,-4655,23,-86,-39,34
46,2157,2,-427,-4654,23,-87,-38,35
47,2158,2,-428,-4654,23,-87,-38,34
48,2159,2,-429,-4655,23,-88,-38,34
49,2160,2,-430,-4656,23,-88,-38,34
50,2160,1,-429,-4656,23,-88,-37,34
51,2159,1,-427,-4656,23,-88,-38,34
52,2159,0,-429,-4655,23,-88,-38,35
53,2158,0,-431,-4654,23,-88,-38,35
54,2159,1,-428,-4654,23,-88,-38,35
55,2160,0,-429,-4656,23,-88,-38,35
56,2160,0,-429,-4656,23,-88,-38,35
57,2160,0,-429,-4655,23,-87,-38,36
58,2160,0,-430,-4657,23,-87,-38,36
59,2161,1,-430,-4656,23,-87,-38,36
60,2160,1,-428,-4655,23,-87,-38,36
61,2159,1,-427,-4655,23,-87,-39,36
62,2158,1,-428,-4654,23,-87,-38,36
63,2159,0,-429,-4655,23,-87,-37,35
64,2158,2,-429,-4654,23,-87,-37,35
65,2158,3,-427,-4655,23,-87,-38,35
66,2158,3,-426,-4656,23,-87,-38,35
67,2158,3,-426,-4655,23,-87,-38,34
68,2159,3,-426,-4655,23,-87,-38,34
69,2159,3,-427,-4656,23,-87,-38,35
70,2159,4,-428,-4655,23,-87,-39,35
71,2159,5,-427,-4654,23,-87,-39,34
72,2159,4,-429,-4654,23,-87,-39,35
73,2159,3,-429,-4655,23,-87,-39,35
74,2158,2,-430,-4654,23,-86,-39,34
75,2158,2,-429,-4654,23,-86,-38,34
76,2158,2,-429,-4654,23,-86,-39,34
77,2159,2,-429,-4654,23,-85,-39,34
78,2159,1,-430,-4653,23,-86,-39,34
79,2159,2,-430,-4652,23,-86,-39,35
80,2161,2,-429,-4653,23,-87,-40,35
81,2160,2,-430,-4653,23,-87,-39,34
82,2161,2,-430,-4653,23,-87,-40,34
83,2161,1,-429,-4652,23,-87,-39,35
84,2161,1,-429,-4652,23,-88,-39,34
85,2160,2,-428,-4653,23,-87,-39,34
86,2160,2,-429,-4653,23,-88,-38,34
87,2159,3,-428,-4652,23,-87,-38,34
88,2161,2,-428,-4651,23,-87,-38,34
89,2160,2,-427,-4649,23,-87,-38,35
90,2159,2,-426,-4650,23,-86,-38,35
91,2159,2,-428,-4651,23,-86,-38,36
92,2158,1,-428,-4651,23,-86,-38,36
93,2157,2,-427,-4652,23,-86,-38,36
94,2157,2,-427,-4652,23,-87,-38,36
95,2156,2,-426,-4653,23,-87,-38,36
96,2157,1,-427,-4653,23,-87,-38,36
97,2157,1,-428,-4655,23,-87,-38,36
98,2157,2,-428,-4655,23,-87,-37,35
99,2157,1,-428,-4655,23,-87,-37,35
100,2157,1,-429,-4654,23,-87,-37,35
101,2158,2,-430,-4653,23,-87,-38,35
102,2158,2,-429,-4654,23,-86,-38,34
103,2160,3,-428,-4654,23,-87,-38,34
104,2160,1,-426,-4653,23,-87,-38,35
105,2159,1,-426,-4653,23,-86,-38,35
106,2158,1,-427,-4654,23,-87,-38,35
107,2158,0,-429,-4652,23,-86,-39,35
108,2158,0,-428,-4652,23,-86,-38,35
109,2159,0,-429,-4651,23,-86,-38,34
110,2159,0,-429,-4651,23,-86,-38,35
111,2159,1,-430,-4651,23,-87,-38,35
112,2159,1,-431,-4653,23,-87,-38,35
113,2158,1,-432,-4652,23,-87,-38,35
114,2156,1,-431,-4652,23,-87,-38,35
115,2157,0,-428,-4652,23,-87,-38,34
116,2157,0,-429,-4650,23,-87,-38,34
117,2157,1,-429,-4652,23,-87,-39,34
118,2158,1,-430,-4653,23,-86,-39,34
119,2157,2,-430,-4652,23,-87,-39,34
120,2157,3,-431,-4652,23,-87,-39,34
121,2157,2,-431,-4652,23,-87,-38,34
122,2158,2,-432,-4653,23,-87,-38,35
123,2157,1,-431,-4653,23,-87,-38,35
124,2159,1,-429,-4654,23,-87,-38,34
125,2157,2,-426,-4654,23,-87,-38,35
126,2156,2,-427,-4654,23,-87,-38,35
127,2157,2,-428,-4653,23,-87,-38,35
128,2158,1,-425,-4654,23,-87,-38,35
129,2158,1,-426,-4656,23,-87,-38,34
130,2159,1,-427,-4656,23,-87,-38,34
131,2159,0,-429,-4656,23,-86,-38,34
132,2159,-1,-428,-4656,23,-87,-38,34
133,2159,0,-430,-4656,23,-86,-38,35
134,2158,2,-428,-4654,23,-87,-38,34
135,2158,2,-429,-4654,23,-87,-38,34
136,2159,0,-429,-4655,23,-87,-38,34
137,2159,-1,-428,-4654,23,-87,-38,35
138,2159,-2,-428,-4655,23,-87,-38,34
139,2159,-1,-428,-4654,23,-87,-38,34
140,2158,-1,-430,-4656,23,-87,-38,34
141,2158,-1,-431,-4656,23,-86,-38,34
142,2159,-1,-433,-4655,23,-87,-37,34
143,2159,0,-431,-4654,23,-87,-37,35
144,2160,0,-429,-4652,23,-87,-37,35
145,2158,2,-428,-4652,23,-87,-38,35
146,2159,3,-427,-4655,23,-87,-38,35
147,2160,2,-428,-4653,23,-87,-39,35
148,2160,1,-428,-4652,23,-87,-38,35
149,2159,0,-429,-4651,23,-87,-38,35
150,2159,0,-430,-4652,23,-87,-38,35
151,2159,0,-429,-4651,23,-87,-37,34
152,2160,0,-426,-4651,23,-86,-37,34
153,2159,0,-427,-4651,23,-86,-37,34
154,2160,1,-428,-4653,23,-87,-38,34
155,2160,0,-427,-4653,23,-87,-38,34
156,2159,1,-429,-4653,23,-87,-38,35
157,2159,0,-429,-4654,23,-87,-38,35
158,2159,0,-429,-4654,23,-88,-38,34
159,2159,1,-427,-4655,23,-88,-38,34
160,2159,1,-428,-4655,23,-87,-38,34
161,2158,1,-427,-4655,23,-87,-38,35
162,2160,2,-427,-4655,23,-87,-38,35
163,2160,2,-428,-4653,23,-87,-38,35
164,2159,2,-429,-4653,23,-87,-38,35
165,2159,1,-430,-4653,23,-87,-38,35
166,2159,2,-428,-4653,23,-88,-39,34
167,2158,3,-427,-4652,23,-88,-38,34
168,2157,4,-427,-4652,23,-87,-38,34
169,2157,4,-430,-4653,23,-87,-39,34
170,2158,3,-429,-4652,23,-87,-38,35
171,2158,3,-425,-4654,23,-86,-38,35
172,2158,2,-425,-4653,23,-86,-38,35
173,2159,2,-427,-4654,23,-86,-38,35
174,2160,1,-429,-4652,23,-86,-38,35
175,2159,1,-431,-4653,23,-86,-38,35
176,2159,1,-430,-4653,23,-86,-38,34
177,2158,1,-429,-4653,23,-87,-39,34
178,2158,1,-429,-4653,23,-87,-39,34
179,2158,1,-428,-4655,23,-87,-39,35
180,2158,2,-429,-4655,23,-86,-39,35
181,2159,2,-429,-4654,23,-87,-39,35
182,2160,1,-427,-4653,23,-87,-39,34
183,2160,2,-426,-4654,23,-87,-39,35
184,2160,1,-426,-4653,23,-87,-39,34
185,2160,1,-425,-4652,23,-87,-39,35
186,2160,1,-426,-4653,23,-87,-39,35
187,2160,0,-428,-4652,23,-87,-38,35
188,2159,0,-426,-4654,23,-87,-38,35
189,2158,1,-427,-4654,23,-87,-38,35
190,2158,1,-427,-4655,23,-86,-39,34
191,2158,1,-428,-4654,23,-87,-39,34
192,2160,1,-427,-4655,23,-87,-39,34
193,2160,1,-428,-4653,23,-87,-39,34
194,2159,2,-428,-4654,23,-86,-38,34
195,2160,2,-427,-4654,23,-86,-39,34
196,2160,2,-427,-4653,23,-87,-38,34
197,2160,1,-427,-4652,23,-87,-38,34
198,2158,1,-428,-4653,23,-87,-38,34
199,2158,2,-427,-4652,23,-87,-38,35
200,2158,3,-426,-4652,23,-87,-37,35
201,2158,3,-426,-4653,23,-87,-38,35
202,2158,3,-428,-4652,23,-87,-38,35
203,2158,4,-427,-4652,23,-87,-38,35
204,2158,3,-428,-4655,23,-87,-38,35
205,2159,2,-427,-4656,23,-87,-38,35
206,2159,2,-428,-4657,23,-87,-37,34
207,2159,1,-428,-4656,23,-86,-38,34
208,2160,1,-427,-4655,23,-87,-38,34
209,2159,2,-427,-4654,23,-87,-38,34
210,2160,3,-427,-4654,23,-87,-38,34
211,2159,3,-428,-4652,23,-87,-38,34
212,2160,3,-429,-4652,23,-87,-39,34
213,2161,3,-430,-4653,23,-87,-38,34
214,2159,2,-430,-4651,23,-87,-38,34
215,2160,1,-428,-4652,23,-87,-39,34
216,2159,1,-428,-4652,23,-87,-38,34
217,2159,0,-429,-4650,23,-87,-38,35
218,2158,1,-430,-4651,23,-87,-39,35
219,2158,0,-428,-4650,23,-87,-39,35
220,2156,0,-429,-4651,23,-87,-38,35
221,2157,1,-429,-4651,23,-87,-39,35
222,2157,1,-429,-4652,23,-87,-39,35
223,2158,2,-430,-4653,23,-87,-39,35
224,2158,2,-431,-4653,23,-88,-39,35
225,2157,2,-432,-4653,23,-87,-38,34
226,2157,1,-429,-4652,23,-87,-39,34
227,2158,1,-429,-4651,23,-87,-39,34
228,2158,0,-428,-4650,23,-88,-38,34
229,2158,-1,-427,-4650,23,-88,-38,34
230,2159,-1,-428,-4650,23,-88,-38,34
231,2159,0,-429,-4652,23,-88,-38,34
232,2159,1,-430,-4652,23,-87,-37,34
233,2159,0,-429,-4652,23,-87,-37,35
234,2159,0,-430,-4653,23,-88,-37,35
235,2159,0,-428,-4653,23,-87,-37,35
236,2158,2,-427,-4652,23,-88,-37,35
237,2159,3,-429,-4653,23,-87,-38,35
238,2158,1,-428,-4652,23,-87,-38,35
239,2157,1,-429,-4654,23,-88,-38,35
240,2157,0,-429,-4655,23,-88,-38,35
241,2157,0,-429,-4655,23,-88,-38,35
242,2158,0,-429,-4655,23,-88,-38,35
243,2160,0,-430,-4654,23,-87,-38,35
244,2159,0,-429,-4652,23,-87,-38,35
245,2161,1,-430,-4655,23,-87,-37,36
246,2160,1,-429,-4654,23,-87,-38,35
247,2160,1,-428,-4654,23,-87,-38,35
248,2160,1,-427,-4653,23,-87,-38,35
249,2158,1,-428,-4652,23,-87,-38,35
250,2159,1,-427,-4652,23,-87,-38,35
251,2159,2,-428,-4651,23,-86,-37,35
252,2160,2,-427,-4652,23,-87,-37,35
253,2160,3,-427,-4654,23,-86,-38,35
254,2159,3,-429,-4652,23,-87,-38,35
255,2157,2,-428,-4654,23,-87,-38,35
256,2158,3,-430,-4653,23,-87,-38,34
257,2158,3,-432,-4653,23,-86,-39,35
258,2158,4,-429,-4653,23,-86,-38,35
259,2159,3,-431,-4653,23,-87,-39,35
260,2159,2,-430,-4654,23,-86,-39,35
261,2159,2,-428,-4652,23,-87,-39,35
262,2160,2,-430,-4654,23,-87,-38,34
263,2159,2,-430,-4653,23,-87,-38,35
264,2159,1,-429,-4653,23,-87,-38,34
265,2160,1,-429,-4653,23,-87,-38,35
266,2159,2,-428,-4652,23,-86,-38,34
267,2159,0,-428,-4650,23,-87,-38,35
268,2160,1,-429,-4653,23,-87,-37,35
269,2161,2,-429,-4652,23,-88,-38,35
270,2160,1,-427,-4652,23,-87,-38,35
271,2160,1,-429,-4653,23,-87,-38,34
272,2158,2,-429,-4654,23,-87,-38,35
273,2158,1,-429,-4653,23,-87,-38,34
274,2159,1,-429,-4652,23,-87,-39,34
275,2159,1,-430,-4654,23,-86,-38,34
276,2159,1,-429,-4652,23,-87,-38,34
277,2159,1,-429,-4652,23,-87,-39,34
278,2159,1,-430,-4651,23,-87,-39,34
279,2159,1,-430,-4654,23,-88,-38,34
280,2161,0,-430,-4652,23,-87,-38,34
281,2160,0,-430,-4652,23,-87,-39,35
282,2160,0,-431,-4652,23,-87,-39,35
283,2159,1,-430,-4653,23,-87,-38,34
284,2159,0,-430,-4653,23,-87,-39,34
285,2158,1,-429,-4654,23,-87,-38,34
286,2156,2,-429,-4654,23,-87,-39,34
287,2157,3,-428,-4652,23,-87,-40,34
288,2156,3,-427,-4652,23,-87,-39,34
289,2156,1,-429,-4654,23,-87,-40,34
290,2156,0,-429,-4654,23,-87,-39,35
291,2157,1,-428,-4655,23,-87,-39,35
292,2158,1,-428,-4655,23,-87,-39,35
293,2159,1,-427,-4656,23,-87,-39,35
294,2160,0,-427,-4655,23,-87,-38,34
295,2160,2,-427,-4657,23,-87,-38,34
296,2161,2,-428,-4656,23,-87,-38,34
297,2161,1,-428,-4656,23,-87,-39,34
298,2160,1,-429,-4656,23,-87,-38,34
299,2159,1,-429,-4655,23,-87,-37,34
300,2160,1,-428,-4654,23,-88,-37,34
301,2160,1,-426,-4653,23,-88,-37,35
302,2159,0,-426,-4652,23,-87,-37,35
303,2160,0,-426,-4652,23,-87,-37,35
304,2159,0,-427,-4653,23,-87,-37,35
305,2158,0,-427,-4655,23,-88,-37,35
306,2157,0,-426,-4655,23,-88,-38,35
307,2158,1,-425,-4653,23,-88,-38,35
308,2158,1,-426,-4654,23,-88,-38,35
309,2159,1,-428,-4656,23,-88,-37,35
310,2159,1,-428,-4654,23,-87,-37,35
311,2159,1,-428,-4654,23,-87,-37,35
312,2159,0,-427,-4653,23,-87,-37,36
313,2159,1,-427,-4655,23,-87,-38,36
314,2159,2,-428,-4653,23,-87,-38,36
315,2158,2,-426,-4653,23,-86,-39,35
316,2158,1,-426,-4652,23,-86,-39,36
317,2158,1,-429,-4651,23,-86,-39,36
318,2159,1,-428,-4651,23,-87,-39,35
319,2159,1,-427,-4652,23,-87,-39,35
320,2158,2,-428,-4653,23,-87,-39,35
321,2159,1,-430,-4653,23,-86,-38,34
322,2159,0,-429,-4653,23,-87,-39,34
323,2159,-1,-429,-4654,23,-87,-38,34
324,2159,-1,-428,-4654,23,-88,-38,34
325,2158,0,-427,-4655,23,-87,-38,35
326,2159,0,-427,-4653,23,-87,-39,34
327,2160,0,-426,-4653,23,-87,-39,34
328,2159,0,-426,-4653,23,-87,-39,34
329,2158,0,-427,-4654,23,-87,-39,34
330,2158,-1,-427,-4653,23,-87,-39,34
331,2159,1,-427,-4651,23,-87,-39,34
332,2158,1,-429,-4652,23,-86,-39,34
333,2159,3,-427,-4651,23,-87,-38,34
334,2158,2,-427,-4650,23,-87,-38,34
335,2158,3,-427,-4650,23,-87,-39,35
336,2159,2,-427,-4649,23,-87,-39,35
337,2159,3,-426,-4649,23,-87,-39,35
338,2158,1,-425,-4649,23,-87,-39,34
339,2160,2,-426,-4650,23,-87,-39,34
340,2160,2,-426,-4651,23,-86,-38,35
341,2160,3,-427,-4650,23,-86,-38,35
342,2158,4,-426,-4650,23,-87,-38,34
343,2158,5,-427,-4649,23,-87,-38,34
344,2159,4,-429,-4651,23,-87,-39,35
345,2159,3,-430,-4651,23,-87,-39,35
346,2159,2,-431,-4652,23,-87,-39,35
347,2160,3,-429,-4651,23,-86,-39,35
348,2160,3,-430,-4651,23,-87,-39,35
349,2159,2,-430,-4650,23,-87,-39,36
350,2160,3,-430,-4650,23,-87,-39,35
351,2160,2,-430,-4649,23,-87,-38,36
352,2160,1,-430,-4651,23,-87,-38,35
353,2160,2,-430,-4649,23,-87,-39,35
354,2160,2,-430,-4651,23,-87,-39,35
355,2160,2,-429,-4649,23,-87,-39,35
356,2159,2,-428,-4651,23,-87,-38,35
357,2158,2,-428,-4651,23,-87,-38,35
358,2158,2,-425,-4652,23,-87,-38,35
359,2158,2,-425,-4654,23,-87,-38,35
360,2158,2,-426,-4653,23,-87,-38,35
361,2157,1,-427,-4652,23,-87,-37,35
362,2158,2,-427,-4653,23,-87,-38,35
363,2157,1,-428,-4651,23,-87,-38,35
364,2159,3,-429,-4650,23,-87,-39,35
365,2158,3,-429,-4652,23,-87,-38,35
366,2158,3,-428,-4651,23,-87,-38,35
367,2159,2,-427,-4651,23,-87,-38,35
368,2159,2,-431,-4650,23,-87,-39,35
369,2158,2,-432,-4649,23,-87,-38,35
370,2159,2,-430,-4650,23,-87,-38,35
371,2159,1,-430,-4650,23,-87,-38,34
372,2160,2,-429,-4651,23,-87,-38,35
373,2160,1,-428,-4650,23,-87,-38,35
374,2160,1,-427,-4650,23,-87,-38,35
375,2159,1,-428,-4650,23,-87,-38,35
376,2159,2,-426,-4650,23,-87,-39,35
377,2159,2,-426,-4653,23,-86,-39,35
378,2159,1,-425,-4654,23,-86,-39,35
379,2159,0,-425,-4652,23,-87,-38,35
380,2158,1,-427,-4654,23,-86,-38,35
381,2158,2,-429,-4652,23,-87,-38,35
382,2158,2,-427,-4654,23,-87,-38,35
383,2157,2,-424,-4651,23,-86,-38,35
384,2158,2,-426,-4652,23,-87,-38,35
385,2159,1,-425,-4654,23,-87,-39,34
386,2159,1,-426,-4653,23,-87,-38,34
387,2159,0,-427,-4652,23,-87,-39,34
388,2158,1,-429,-4650,23,-87,-38,34
389,2158,1,-428,-4651,23,-86,-37,34
390,2159,0,-428,-4650,23,-87,-37,34
391,2159,1,-429,-4650,23,-87,-38,34
392,2158,0,-428,-4650,23,-87,-38,34
393,2157,1,-426,-4650,23,-87,-37,34
394,2158,1,-428,-4650,23,-88,-37,34
395,2157,1,-428,-4649,23,-87,-37,34
396,2158,0,-428,-4649,23,-87,-37,34
397,2158,1,-428,-4650,23,-87,-37,35
398,2158,1,-428,-4649,23,-87,-36,35
399,2158,1,-427,-4648,23,-87,-37,35
400,2159,1,-428,-4646,23,-87,-37,35
401,2158,1,-427,-4646,23,-88,-38,35
402,2159,1,-427,-4647,23,-88,-37,35
403,2159,1,-426,-4648,23,-88,-37,35
404,2159,1,-426,-4650,23,-88,-38,35
405,2158,0,-426,-4650,23,-88,-38,35
406,2158,1,-427,-4650,23,-87,-38,35
407,2158,2,-428,-4652,23,-87,-38,34
408,2159,3,-428,-4652,23,-87,-38,34
409,2159,2,-427,-4651,23,-87,-38,35
410,2160,2,-428,-4652,23,-87,-39,35
411,2159,2,-428,-4652,23,-87,-39,35
412,2159,1,-429,-4652,23,-87,-39,35
413,2159,0,-429,-4653,23,-87,-39,35
414,2158,1,-429,-4651,23,-87,-38,35
415,2160,1,-428,-4652,23,-86,-38,35
416,2160,3,-428,-4651,23,-87,-38,34
417,2159,2,-428,-4651,23,-87,-38,34
418,2158,1,-427,-4652,23,-87,-38,34
419,2158,2,-427,-4653,23,-87,-38,34
420,2158,2,-427,-4652,23,-87,-38,35
421,2158,3,-424,-4651,23,-87,-37,34
422,2158,2,-424,-4652,23,-87,-38,34
423,2159,3,-427,-4651,23,-88,-38,34
424,2159,1,-427,-4650,23,-87,-37,34
425,2158,2,-427,-4650,23,-87,-37,34
426,2157,1,-427,-4649,23,-87,-38,34
427,2157,0,-426,-4650,23,-87,-38,34
428,2156,1,-429,-4649,23,-87,-38,34
429,2156,1,-428,-4650,23,-87,-38,34
430,2157,2,-428,-4650,23,-87,-38,34
431,2158,2,-427,-4650,23,-87,-38,34
432,2158,2,-425,-4651,23,-87,-38,34
433,2158,2,-425,-4651,23,-87,-39,34
434,2159,3,-427,-4650,23,-87,-39,34
435,2159,2,-426,-4650,23,-87,-39,34
436,2159,1,-427,-4650,23,-87,-38,35
437,2158,0,-428,-4649,23,-87,-38,35
438,2158,0,-428,-4649,23,-87,-38,35
439,2159,0,-428,-4649,23,-86,-37,35
440,2160,1,-427,-4648,23,-86,-37,35
441,2160,1,-427,-4650,23,-86,-38,34
442,2160,1,-428,-4651,23,-87,-38,34
443,2159,3,-426,-4651,23,-87,-38,34
444,2159,2,-427,-4650,23,-87,-38,34
445,2159,0,-428,-4650,23,-87,-39,34
446,2159,0,-427,-4650,23,-88,-38,34
447,2159,2,-426,-4650,23,-87,-38,34
448,2160,3,-426,-4649,23,-87,-38,34
449,2159,1,-427,-4649,23,-87,-38,34
450,2159,2,-427,-4649,23,-87,-37,34
451,2159,1,-427,-4651,23,-88,-38,34
452,2158,2,-427,-4652,23,-87,-38,34
453,2158,1,-425,-4651,23,-87,-38,34
454,2159,1,-425,-4651,23,-87,-38,34
455,2159,1,-426,-4651,23,-87,-38,34
456,2159,0,-427,-4650,23,-87,-38,34
457,2159,0,-427,-4650,23,-87,-38,34
458,2158,1,-427,-4650,23,-87,-38,34
459,2158,-1,-426,-4651,23,-87,-38,34
460,2158,0,-427,-4651,23,-88,-38,34
461,2159,0,-428,-4651,23,-88,-38,34
462,2159,0,-429,-4650,23,-87,-38,33
463,2158,0,-427,-4651,23,-87,-38,33
464,2158,0,-427,-4652,23,-86,-39,34
465,2158,2,-428,-4652,23,-87,-38,34
466,2159,1,-427,-4653,23,-87,-39,34
467,2160,1,-426,-4653,23,-87,-38,34
468,2159,1,-426,-4652,23,-87,-39,34
469,2159,2,-426,-4650,23,-87,-39,34
470,2159,1,-427,-4651,23,-87,-39,34
471,2159,1,-426,-4651,23,-88,-39,35
472,2158,1,-426,-4651,23,-88,-39,35
473,2158,2,-426,-4652,23,-87,-39,35
474,2157,1,-426,-4651,23,-87,-39,35
475,2157,0,-428,-4651,23,-87,-39,35
476,2158,0,-428,-4651,23,-87,-39,34
477,2158,1,-428,-4652,23,-88,-38,34
478,2158,1,-428,-4653,23,-88,-38,34
479,2159,0,-428,-4654,23,-88,-38,34
480,2161,0,-429,-4652,23,-87,-38,35
481,2160,0,-428,-4652,23,-87,-38,34
482,2160,0,-426,-4650,23,-87,-38,35
483,2159,-1,-428,-4650,23,-87,-37,35
484,2161,0,-429,-4652,23,-87,-38,35
485,2161,0,-429,-4652,23,-87,-38,35
486,2161,-1,-429,-4649,23,-87,-38,35
487,2161,-1,-429,-4650,23,-87,-38,35
488,2161,0,-427,-4648,23,-87,-38,36
489,2161,0,-427,-4649,23,-87,-37,35
490,2161,0,-428,-4648,23,-86,-38,35
491,2160,0,-427,-4649,23,-87,-38,35
492,2160,0,-427,-4649,23,-87,-38,35
493,2160,1,-426,-4649,23,-87,-38,35
494,2159,1,-428,-4650,23,-87,-39,34
495,2160,1,-428,-4649,23,-87,-39,34
496,2159,2,-428,-4650,23,-87,-39,34
497,2158,2,-430,-4651,23,-86,-39,34
498,2159,2,-429,-4650,23,-86,-39,34
499,2158,1,-428,-4651,23,-87,-38,34
500,2159,1,-429,-4651,23,-87,-38,35
501,2159,0,-429,-4651,23,-88,-39,34
502,2158,0,-429,-4652,23,-87,-39,35
503,2158,0,-428,-4654,23,-88,-38,34
504,2157,0,-428,-4655,23,-88,-38,35
505,2157,1,-429,-4655,23,-87,-38,35
506,2158,3,-429,-4655,23,-87,-38,35
507,2159,1,-429,-4655,23,-87,-38,35
508,2159,2,-429,-4654,23,-87,-38,35
509,2160,1,-430,-4652,23,-87,-38,35
510,2159,2,-428,-4652,23,-87,-38,35
511,2158,1,-428,-4651,23,-87,-38,35
512,2157,1,-428,-4651,23,-87,-38,35
513,2156,1,-427,-4651,23,-87,-38,35
514,2157,1,-426,-4651,23,-87,-38,35
515,2157,0,-426,-4650,23,-87,-39,35
516,2158,0,-426,-4650,23,-87,-38,35
517,2159,0,-427,-4652,23,-87,-38,35
518,2158,0,-426,-4652,23,-87,-38,35
519,2157,0,-428,-4652,23,-87,-38,34
520,2157,1,-428,-4653,23,-88,-38,35
521,2158,0,-428,-4652,23,-88,-37,35
522,2157,0,-428,-4653,23,-88,-38,35
523,2157,1,-428,-4651,23,-88,-38,35
524,2158,1,-429,-4650,23,-88,-38,35
525,2158,0,-428,-4650,23,-87,-38,35
526,2159,0,-427,-4649,23,-88,-38,35
527,2158,0,-426,-4649,23,-88,-39,34
528,2159,0,-428,-4650,23,-88,-39,35
529,2160,1,-428,-4648,23,-87,-39,35
530,2160,1,-429,-4650,23,-87,-39,35
531,2159,2,-432,-4650,23,-87,-38,35
532,2160,1,-433,-4651,23,-87,-38,35
533,2160,2,-432,-4651,23,-87,-38,35
534,2161,1,-432,-4649,23,-87,-38,34
535,2160,1,-431,-4650,23,-87,-39,35
536,2158,0,-430,-4649,23,-87,-38,35
537,2158,0,-428,-4649,23,-87,-38,35
538,2158,1,-428,-4650,23,-87,-38,35
539,2159,1,-428,-4650,23,-88,-38,34
540,2159,1,-427,-4650,23,-87,-38,34
541,2159,2,-427,-4650,23,-87,-37,34
542,2158,2,-428,-4650,23,-87,-38,34
543,2157,1,-427,-4650,23,-87,-37,34
544,2157,2,-428,-4651,23,-87,-37,34
545,2157,2,-428,-4650,23,-86,-39,35
546,2156,1,-430,-4650,23,-86,-39,35
547,2156,0,-427,-4652,23,-86,-38,34
548,2158,1,-429,-4651,23,-87,-39,34
549,2159,2,-430,-4650,23,-87,-38,34
550,2159,1,-429,-4651,23,-87,-38,34
551,2159,1,-428,-4651,23,-87,-38,34
552,2158,2,-427,-4649,23,-88,-38,34
553,2159,2,-427,-4649,23,-87,-39,34
554,2159,2,-427,-4648,23,-87,-39,34
555,2159,1,-426,-4648,23,-87,-39,34
556,2160,2,-427,-4649,23,-87,-39,35
557,2158,2,-424,-4652,23,-88,-39,35
558,2159,1,-427,-4652,23,-88,-38,35
559,2159,2,-427,-4652,23,-88,-39,35
560,2159,2,-428,-4652,23,-88,-39,35
561,2159,2,-427,-4652,23,-87,-39,35
562,2159,3,-426,-4651,23,-87,-38,35
563,2160,3,-427,-4652,23,-87,-38,35
564,2160,1,-428,-4651,23,-87,-37,35
565,2161,1,-429,-4650,23,-87,-37,35
566,2160,2,-428,-4649,23,-87,-37,35
567,2161,2,-429,-4649,23,-87,-37,35
568,2161,2,-429,-4649,23,-87,-37,35
569,2162,1,-428,-4649,23,-87,-38,35
570,2161,0,-428,-4650,23,-87,-38,34
571,2160,-1,-428,-4648,23,-87,-38,34
572,2160,-1,-426,-4648,23,-87,-38,35
573,2160,1,-425,-4649,23,-87,-38,35
574,2160,2,-427,-4650,23,-87,-39,35
575,2160,3,-428,-4649,23,-87,-38,35
576,2160,3,-428,-4649,23,-87,-38,35
577,2160,2,-428,-4646,23,-87,-38,34
578,2159,2,-427,-4646,23,-87,-38,35
579,2159,1,-428,-4647,23,-87,-38,35
580,2159,2,-428,-4645,23,-87,-38,35
581,2159,1,-428,-4645,23,-87,-38,35
582,2158,0,-429,-4646,23,-87,-38,35
583,2158,0,-429,-4645,23,-87,-37,34
584,2159,0,-429,-4645,23,-87,-37,34
585,2159,0,-428,-4645,23,-87,-37,35
586,2158,0,-428,-4647,23,-87,-37,34
587,2158,0,-427,-4649,23,-87,-37,34
588,2158,0,-428,-4649,23,-87,-37,34
589,2160,1,-428,-4648,23,-87,-38,34
590,2160,0,-429,-4648,23,-87,-38,34
591,2160,0,-431,-4648,23,-87,-38,34
592,2161,0,-428,-4649,23,-87,-38,35
593,2160,1,-428,-4648,23,-87,-38,35
594,2159,1,-427,-4647,23,-87,-39,35
595,2159,1,-427,-4646,23,-87,-38,35
596,2159,0,-428,-4646,23,-87,-38,35
597,2160,0,-429,-4646,23,-87,-38,35
598,2160,1,-428,-4646,23,-87,-38,35
599,2161,1,-428,-4648,23,-86,-38,34
600,2160,1,-427,-4647,23,-87,-37,34
601,2159,3,-427,-4648,23,-87,-37,35
602,2158,3,-425,-4649,23,-87,-38,35
603,2159,3,-427,-4647,23,-87,-38,35
604,2159,3,-427,-4646,23,-88,-38,35
605,2161,3,-427,-4645,23,-87,-38,35
606,2160,2,-429,-4646,23,-87,-39,35
607,2159,2,-429,-4648,23,-88,-38,35
608,2159,2,-428,-4648,23,-87,-38,35
609,2160,3,-428,-4650,23,-87,-37,35
610,2159,2,-429,-4651,23,-87,-37,35
611,2159,1,-428,-4649,23,-87,-37,35
612,2159,3,-427,-4650,23,-87,-37,35
613,2158,3,-427,-4649,23,-88,-37,35
614,2157,2,-427,-4651,23,-87,-37,35
615,2159,1,-425,-4650,23,-87,-37,35
616,2159,1,-427,-4650,23,-87,-38,35
617,2160,1,-426,-4650,23,-87,-38,35
618,2160,2,-427,-4652,23,-88,-38,35
619,2161,1,-426,-4653,23,-87,-38,35
620,2160,1,-427,-4653,23,-88,-38,35
621,2160,1,-427,-4652,23,-87,-38,35
622,2160,1,-428,-4651,23,-88,-38,34
623,2159,1,-429,-4649,23,-87,-38,34
624,2159,2,-429,-4649,23,-87,-38,34
625,2159,3,-430,-4651,23,-87,-38,34
626,2159,3,-430,-4651,23,-87,-38,34
627,2160,3,-428,-4650,23,-87,-38,35
628,2159,2,-429,-4650,23,-87,-38,35
629,2159,3,-429,-4649,23,-87,-38,35
630,2159,3,-427,-4650,23,-88,-38,35
631,2159,3,-426,-4652,23,-88,-38,35
632,2159,2,-426,-4653,23,-87,-38,34
633,2160,1,-426,-4652,23,-87,-38,35
634,2160,2,-427,-4652,23,-87,-37,34
635,2158,3,-425,-4651,23,-87,-38,35
636,2159,3,-426,-4649,23,-88,-38,35
637,2158,3,-428,-4651,23,-88,-38,35
638,2159,3,-428,-4650,23,-87,-38,35
639,2158,1,-428,-4650,23,-87,-39,35
640,2158,2,-428,-4651,23,-87,-38,36
641,2158,2,-429,-4649,23,-87,-38,35
642,2158,1,-429,-4649,23,-87,-38,35
643,2159,0,-430,-4647,23,-87,-38,34
644,2159,2,-431,-4647,23,-87,-38,34
645,2159,1,-432,-4647,23,-87,-38,35
646,2158,1,-432,-4647,23,-87,-38,35
647,2158,1,-432,-4648,23,-88,-38,35
648,2159,2,-430,-4649,23,-87,-38,36
649,2159,2,-429,-4650,23,-87,-38,36
650,2159,1,-427,-4652,23,-88,-39,36
651,2159,1,-428,-4651,23,-88,-38,35
652,2159,0,-427,-4652,23,-88,-38,35
653,2160,0,-428,-4650,23,-88,-38,35
654,2159,-2,-429,-4651,23,-88,-38,35
655,2158,0,-431,-4650,23,-87,-38,35
656,2157,0,-431,-4650,23,-86,-38,35
657,2158,0,-431,-4649,23,-86,-38,35
658,2158,0,-430,-4649,23,-87,-38,34
659,2159,1,-430,-4648,23,-87,-38,34
660,2158,1,-430,-4648,23,-86,-38,34
661,2158,0,-430,-4650,23,-86,-38,35
662,2158,0,-431,-4651,23,-86,-38,35
663,2158,0,-432,-4651,23,-86,-38,35
664,2159,1,-432,-4650,23,-86,-39,35
665,2160,1,-430,-4648,23,-87,-38,35
666,2159,1,-430,-4649,23,-86,-39,35
667,2159,1,-431,-4649,23,-87,-38,35
668,2159,1,-430,-4649,23,-87,-38,35
669,2158,0,-429,-4648,23,-87,-38,35
670,2158,1,-429,-4648,23,-87,-39,35
671,2159,1,-430,-4647,23,-87,-39,35
672,2158,1,-430,-4649,23,-87,-38,35
673,2158,2,-432,-4651,23,-87,-38,35
674,2160,2,-430,-4652,23,-87,-38,36
675,2159,3,-430,-4651,23,-87,-38,35
676,2159,2,-428,-4650,23,-87,-38,35
677,2160,1,-429,-4650,23,-87,-39,35
678,2160,2,-429,-4647,23,-87,-39,35
679,2159,2,-428,-4648,23,-87,-39,35
680,2159,3,-428,-4646,23,-87,-39,34
681,2159,2,-427,-4647,23,-87,-39,34
682,2159,2,-427,-4647,23,-87,-39,34
683,2160,2,-426,-4649,23,-87,-39,34
684,2160,4,-427,-4649,23,-87,-39,35
685,2160,4,-426,-4648,23,-88,-39,35
686,2159,3,-426,-4649,23,-88,-38,35
687,2159,3,-428,-4649,23,-87,-38,35
688,2160,3,-428,-4649,23,-87,-37,34
689,2159,3,-428,-4647,23,-87,-37,34
690,2159,3,-428,-4647,23,-87,-37,34
691,2159,3,-429,-4645,23,-86,-37,34
692,2159,2,-429,-4647,23,-87,-37,35
693,2159,2,-428,-4647,23,-87,-38,34
694,2160,2,-427,-4647,23,-87,-38,35
695,2159,2,-427,-4647,23,-87,-38,35
696,2159,1,-426,-4647,23,-87,-38,35
697,2159,1,-428,-4648,23,-87,-38,35
698,2158,1,-428,-4648,23,-87,-39,34
699,2158,1,-428,-4647,23,-87,-38,34
700,2158,1,-429,-4646,23,-87,-38,34
701,2157,1,-430,-4645,23,-87,-38,34
702,2158,2,-431,-4646,23,-87,-39,34
703,2159,1,-431,-4648,23,-87,-38,35
704,2159,2,-428,-4647,23,-87,-37,35
705,2159,3,-428,-4649,23,-86,-37,35
706,2157,3,-428,-4648,23,-86,-38,35
707,2158,3,-428,-4650,23,-87,-38,35
708,2157,2,-426,-4650,23,-87,-38,35
709,2156,2,-426,-4651,23,-87,-38,35
710,2157,1,-427,-4650,23,-87,-37,35
711,2158,0,-426,-4650,23,-87,-38,35
712,2156,0,-427,-4649,23,-87,-38,35
713,2156,-1,-426,-4649,23,-87,-37,35
714,2156,0,-426,-4649,23,-87,-37,35
715,2157,0,-427,-4649,23,-87,-38,35
716,2157,0,-427,-4650,23,-87,-38,35
717,2157,0,-428,-4650,23,-87,-37,34
718,2157,0,-428,-4652,23,-87,-37,34
719,2157,1,-428,-4651,23,-87,-38,35
720,2157,0,-428,-4651,23,-87,-38,35
721,2157,1,-429,-4647,23,-87,-37,35
722,2157,0,-428,-4648,23,-87,-37,35
723,2157,-1,-428,-4647,23,-87,-37,35
724,2155,1,-428,-4647,23,-87,-38,35
725,2156,0,-428,-4648,23,-87,-37,35
726,2157,0,-429,-4650,23,-87,-37,35
727,2158,1,-429,-4649,23,-87,-38,35
728,2157,1,-429,-4649,23,-87,-38,35
729,2157,2,-429,-4648,23,-87,-39,35
730,2157,0,-429,-4648,23,-87,-38,35
731,2158,0,-428,-4650,23,-87,-38,35
732,2158,-1,-429,-4650,23,-86,-38,35
733,2158,0,-428,-4651,23,-86,-38,35
734,2157,0,-429,-4650,23,-86,-38,34
735,2157,0,-427,-4650,23,-87,-38,35
736,2159,1,-427,-4650,23,-86,-39,35
737,2159,-1,-428,-4650,23,-86,-39,35
738,2159,-1,-429,-4652,23,-86,-39,35
739,2160,-1,-430,-4652,23,-86,-39,35
740,2160,-1,-431,-4650,23,-87,-39,36
741,2159,-1,-430,-4648,23,-87,-38,36
742,2159,0,-429,-4650,23,-87,-39,35
743,2157,0,-428,-4650,23,-87,-39,35
744,2157,0,-428,-4650,23,-87,-39,35
745,2157,1,-429,-4648,23,-87,-39,35
746,2157,1,-429,-4649,23,-87,-38,35
747,2156,2,-429,-4649,23,-87,-38,34
748,2156,1,-428,-4649,23,-88,-38,35
749,2156,0,-428,-4649,23,-88,-38,34
750,2156,0,-428,-4647,23,-87,-38,35
751,2156,0,-429,-4649,23,-88,-38,35
752,2156,-1,-427,-4648,23,-87,-39,35
753,2157,-1,-428,-4648,23,-87,-39,34
754,2158,-1,-427,-4647,23,-87,-38,35
755,2158,-2,-427,-4647,23,-87,-38,35
756,2157,-1,-427,-4647,23,-87,-38,35
757,2157,-1,-425,-4646,23,-87,-38,35
758,2158,0,-424,-4646,23,-87,-38,35
759,2158,0,-425,-4648,23,-87,-38,35
760,2158,1,-424,-4649,23,-87,-39,34
761,2159,1,-425,-4651,23,-87,-38,34
762,2158,1,-429,-4651,23,-87,-38,34
763,2159,1,-430,-4652,23,-87,-38,34
764,2160,1,-430,-4652,23,-87,-39,34
765,2160,2,-430,-4651,23,-87,-38,34
766,2159,1,-428,-4651,23,-87,-38,34
767,2158,1,-428,-4652,23,-87,-38,34
768,2158,1,-428,-4651,23,-87,-38,34
769,2159,1,-428,-4651,23,-88,-38,34
770,2159,0,-427,-4651,23,-87,-38,34
771,2158,1,-427,-4651,23,-88,-38,34
772,2159,0,-428,-4649,23,-88,-38,34
773,2159,0,-427,-4648,23,-87,-38,35
774,2158,1,-426,-4648,23,-87,-39,34
775,2158,2,-429,-4648,23,-87,-39,34
776,2159,2,-428,-4648,23,-87,-39,34
777,2160,2,-429,-4649,23,-87,-39,35
778,2159,1,-428,-4648,23,-87,-39,34
779,2159,1,-428,-4650,23,-88,-38,35
780,2160,0,-428,-4649,23,-87,-39,35
781,2159,1,-429,-4649,23,-87,-38,35
782,2158,0,-430,-4650,23,-88,-38,34
783,2159,2,-431,-4650,23,-88,-39,34
784,2159,1,-428,-4649,23,-87,-38,34
785,2159,1,-429,-4650,23,-87,-38,34
786,2158,1,-429,-4651,23,-87,-38,35
787,2160,2,-430,-4651,23,-86,-38,35
788,2159,1,-429,-4650,23,-86,-38,34
789,2160,1,-431,-4650,23,-87,-38,34
790,2160,1,-431,-4648,23,-87,-39,34
791,2160,1,-431,-4647,23,-87,-39,34
792,2160,1,-429,-4647,23,-87,-39,34
793,2160,0,-430,-4647,23,-87,-39,34
794,2159,0,-428,-4647,23,-87,-38,35
795,2159,-1,-428,-4648,23,-87,-38,35
796,2159,-1,-428,-4649,23,-87,-38,35
797,2158,-1,-428,-4650,23,-87,-37,35
798,2158,0,-428,-4649,23,-87,-38,35
799,2158,1,-428,-4648,23,-87,-38,34
800,2158,1,-429,-4651,23,-87,-38,35
801,2158,1,-428,-4650,23,-87,-38,34
802,2157,1,-427,-4649,23,-88,-38,35
803,2157,0,-427,-4649,23,-87,-38,35
804,2158,1,-427,-4649,23,-88,-38,35
805,2158,1,-427,-4648,23,-88,-38,35
806,2157,1,-428,-4647,23,-87,-38,35
807,2158,1,-428,-4647,23,-87,-38,35
808,2157,2,-429,-4647,23,-87,-38,35
809,2157,1,-428,-4647,23,-88,-38,35
810,2157,1,-428,-4648,23,-87,-38,35
811,2156,2,-428,-4650,23,-87,-38,34
812,2157,2,-428,-4649,23,-86,-39,35
813,2158,1,-427,-4648,23,-87,-39,35
814,2159,2,-427,-4647,23,-87,-38,35
815,2159,1,-427,-4648,23,-87,-38,35
816,2157,2,-426,-4649,23,-87,-38,35
817,2157,2,-425,-4649,23,-87,-38,35
818,2157,1,-426,-4648,23,-87,-38,34
819,2157,1,-427,-4650,23,-87,-39,34
820,2158,1,-428,-4649,23,-87,-39,34
821,2158,1,-428,-4648,23,-87,-38,34
822,2157,1,-427,-4646,23,-88,-38,34
823,2158,0,-426,-4650,23,-88,-38,35
824,2159,0,-429,-4651,23,-88,-38,34
825,2158,0,-430,-4652,23,-88,-38,34
826,2159,0,-430,-4651,23,-88,-38,34
827,2159,0,-431,-4649,23,-87,-38,35
828,2159,0,-430,-4651,23,-88,-38,35
829,2158,0,-430,-4651,23,-88,-38,35
830,2158,-2,-429,-4652,23,-88,-39,35
831,2159,-1,-427,-4652,23,-88,-38,35
832,2159,-1,-428,-4654,23,-87,-38,35
833,2159,0,-428,-4652,23,-88,-38,36
834,2160,0,-428,-4650,23,-87,-38,35
835,2159,0,-428,-4651,23,-87,-38,35
836,2160,1,-428,-4651,23,-87,-39,35
837,2160,1,-428,-4652,23,-87,-39,35
838,2160,2,-429,-4649,23,-87,-39,34
839,2159,1,-429,-4650,23,-87,-39,34
840,2159,1,-427,-4650,23,-87,-39,34
841,2160,0,-427,-4651,23,-87,-39,34
842,2159,-1,-428,-4652,23,-87,-39,34
843,2160,0,-427,-4651,23,-87,-39,34
844,2161,-1,-429,-4651,23,-86,-39,35
845,2162,-1,-428,-4651,23,-87,-39,35
846,2162,-1,-429,-4652,23,-87,-39,35
847,2161,0,-427,-4652,23,-87,-39,35
848,2160,2,-428,-4652,23,-88,-39,35
849,2160,2,-427,-4651,23,-87,-39,35
850,2160,1,-426,-4652,23,-87,-38,34
851,2160,1,-425,-4651,23,-88,-38,34
852,2159,1,-426,-4652,23,-87,-38,34
853,2160,3,-427,-4652,23,-87,-38,34
854,2160,3,-426,-4654,23,-87,-38,34
855,2159,2,-426,-4655,23,-87,-38,34
856,2160,2,-427,-4653,23,-88,-37,34
857,2160,1,-427,-4651,23,-88,-37,34
858,2160,0,-426,-4653,23,-88,-37,34
859,2160,0,-429,-4652,23,-88,-37,34
860,2160,0,-430,-4655,23,-88,-37,34
861,2162,1,-430,-4654,23,-88,-37,34
862,2162,1,-429,-4651,23,-87,-38,34
863,2163,1,-427,-4652,23,-87,-38,35
864,2162,0,-427,-4654,23,-87,-38,34
865,2161,1,-426,-4656,23,-87,-38,35
866,2159,1,-425,-4655,23,-86,-38,34
867,2158,2,-426,-4654,23,-86,-39,34
868,2158,0,-425,-4654,23,-87,-38,34
869,2157,1,-424,-4654,23,-86,-39,34
870,2156,1,-425,-4654,23,-87,-38,34
871,2156,0,-427,-4654,23,-87,-38,35
872,2156,0,-426,-4653,23,-87,-37,35
873,2157,0,-425,-4651,23,-86,-37,35
874,2156,1,-426,-4651,23,-86,-37,34
875,2156,1,-425,-4651,23,-86,-37,34
876,2157,1,-426,-4651,23,-86,-38,35
877,2157,2,-426,-4652,23,-86,-38,35
878,2158,2,-426,-4652,23,-86,-38,35
879,2159,2,-426,-4651,23,-86,-38,35
880,2159,2,-426,-4651,23,-86,-38,35
881,2159,1,-426,-4651,23,-86,-39,35
882,2159,1,-425,-4650,23,-86,-38,34
883,2159,0,-424,-4650,23,-86,-38,34
884,2159,0,-424,-4650,23,-87,-38,34
885,2160,0,-424,-4651,23,-87,-38,34
886,2159,1,-425,-4650,23,-87,-38,34
887,2158,1,-425,-4650,23,-87,-38,35
888,2158,0,-428,-4649,23,-87,-38,34
889,2160,0,-428,-4652,23,-87,-38,34
890,2159,1,-429,-4654,23,-87,-38,35
891,2160,1,-428,-4652,23,-88,-38,35
892,2160,1,-427,-4651,23,-87,-38,35
893,2161,1,-425,-4652,23,-88,-38,35
894,2160,1,-426,-4651,23,-87,-38,35
895,2159,1,-427,-4650,23,-87,-38,35
896,2159,0,-428,-4650,23,-87,-38,35
897,2159,0,-428,-4649,23,-87,-39,35
898,2159,1,-429,-4651,23,-87,-39,34
899,2159,1,-428,-4652,23,-87,-39,35
900,2160,2,-426,-4651,23,-87,-38,34
901,2159,3,-427,-4652,23,-87,-38,34
902,2159,4,-428,-4652,23,-87,-38,34
903,2159,4,-428,-4652,23,-87,-38,34
904,2159,4,-428,-4652,23,-87,-37,34
905,2159,3,-428,-4650,23,-87,-38,35
906,2159,3,-427,-4650,23,-87,-37,35
907,2158,3,-427,-4649,23,-87,-37,34
908,2158,4,-427,-4648,23,-86,-37,34
909,2159,3,-427,-4649,23,-86,-37,35
910,2159,2,-427,-4649,23,-86,-37,35
911,2161,4,-427,-4649,23,-86,-37,35
912,2160,3,-428,-4650,23,-87,-37,35
913,2160,4,-429,-4650,23,-87,-37,36
914,2160,3,-430,-4649,23,-86,-37,35
915,2159,2,-430,-4649,23,-87,-38,35
916,2159,1,-430,-4650,23,-86,-38,35
917,2158,2,-429,-4649,23,-86,-38,35
918,2158,3,-431,-4649,23,-86,-39,35
919,2159,1,-429,-4648,23,-86,-38,35
920,2159,0,-428,-4649,23,-87,-38,35
921,2158,2,-429,-4647,23,-87,-39,35
922,2159,1,-429,-4648,23,-87,-39,35
923,2160,2,-430,-4649,23,-87,-38,35
924,2160,2,-430,-4651,23,-86,-39,35
925,2160,2,-429,-4651,23,-86,-38,34
926,2159,2,-429,-4651,23,-86,-38,34
927,2159,1,-430,-4652,23,-86,-38,35
928,2159,2,-431,-4651,23,-86,-38,35
929,2159,1,-432,-4650,23,-86,-38,34
930,2159,2,-430,-4649,23,-87,-39,35
931,2160,2,-429,-4648,23,-87,-38,34
932,2160,1,-429,-4650,23,-86,-38,34
933,2159,0,-429,-4651,23,-86,-38,34
934,2160,0,-429,-4651,23,-87,-38,34
935,2161,0,-428,-4650,23,-86,-38,35
936,2159,1,-429,-4652,23,-87,-39,35
937,2158,0,-428,-4651,23,-87,-39,35
938,2158,1,-428,-4650,23,-87,-38,35
939,2158,1,-427,-4650,23,-88,-38,35
940,2157,1,-427,-4651,23,-87,-38,35
941,2157,1,-429,-4651,23,-88,-38,35
942,2158,2,-431,-4650,23,-87,-38,35
943,2158,2,-430,-4649,23,-88,-39,35
944,2159,2,-428,-4649,23,-87,-39,34
945,2159,3,-429,-4650,23,-87,-38,35
946,2159,3,-427,-4648,23,-87,-37,34
947,2158,2,-428,-4648,23,-87,-38,34
948,2157,2,-427,-4649,23,-87,-38,34
949,2158,1,-427,-4650,23,-87,-38,34
950,2157,2,-428,-4650,23,-88,-38,35
951,2157,1,-429,-4650,23,-87,-38,35
952,2157,2,-427,-4650,23,-87,-38,35
953,2158,1,-425,-4650,23,-87,-38,35
954,2158,0,-424,-4649,23,-87,-38,35
955,2158,-2,-426,-4650,23,-88,-38,35
956,2159,-2,-426,-4648,23,-87,-38,35
957,2159,-2,-425,-4648,23,-88,-38,35
958,2159,-1,-425,-4648,23,-87,-38,34
959,2158,-1,-426,-4650,23,-87,-38,34
960,2158,0,-428,-4650,23,-88,-38,34
961,2159,0,-429,-4650,23,-87,-38,34
962,2159,1,-429,-4650,23,-87,-38,35
963,2159,1,-427,-4651,23,-87,-38,35
964,2159,2,-428,-4650,23,-87,-38,35
965,2159,1,-428,-4651,23,-87,-39,35
966,2158,1,-429,-4651,23,-87,-39,35
967,2157,0,-428,-4652,23,-87,-39,34
968,2158,-1,-428,-4651,23,-87,-39,34
969,2158,0,-429,-4652,23,-87,-38,34
970,2158,0,-429,-4652,23,-87,-37,35
971,2159,2,-429,-4652,23,-87,-38,35
972,2158,2,-429,-4651,23,-87,-37,35
973,2159,2,-428,-4650,23,-86,-38,35
974,2158,1,-428,-4650,23,-87,-38,35
975,2159,0,-428,-4651,23,-87,-38,35
976,2160,-1,-429,-4651,23,-87,-38,35
977,2160,0,-428,-4651,23,-87,-38,35
978,2159,2,-427,-4653,23,-87,-38,35
979,2159,2,-426,-4652,23,-87,-38,34
980,2159,2,-429,-4653,23,-87,-38,34
981,2159,1,-431,-4652,23,-87,-38,35
982,2160,0,-429,-4654,23,-87,-38,35
983,2160,2,-429,-4651,23,-86,-37,34
984,2160,2,-428,-4652,23,-87,-37,34
985,2159,2,-429,-4653,23,-87,-37,35
986,2159,3,-432,-4650,23,-87,-37,35
987,2159,3,-431,-4650,23,-87,-37,36
988,2160,2,-430,-4647,23,-87,-38,35
989,2159,2,-431,-4647,23,-87,-38,35
990,2158,2,-431,-4648,23,-87,-39,35
991,2158,2,-428,-4648,23,-87,-38,35
992,2157,2,-429,-4647,23,-87,-38,35
993,2157,2,-429,-4648,23,-87,-37,34
994,2158,2,-427,-4647,23,-87,-37,34
995,2159,1,-427,-4648,23,-87,-37,35
996,2160,2,-426,-4647,23,-87,-37,35
997,2161,2,-427,-4647,23,-87,-38,35
998,2161,1,-426,-4647,23,-87,-38,35
