,acc_X,acc_Y,acc_Z,temp,tempC,gyr_X,gyr_Y,gyr_Z
0,8634,29,-1720,-4698,23,-172,-73,72
1,8632,11,-1715,-4696,23,-172,-74,71
2,8627,0,-1697,-4693,23,-171,-75,69
3,8625,-5,-1717,-4692,23,-172,-73,70
4,8637,8,-1730,-4695,23,-176,-76,67
5,8642,3,-1735,-4696,23,-173,-76,67
6,8646,5,-1726,-4696,23,-173,-76,69
7,8640,14,-1695,-4695,23,-172,-74,70
8,8634,-12,-1715,-4693,23,-173,-77,68
9,8638,-8,-1722,-4697,23,-171,-77,70
10,8628,-7,-1731,-4698,23,-171,-74,71
11,8633,6,-1722,-4694,23,-169,-76,69
12,8634,3,-1740,-4693,23,-175,-74,69
13,8652,19,-1726,-4698,23,-175,-76,70
14,8633,15,-1736,-4693,23,-176,-76,70
15,8634,6,-1734,-4696,23,-173,-76,69
16,8633,-2,-1729,-4693,23,-173,-74,69
17,8647,10,-1737,-4693,23,-173,-73,67
18,8641,4,-1717,-4696,23,-172,-77,70
19,8642,5,-1714,-4699,23,-174,-76,66
20,8645,-7,-1713,-4694,23,-173,-80,69
21,8643,0,-1733,-4699,23,-173,-73,71
22,8633,19,-1704,-4697,23,-174,-72,70
23,8650,15,-1708,-4695,23,-173,-75,69
24,8636,11,-1717,-4697,23,-173,-73,70
25,8631,7,-1724,-4701,23,-175,-74,69
26,8644,16,-1710,-4694,23,-176,-75,69
27,8648,6,-1719,-4696,23,-175,-74,67
28,8636,6,-1744,-4697,23,-172,-76,70
29,8634,20,-1732,-4696,23,-172,-75,71
30,8640,5,-1700,-4694,23,-175,-76,73
31,8633,10,-1714,-4696,23,-172,-78,70
32,8626,7,-1722,-4699,23,-172,-75,71
33,8628,6,-1711,-4691,23,-171,-77,68
34,8628,3,-1734,-4693,23,-175,-73,71
35,8634,12,-1735,-4699,23,-173,-75,69
36,8634,-2,-1759,-4699,23,-175,-76,70
37,8633,4,-1728,-4695,23,-173,-74,67
38,8624,0,-1718,-4697,23,-171,-76,68
39,8633,3,-1714,-4697,23,-170,-80,68
40,8629,4,-1692,-4699,23,-172,-77,65
41,8625,6,-1714,-4701,23,-176,-77,70
42,8640,5,-1713,-4702,23,-173,-78,67
43,8649,13,-1712,-4698,23,-174,-75,68
44,8626,6,-1731,-4699,23,-175,-77,68
45,8631,19,-1724,-4697,23,-172,-77,67
46,8635,11,-1728,-4695,23,-173,-72,66
47,8628,8,-1711,-4698,23,-172,-78,67
48,8613,17,-1728,-4695,23,-175,-76,69
49,8627,1,-1723,-4696,23,-175,-81,69
50,8620,11,-1739,-4700,23,-173,-78,68
51,8637,13,-1720,-4697,23,-174,-79,67
52,8637,2,-1682,-4696,23,-174,-79,74
53,8628,-1,-1699,-4698,23,-173,-76,71
54,8636,-6,-1723,-4695,23,-172,-77,72
55,8636,-1,-1732,-4696,23,-172,-75,74
56,8626,-2,-1730,-4691,23,-172,-75,71
57,8638,0,-1703,-4694,23,-172,-74,72
58,8632,6,-1696,-4695,23,-174,-73,73
59,8629,2,-1695,-4696,23,-177,-77,69
60,8632,2,-1724,-4698,23,-174,-78,69
61,8642,7,-1700,-4693,23,-172,-78,65
62,8628,10,-1729,-4698,23,-172,-76,67
63,8648,11,-1712,-4699,23,-174,-77,67
64,8631,10,-1718,-4699,23,-175,-76,72
65,8626,17,-1733,-4696,23,-172,-77,70
66,8627,15,-1729,-4696,23,-170,-79,75
67,8630,-2,-1700,-4693,23,-173,-74,71
68,8640,-3,-1704,-4694,23,-174,-74,69
69,8643,-9,-1732,-4697,23,-172,-74,68
70,8655,2,-1705,-4691,23,-174,-76,67
71,8633,2,-1726,-4691,23,-173,-77,73
72,8622,0,-1718,-4693,23,-176,-75,69
73,8621,2,-1735,-4698,23,-174,-76,70
74,8623,9,-1727,-4702,23,-177,-73,70
75,8651,-1,-1721,-4698,23,-174,-73,65
76,8644,-4,-1703,-4699,23,-174,-73,67
77,8627,2,-1707,-4700,23,-172,-72,69
78,8630,-2,-1726,-4699,23,-170,-75,71
79,8618,3,-1733,-4694,23,-176,-73,69
80,8619,20,-1706,-4698,23,-172,-74,66
81,8625,16,-1721,-4697,23,-171,-79,69
82,8621,12,-1728,-4700,23,-171,-78,67
83,8621,20,-1718,-4697,23,-172,-77,70
84,8635,24,-1728,-4695,23,-173,-75,71
85,8634,1,-1729,-4695,23,-177,-78,71
86,8632,-7,-1715,-4692,23,-173,-76,68
87,8645,-4,-1716,-4689,23,-173,-74,69
88,8632,12,-1719,-4692,23,-174,-78,68
89,8630,10,-1735,-4690,23,-173,-77,70
90,8633,5,-1725,-4694,23,-170,-75,71
91,8634,9,-1736,-4692,23,-173,-72,72
92,8630,10,-1721,-4690,23,-173,-72,71
93,8628,21,-1721,-4697,23,-175,-78,71
94,8625,12,-1713,-4699,23,-174,-79,71
95,8636,6,-1700,-4692,23,-169,-79,68
96,8626,-2,-1715,-4688,23,-174,-74,70
97,8636,-9,-1728,-4687,23,-172,-74,67
98,8639,11,-1722,-4691,23,-174,-75,70
99,8638,5,-1732,-4692,23,-174,-75,70
100,8635,5,-1718,-4692,23,-173,-76,65
101,8638,-3,-1706,-4692,23,-170,-79,67
102,8633,-6,-1711,-4688,23,-174,-75,68
103,8639,3,-1715,-4691,23,-173,-76,66
104,8645,-1,-1709,-4692,23,-174,-73,67
105,8646,0,-1725,-4694,23,-174,-78,71
106,8646,-2,-1709,-4689,23,-177,-78,72
107,8641,-4,-1725,-4694,23,-174,-75,71
108,8628,10,-1699,-4695,23,-171,-75,68
109,8637,14,-1706,-4694,23,-171,-74,70
110,8648,5,-1729,-4694,23,-174,-73,71
111,8643,24,-1729,-4694,23,-173,-76,68
112,8630,3,-1741,-4697,23,-175,-80,67
113,8627,7,-1743,-4693,23,-176,-81,70
114,8635,6,-1728,-4689,23,-175,-75,69
115,8636,-2,-1692,-4692,23,-174,-76,70
116,8640,5,-1725,-4692,23,-174,-74,69
117,8636,-2,-1701,-4693,23,-171,-73,73
118,8637,6,-1725,-4697,23,-174,-76,71
119,8629,17,-1725,-4695,23,-172,-79,73
120,8633,-2,-1730,-4695,23,-174,-78,70
121,8630,5,-1727,-4698,23,-174,-75,69
122,8642,16,-1709,-4691,23,-177,-73,67
123,8651,9,-1708,-4696,23,-176,-70,68
124,8644,21,-1701,-4691,23,-175,-75,67
125,8642,15,-1726,-4691,23,-176,-77,68
126,8648,20,-1717,-4697,23,-175,-75,68
127,8651,4,-1717,-4693,23,-170,-80,70
128,8637,2,-1743,-4694,23,-173,-76,70
129,8651,3,-1722,-4692,23,-171,-76,68
130,8634,11,-1723,-4691,23,-171,-75,69
131,8640,30,-1716,-4691,23,-174,-72,67
132,8622,17,-1718,-4686,23,-172,-71,66
133,8631,24,-1705,-4690,23,-176,-70,70
134,8625,29,-1710,-4692,23,-173,-74,69
135,8622,30,-1712,-4692,23,-173,-76,73
136,8630,19,-1719,-4690,23,-178,-74,69
137,8625,15,-1704,-4690,23,-173,-73,68
138,8633,3,-1694,-4689,23,-172,-75,70
139,8641,-3,-1713,-4696,23,-172,-73,68
140,8618,15,-1707,-4689,23,-172,-73,66
141,8628,14,-1722,-4692,23,-171,-74,66
142,8635,18,-1710,-4694,23,-172,-74,68
143,8638,7,-1686,-4691,23,-171,-73,72
144,8628,8,-1687,-4695,23,-172,-77,68
145,8633,7,-1706,-4696,23,-173,-76,66
146,8644,8,-1712,-4695,23,-174,-74,64
147,8633,12,-1720,-4694,23,-173,-74,66
148,8644,10,-1710,-4691,23,-173,-74,67
149,8629,19,-1729,-4688,23,-172,-73,72
150,8640,12,-1717,-4689,23,-172,-74,73
151,8630,8,-1705,-4694,23,-171,-80,69
152,8636,39,-1691,-4690,23,-171,-74,70
153,8637,19,-1714,-4688,23,-173,-77,69
154,8630,18,-1726,-4697,23,-176,-77,69
155,8635,8,-1729,-4694,23,-175,-76,69
156,8633,-2,-1728,-4690,23,-177,-76,66
157,8637,1,-1750,-4692,23,-172,-77,67
158,8631,3,-1729,-4695,23,-172,-77,67
159,8632,16,-1697,-4695,23,-172,-78,68
160,8635,20,-1680,-4693,23,-172,-76,70
161,8636,12,-1689,-4691,23,-170,-78,71
162,8637,1,-1695,-4694,23,-170,-75,73
163,8641,-5,-1719,-4689,23,-174,-75,70
164,8641,0,-1723,-4689,23,-175,-78,70
165,8639,1,-1727,-4691,23,-175,-77,70
166,8635,0,-1728,-4696,23,-174,-79,68
167,8646,11,-1720,-4698,23,-177,-76,68
168,8636,14,-1734,-4696,23,-175,-75,68
169,8637,6,-1713,-4696,23,-172,-75,70
170,8633,13,-1717,-4687,23,-174,-74,70
171,8646,13,-1729,-4692,23,-174,-76,69
172,8643,8,-1708,-4688,23,-174,-75,74
173,8628,-5,-1708,-4691,23,-172,-81,69
174,8626,-5,-1718,-4693,23,-172,-79,74
175,8640,2,-1708,-4695,23,-173,-77,70
176,8622,6,-1715,-4694,23,-173,-79,70
177,8616,-3,-1714,-4690,23,-174,-76,69
178,8635,-1,-1702,-4695,23,-176,-77,67
179,8649,2,-1728,-4697,23,-175,-75,69
180,8647,11,-1696,-4693,23,-172,-75,71
181,8632,9,-1691,-4694,23,-171,-76,71
182,8620,8,-1705,-4689,23,-174,-73,69
183,8641,-10,-1711,-4696,23,-173,-75,70
184,8643,-2,-1718,-4692,23,-175,-75,69
185,8640,-11,-1722,-4695,23,-172,-77,70
186,8628,16,-1698,-4694,23,-174,-78,71
187,8637,6,-1708,-4693,23,-173,-78,68
188,8642,0,-1701,-4695,23,-173,-75,71
189,8645,21,-1707,-4689,23,-174,-76,72
190,8632,13,-1723,-4691,23,-174,-77,69
191,8629,6,-1744,-4694,23,-176,-76,67
192,8630,3,-1744,-4692,23,-173,-77,69
193,8629,3,-1739,-4693,23,-175,-72,68
194,8630,24,-1704,-4693,23,-173,-77,69
195,8628,22,-1717,-4693,23,-171,-80,67
196,8649,17,-1746,-4694,23,-173,-79,68
197,8642,7,-1738,-4690,23,-176,-79,69
198,8626,10,-1729,-4684,23,-172,-77,69
199,8630,-6,-1717,-4691,23,-172,-76,71
200,8628,4,-1715,-4690,23,-173,-72,72
201,8631,5,-1718,-4693,23,-172,-77,69
202,8641,-3,-1719,-4693,23,-172,-73,69
203,8651,12,-1716,-4691,23,-174,-71,69
204,8630,10,-1725,-4694,23,-176,-73,68
205,8626,21,-1708,-4695,23,-174,-73,70
206,8628,28,-1697,-4689,23,-172,-72,67
207,8636,16,-1706,-4685,23,-174,-72,69
208,8621,15,-1728,-4685,23,-174,-74,69
209,8636,15,-1728,-4692,23,-177,-76,69
210,8630,10,-1734,-4692,23,-175,-75,70
211,8629,4,-1731,-4690,23,-174,-76,71
212,8620,10,-1715,-4690,23,-174,-73,69
213,8630,14,-1736,-4691,23,-172,-73,71
214,8652,2,-1714,-4691,23,-172,-73,71
215,8642,12,-1716,-4690,23,-175,-74,72
216,8645,15,-1728,-4693,23,-172,-73,67
217,8631,-3,-1727,-4694,23,-171,-74,70
218,8623,-2,-1698,-4691,23,-170,-73,73
219,8635,3,-1728,-4692,23,-171,-79,72
220,8651,-5,-1729,-4684,23,-172,-75,71
221,8651,-3,-1719,-4690,23,-173,-78,69
222,8637,-8,-1714,-4689,23,-169,-77,68
223,8635,11,-1710,-4692,23,-170,-80,70
224,8628,10,-1714,-4691,23,-173,-73,70
225,8620,-9,-1735,-4693,23,-173,-76,67
226,8621,16,-1719,-4692,23,-175,-77,73
227,8617,-3,-1698,-4694,23,-174,-77,71
228,8631,2,-1730,-4695,23,-173,-77,73
229,8638,4,-1722,-4697,23,-173,-79,71
230,8631,18,-1697,-4690,23,-174,-77,69
231,8634,8,-1707,-4688,23,-176,-78,71
232,8626,12,-1725,-4690,23,-175,-79,68
233,8632,8,-1731,-4695,23,-172,-77,69
234,8634,13,-1725,-4697,23,-174,-73,72
235,8631,17,-1737,-4693,23,-172,-74,72
236,8629,10,-1712,-4697,23,-174,-74,72
237,8639,8,-1712,-4694,23,-172,-75,69
238,8630,-7,-1716,-4694,23,-171,-74,73
239,8636,-2,-1715,-4694,23,-169,-78,70
240,8635,8,-1703,-4685,23,-174,-75,70
241,8628,22,-1690,-4686,23,-173,-77,71
242,8643,-2,-1711,-4686,23,-173,-78,67
243,8641,23,-1721,-4683,23,-174,-74,69
244,8639,15,-1707,-4688,23,-174,-77,68
245,8640,16,-1734,-4693,23,-174,-76,69
246,8638,-14,-1722,-4693,23,-172,-75,69
247,8654,-20,-1711,-4690,23,-173,-77,70
248,8648,2,-1698,-4691,23,-171,-75,69
249,8640,17,-1702,-4689,23,-172,-74,68
250,8644,4,-1711,-4687,23,-170,-75,70
251,8628,-4,-1710,-4686,23,-172,-77,71
252,8644,18,-1712,-4691,23,-171,-77,67
253,8626,2,-1704,-4689,23,-171,-76,64
254,8629,5,-1724,-4693,23,-174,-75,69
255,8640,-1,-1710,-4693,23,-171,-76,69
256,8637,4,-1696,-4692,23,-171,-76,69
257,8639,18,-1738,-4690,23,-172,-74,68
258,8625,-2,-1706,-4689,23,-169,-77,69
259,8636,8,-1705,-4685,23,-174,-77,70
260,8640,-3,-1710,-4687,23,-177,-72,72
261,8646,-1,-1697,-4684,23,-173,-72,66
262,8639,0,-1711,-4689,23,-171,-72,68
263,8634,-15,-1714,-4692,23,-172,-73,68
264,8630,-2,-1726,-4688,23,-174,-76,70
265,8638,7,-1737,-4693,23,-172,-75,71
266,8646,5,-1714,-4698,23,-176,-76,70
267,8638,-7,-1713,-4691,23,-174,-75,68
268,8632,18,-1706,-4691,23,-176,-75,66
269,8638,1,-1691,-4692,23,-174,-73,69
270,8634,0,-1702,-4697,23,-172,-74,69
271,8640,13,-1708,-4697,23,-176,-75,69
272,8638,8,-1719,-4690,23,-176,-74,67
273,8647,2,-1699,-4686,23,-175,-79,69
274,8637,5,-1696,-4690,23,-173,-76,69
275,8646,1,-1717,-4691,23,-172,-75,71
276,8652,-7,-1716,-4688,23,-172,-75,70
277,8651,0,-1716,-4684,23,-171,-75,67
278,8633,7,-1712,-4685,23,-171,-77,71
279,8634,3,-1701,-4687,23,-174,-75,66
280,8637,7,-1701,-4690,23,-174,-74,70
281,8638,8,-1712,-4695,23,-173,-76,69
282,8648,5,-1698,-4692,23,-175,-73,65
283,8631,6,-1703,-4694,23,-174,-77,67
284,8632,2,-1718,-4690,23,-174,-76,68
285,8626,-5,-1727,-4683,23,-168,-78,68
286,8632,-6,-1706,-4683,23,-172,-75,71
287,8629,-4,-1700,-4686,23,-177,-77,70
288,8630,-5,-1703,-4687,23,-169,-78,69
289,8632,3,-1703,-4690,23,-174,-77,68
290,8623,8,-1707,-4691,23,-173,-76,67
291,8628,-6,-1730,-4691,23,-173,-74,65
292,8636,-1,-1734,-4689,23,-172,-79,65
293,8649,14,-1721,-4684,23,-169,-80,70
294,8657,2,-1728,-4685,23,-168,-79,71
295,8644,5,-1726,-4692,23,-171,-76,71
296,8632,16,-1722,-4692,23,-171,-75,71
297,8631,4,-1737,-4689,23,-171,-73,72
298,8641,-13,-1725,-4686,23,-172,-76,68
299,8625,-14,-1720,-4691,23,-172,-73,65
300,8632,-11,-1700,-4687,23,-173,-77,67
301,8649,-3,-1710,-4685,23,-174,-75,70
302,8627,-4,-1705,-4693,23,-171,-72,68
303,8642,1,-1734,-4686,23,-172,-73,64
304,8642,10,-1716,-4686,23,-170,-76,68
305,8651,14,-1723,-4690,23,-175,-77,69
306,8647,9,-1734,-4691,23,-173,-74,71
307,8633,3,-1730,-4686,23,-170,-79,68
308,8625,10,-1724,-4693,23,-172,-74,67
309,8629,9,-1725,-4689,23,-174,-78,70
310,8644,0,-1707,-4692,23,-172,-79,68
311,8636,2,-1713,-4687,23,-171,-77,68
312,8641,24,-1731,-4693,23,-173,-76,67
313,8632,-2,-1724,-4691,23,-172,-77,68
314,8630,1,-1721,-4685,23,-171,-75,68
315,8631,1,-1702,-4690,23,-174,-76,69
316,8644,-3,-1718,-4688,23,-173,-78,66
317,8632,6,-1722,-4687,23,-172,-76,70
318,8635,13,-1715,-4689,23,-172,-78,73
319,8638,3,-1718,-4689,23,-170,-70,76
320,8642,-1,-1749,-4687,23,-171,-73,69
321,8625,1,-1734,-4689,23,-173,-72,70
322,8635,9,-1726,-4689,23,-173,-73,68
323,8634,12,-1711,-4688,23,-173,-74,68
324,8641,13,-1714,-4685,23,-176,-74,67
325,8634,3,-1705,-4687,23,-173,-73,66
326,8633,5,-1722,-4689,23,-171,-76,70
327,8627,9,-1724,-4692,23,-175,-76,70
328,8625,6,-1715,-4688,23,-174,-76,68
329,8632,5,-1709,-4689,23,-177,-74,68
330,8634,10,-1707,-4687,23,-174,-78,66
331,8634,9,-1726,-4691,23,-172,-75,68
332,8629,6,-1723,-4687,23,-173,-77,68
333,8636,2,-1734,-4690,23,-174,-78,67
334,8620,1,-1711,-4686,23,-170,-78,69
335,8613,6,-1726,-4688,23,-175,-77,70
336,8618,0,-1711,-4688,23,-174,-76,73
337,8622,-9,-1716,-4687,23,-173,-77,71
338,8633,-1,-1709,-4687,23,-173,-79,70
339,8631,19,-1723,-4683,23,-172,-79,68
340,8642,16,-1728,-4685,23,-172,-74,69
341,8639,3,-1723,-4685,23,-174,-74,70
342,8630,12,-1739,-4686,23,-174,-74,69
343,8630,8,-1753,-4694,23,-175,-76,69
344,8628,-1,-1730,-4696,23,-173,-77,71
345,8624,12,-1711,-4694,23,-173,-75,71
346,8622,14,-1724,-4694,23,-170,-78,71
347,8643,18,-1716,-4687,23,-172,-72,73
348,8647,8,-1725,-4690,23,-175,-73,67
349,8639,17,-1707,-4687,23,-174,-76,69
350,8633,2,-1713,-4687,23,-174,-75,67
351,8621,18,-1692,-4687,23,-171,-72,69
352,8643,9,-1696,-4688,23,-172,-77,70
353,8632,34,-1707,-4688,23,-173,-71,70
354,8626,31,-1720,-4686,23,-172,-74,71
355,8647,15,-1745,-4690,23,-170,-70,68
356,8633,4,-1729,-4692,23,-174,-73,67
357,8624,17,-1710,-4688,23,-174,-75,68
358,8627,6,-1726,-4692,23,-174,-78,66
359,8624,3,-1737,-4686,23,-173,-76,67
360,8623,23,-1734,-4688,23,-175,-79,71
361,8642,23,-1727,-4688,23,-170,-78,69
362,8632,14,-1738,-4685,23,-175,-76,66
363,8641,17,-1735,-4685,23,-174,-76,67
364,8645,4,-1723,-4684,23,-173,-73,67
365,8652,20,-1717,-4683,23,-173,-74,70
366,8628,12,-1731,-4684,23,-173,-79,67
367,8644,13,-1729,-4686,23,-174,-80,71
368,8643,17,-1741,-4684,23,-175,-77,69
369,8645,19,-1711,-4685,23,-174,-75,69
370,8639,8,-1722,-4693,23,-173,-75,71
371,8635,28,-1717,-4694,23,-174,-79,72
372,8622,11,-1729,-4688,23,-173,-77,70
373,8625,6,-1710,-4689,23,-170,-74,70
374,8632,0,-1717,-4688,23,-173,-76,70
375,8640,1,-1732,-4687,23,-170,-75,71
376,8632,-7,-1704,-4691,23,-170,-76,69
377,8631,16,-1730,-4685,23,-173,-78,73
378,8624,15,-1712,-4688,23,-173,-78,70
379,8627,8,-1746,-4684,23,-173,-76,65
380,8629,3,-1729,-4687,23,-172,-73,67
381,8620,14,-1748,-4697,23,-173,-75,71
382,8616,18,-1728,-4694,23,-172,-73,71
383,8635,3,-1725,-4694,23,-170,-74,69
384,8629,-3,-1713,-4690,23,-175,-74,68
385,8632,-15,-1729,-4682,23,-175,-77,68
386,8643,3,-1713,-4683,23,-176,-75,68
387,8634,19,-1718,-4686,23,-173,-73,71
388,8622,8,-1707,-4689,23,-177,-77,69
389,8626,7,-1719,-4691,23,-175,-76,71
390,8620,21,-1711,-4685,23,-172,-74,71
391,8635,33,-1720,-4687,23,-171,-76,71
392,8634,12,-1725,-4682,23,-173,-77,70
393,8629,3,-1721,-4684,23,-174,-73,72
394,8640,17,-1714,-4683,23,-175,-78,69
395,8642,12,-1719,-4682,23,-173,-76,71
396,8634,0,-1715,-4684,23,-172,-72,68
397,8624,15,-1720,-4683,23,-174,-75,67
398,8628,9,-1712,-4693,23,-170,-73,69
399,8634,1,-1736,-4691,23,-172,-75,71
400,8616,21,-1720,-4685,23,-173,-74,71
401,8635,10,-1721,-4685,23,-175,-74,70
402,8629,10,-1710,-4682,23,-174,-74,67
403,8631,9,-1718,-4682,23,-173,-74,68
404,8645,6,-1707,-4681,23,-173,-77,71
405,8629,11,-1713,-4682,23,-174,-75,69
406,8638,6,-1735,-4686,23,-177,-80,68
407,8635,6,-1755,-4688,23,-176,-78,72
408,8635,12,-1749,-4686,23,-171,-76,69
409,8632,6,-1737,-4687,23,-171,-73,67
410,8645,1,-1745,-4684,23,-171,-73,69
411,8631,18,-1715,-4689,23,-170,-75,68
412,8625,3,-1706,-4690,23,-171,-77,68
413,8641,1,-1714,-4692,23,-171,-78,69
414,8652,3,-1707,-4687,23,-171,-78,69
415,8638,1,-1708,-4690,23,-169,-74,69
416,8644,-8,-1718,-4682,23,-173,-73,71
417,8646,7,-1717,-4683,23,-172,-75,69
418,8633,16,-1715,-4684,23,-174,-76,71
419,8623,16,-1718,-4688,23,-172,-76,69
420,8625,11,-1723,-4686,23,-176,-73,70
421,8641,2,-1711,-4682,23,-172,-74,71
422,8641,-2,-1718,-4686,23,-173,-74,69
423,8635,13,-1723,-4685,23,-171,-70,71
424,8628,17,-1717,-4690,23,-173,-72,67
425,8635,-4,-1729,-4691,23,-176,-72,66
426,8625,11,-1729,-4682,23,-173,-76,66
427,8630,-18,-1735,-4682,23,-174,-80,67
428,8629,-8,-1714,-4684,23,-170,-78,69
429,8629,1,-1725,-4683,23,-173,-76,69
430,8628,-2,-1733,-4682,23,-176,-74,66
431,8620,20,-1734,-4684,23,-170,-76,69
432,8632,16,-1705,-4688,23,-175,-77,70
433,8635,2,-1702,-4691,23,-176,-76,66
434,8642,11,-1704,-4692,23,-172,-71,70
435,8634,-4,-1721,-4685,23,-172,-75,73
436,8628,-3,-1708,-4685,23,-171,-76,68
437,8621,3,-1713,-4683,23,-174,-76,70
438,8628,6,-1704,-4687,23,-172,-73,72
439,8623,21,-1716,-4684,23,-173,-71,68
440,8633,14,-1723,-4688,23,-172,-75,72
441,8648,13,-1726,-4687,23,-173,-77,70
442,8634,18,-1700,-4688,23,-173,-75,66
443,8632,14,-1692,-4691,23,-172,-75,71
444,8632,1,-1730,-4689,23,-173,-78,72
445,8626,3,-1714,-4687,23,-174,-73,69
446,8635,6,-1711,-4684,23,-173,-73,71
447,8632,8,-1722,-4686,23,-172,-74,69
448,8639,11,-1706,-4685,23,-173,-75,67
449,8632,10,-1701,-4685,23,-173,-76,65
450,8616,17,-1711,-4686,23,-175,-75,67
451,8621,6,-1712,-4689,23,-175,-75,68
452,8616,-2,-1694,-4690,23,-174,-74,69
453,8613,6,-1710,-4693,23,-177,-75,69
454,8630,21,-1703,-4686,23,-173,-74,69
455,8638,-2,-1702,-4683,23,-172,-74,66
456,8637,-2,-1712,-4688,23,-173,-74,70
457,8643,5,-1723,-4692,23,-168,-73,69
458,8647,22,-1737,-4686,23,-173,-71,70
459,8634,18,-1704,-4685,23,-175,-73,71
460,8637,18,-1732,-4687,23,-174,-74,69
461,8637,9,-1732,-4692,23,-173,-78,72
462,8632,11,-1720,-4686,23,-171,-73,70
463,8655,3,-1723,-4690,23,-171,-76,69
464,8659,6,-1723,-4689,23,-174,-75,69
465,8641,3,-1729,-4690,23,-176,-77,69
466,8624,8,-1732,-4686,23,-175,-76,71
467,8640,9,-1718,-4685,23,-173,-76,71
468,8628,12,-1717,-4685,23,-178,-77,70
469,8628,22,-1735,-4683,23,-175,-76,70
470,8632,14,-1736,-4680,23,-174,-74,67
471,8628,6,-1702,-4686,23,-174,-75,66
472,8627,3,-1718,-4687,23,-172,-72,68
473,8637,4,-1717,-4685,23,-172,-75,67
474,8651,19,-1717,-4687,23,-174,-74,70
475,8648,5,-1731,-4685,23,-172,-76,69
476,8635,-2,-1745,-4682,23,-175,-78,67
477,8642,15,-1754,-4686,23,-175,-77,68
478,8641,0,-1715,-4686,23,-172,-75,69
479,8652,7,-1723,-4682,23,-173,-72,70
480,8650,12,-1736,-4680,23,-169,-78,70
481,8642,15,-1722,-4688,23,-172,-78,70
482,8657,3,-1718,-4681,23,-171,-75,66
483,8636,5,-1714,-4687,23,-173,-74,70
484,8648,4,-1729,-4691,23,-172,-78,72
485,8635,8,-1705,-4683,23,-177,-77,69
486,8647,3,-1704,-4682,23,-176,-79,70
487,8652,7,-1723,-4680,23,-175,-73,72
488,8645,3,-1717,-4684,23,-172,-79,72
489,8640,3,-1722,-4686,23,-175,-77,71
490,8633,10,-1726,-4693,23,-170,-75,70
491,8636,6,-1734,-4685,23,-172,-77,68
492,8635,5,-1745,-4684,23,-171,-72,70
493,8651,6,-1735,-4688,23,-172,-74,70
494,8644,7,-1721,-4688,23,-176,-73,70
495,8635,13,-1724,-4685,23,-175,-76,70
496,8634,5,-1713,-4685,23,-175,-73,71
497,8635,7,-1702,-4688,23,-176,-73,69
498,8635,23,-1688,-4688,23,-171,-73,71
499,8643,15,-1721,-4685,23,-173,-73,69
500,8632,-7,-1705,-4685,23,-172,-73,69
501,8639,8,-1699,-4688,23,-173,-75,68
502,8619,4,-1713,-4691,23,-172,-77,68
503,8631,18,-1706,-4689,23,-171,-79,69
504,8642,4,-1709,-4692,23,-170,-78,69
505,8648,5,-1714,-4689,23,-172,-77,72
506,8651,16,-1707,-4689,23,-166,-75,73
507,8636,-3,-1732,-4689,23,-168,-76,67
508,8629,-6,-1718,-4689,23,-170,-73,69
509,8626,-8,-1696,-4689,23,-168,-74,70
510,8638,-6,-1711,-4682,23,-172,-73,68
511,8627,6,-1707,-4683,23,-176,-73,69
512,8639,7,-1711,-4684,23,-174,-70,73
513,8644,11,-1721,-4686,23,-177,-73,70
514,8636,3,-1725,-4686,23,-175,-74,70
515,8627,11,-1708,-4690,23,-173,-76,70
516,8632,14,-1700,-4694,23,-173,-74,68
517,8635,9,-1722,-4686,23,-173,-76,71
518,8638,4,-1739,-4682,23,-171,-75,69
519,8632,3,-1744,-4688,23,-173,-81,69
520,8644,16,-1752,-4682,23,-171,-76,67
521,8636,32,-1710,-4685,23,-174,-77,68
522,8628,18,-1732,-4689,23,-172,-75,71
523,8645,4,-1705,-4690,23,-171,-74,72
524,8644,6,-1704,-4689,23,-175,-69,70
525,8626,11,-1692,-4683,23,-173,-73,71
526,8652,14,-1706,-4683,23,-175,-76,71
527,8643,9,-1714,-4685,23,-174,-74,71
528,8635,3,-1705,-4683,23,-176,-76,71
529,8648,-4,-1710,-4683,23,-174,-76,72
530,8652,3,-1710,-4687,23,-176,-75,70
531,8654,12,-1722,-4690,23,-174,-74,71
532,8647,2,-1730,-4692,23,-170,-75,71
533,8628,3,-1743,-4690,23,-174,-77,71
534,8635,6,-1724,-4685,23,-175,-77,69
535,8640,2,-1738,-4693,23,-175,-71,68
536,8640,4,-1731,-4694,23,-173,-72,70
537,8625,-2,-1723,-4689,23,-174,-75,73
538,8630,3,-1730,-4688,23,-169,-77,73
539,8636,2,-1721,-4691,23,-172,-74,69
540,8626,17,-1723,-4689,23,-173,-78,68
541,8627,26,-1708,-4684,23,-173,-75,68
542,8622,30,-1714,-4686,23,-173,-75,69
543,8642,18,-1693,-4685,23,-171,-77,69
544,8639,22,-1719,-4686,23,-171,-76,71
545,8640,18,-1729,-4691,23,-173,-74,68
546,8634,39,-1734,-4690,23,-173,-76,67
547,8656,22,-1722,-4687,23,-174,-75,72
548,8644,13,-1724,-4681,23,-174,-76,69
549,8649,8,-1729,-4681,23,-176,-77,68
550,8640,7,-1738,-4689,23,-172,-75,71
551,8630,2,-1718,-4682,23,-172,-74,71
552,8637,14,-1696,-4680,23,-172,-76,71
553,8641,16,-1718,-4686,23,-173,-78,71
554,8629,2,-1702,-4681,23,-174,-77,70
555,8645,13,-1715,-4679,23,-172,-76,70
556,8633,10,-1731,-4679,23,-171,-79,69
557,8629,8,-1716,-4685,23,-174,-74,69
558,8639,3,-1710,-4682,23,-174,-76,67
559,8636,-7,-1709,-4683,23,-171,-74,69
560,8633,-9,-1701,-4684,23,-170,-78,69
561,8638,4,-1713,-4683,23,-171,-78,70
562,8635,14,-1746,-4688,23,-175,-79,69
563,8635,8,-1741,-4687,23,-180,-77,68
564,8630,10,-1718,-4687,23,-175,-77,68
565,8634,11,-1715,-4684,23,-172,-78,70
566,8637,13,-1726,-4686,23,-172,-77,69
567,8634,3,-1708,-4684,23,-173,-73,71
568,8627,-11,-1722,-4684,23,-172,-72,71
569,8631,1,-1712,-4688,23,-173,-74,66
570,8646,20,-1703,-4687,23,-174,-69,68
571,8645,2,-1734,-4684,23,-173,-74,68
572,8641,14,-1720,-4688,23,-172,-76,69
573,8641,8,-1720,-4682,23,-169,-74,66
574,8624,-7,-1703,-4681,23,-171,-75,70
575,8624,8,-1717,-4680,23,-169,-77,70
576,8636,6,-1722,-4684,23,-169,-79,73
577,8641,14,-1735,-4680,23,-170,-78,71
578,8632,15,-1724,-4683,23,-174,-78,71
579,8633,26,-1702,-4684,23,-170,-79,70
580,8639,14,-1725,-4689,23,-174,-78,73
581,8631,10,-1715,-4692,23,-175,-74,69
582,8632,15,-1707,-4688,23,-171,-75,69
583,8626,27,-1689,-4689,23,-174,-73,70
584,8633,26,-1713,-4683,23,-174,-74,68
585,8636,10,-1708,-4684,23,-174,-76,69
586,8639,5,-1743,-4681,23,-174,-75,68
587,8632,11,-1737,-4688,23,-173,-76,71
588,8627,7,-1722,-4684,23,-170,-73,69
589,8626,5,-1719,-4686,23,-168,-75,69
590,8629,19,-1730,-4689,23,-171,-76,69
591,8639,10,-1710,-4685,23,-170,-74,70
592,8637,16,-1722,-4683,23,-170,-72,73
593,8621,15,-1701,-4684,23,-171,-75,70
594,8615,5,-1714,-4688,23,-175,-77,72
595,8623,-10,-1704,-4687,23,-174,-78,70
596,8643,-1,-1741,-4684,23,-177,-80,70
597,8642,-2,-1739,-4678,23,-177,-78,70
598,8639,-2,-1717,-4680,23,-176,-74,69
599,8623,-7,-1726,-4680,23,-170,-79,66
600,8620,5,-1728,-4685,23,-169,-74,66
601,8619,8,-1702,-4682,23,-172,-74,71
602,8629,10,-1696,-4678,23,-175,-75,71
603,8632,7,-1728,-4684,23,-173,-74,71
604,8635,11,-1728,-4688,23,-176,-73,72
605,8636,6,-1708,-4685,23,-172,-73,69
606,8636,10,-1721,-4684,23,-172,-72,70
607,8625,9,-1704,-4683,23,-172,-76,73
608,8622,6,-1715,-4681,23,-177,-74,72
609,8633,-7,-1719,-4683,23,-175,-76,71
610,8642,5,-1711,-4683,23,-176,-75,67
611,8643,3,-1744,-4687,23,-173,-74,69
612,8646,0,-1722,-4687,23,-173,-76,70
613,8650,-5,-1730,-4681,23,-173,-76,67
614,8637,-6,-1737,-4685,23,-175,-75,69
615,8624,9,-1751,-4688,23,-175,-78,69
616,8639,2,-1738,-4688,23,-173,-74,72
617,8628,12,-1730,-4682,23,-175,-75,71
618,8614,13,-1711,-4682,23,-175,-76,69
619,8643,10,-1731,-4683,23,-173,-76,74
620,8639,2,-1731,-4684,23,-175,-78,72
621,8645,12,-1723,-4682,23,-173,-77,71
622,8646,0,-1725,-4682,23,-176,-78,70
623,8634,-3,-1715,-4678,23,-178,-78,70
624,8643,10,-1709,-4679,23,-176,-79,68
625,8637,11,-1715,-4683,23,-175,-74,71
626,8641,8,-1710,-4680,23,-175,-75,69
627,8640,5,-1733,-4682,23,-176,-77,66
628,8631,1,-1720,-4682,23,-176,-75,68
629,8645,-10,-1721,-4682,23,-174,-73,68
630,8641,3,-1721,-4685,23,-177,-74,69
631,8628,18,-1724,-4684,23,-176,-77,71
632,8648,2,-1723,-4685,23,-172,-75,68
633,8646,10,-1748,-4692,23,-173,-76,69
634,8644,6,-1707,-4692,23,-173,-77,70
635,8650,20,-1720,-4685,23,-174,-75,73
636,8642,16,-1700,-4684,23,-174,-72,74
637,8644,20,-1717,-4689,23,-172,-74,71
638,8647,10,-1735,-4684,23,-176,-76,74
639,8649,1,-1707,-4685,23,-173,-77,68
640,8646,3,-1705,-4682,23,-172,-81,73
641,8640,14,-1727,-4684,23,-173,-78,71
642,8640,-5,-1724,-4680,23,-175,-76,70
643,8645,-7,-1714,-4683,23,-174,-74,70
644,8642,-1,-1718,-4685,23,-174,-77,69
645,8642,12,-1706,-4685,23,-175,-75,67
646,8635,7,-1707,-4678,23,-176,-72,65
647,8619,18,-1708,-4684,23,-175,-69,69
648,8632,2,-1719,-4678,23,-177,-72,68
649,8635,6,-1737,-4683,23,-176,-76,68
650,8629,6,-1718,-4685,23,-174,-77,72
651,8618,13,-1714,-4682,23,-174,-76,71
652,8627,6,-1726,-4687,23,-174,-77,70
653,8653,9,-1741,-4680,23,-174,-75,69
654,8651,12,-1735,-4677,23,-173,-75,71
655,8634,18,-1726,-4677,23,-172,-75,71
656,8629,16,-1727,-4679,23,-171,-74,71
657,8622,10,-1694,-4685,23,-171,-75,71
658,8634,16,-1714,-4685,23,-175,-76,70
659,8629,6,-1723,-4682,23,-174,-76,69
660,8648,-1,-1714,-4680,23,-171,-77,71
661,8635,1,-1717,-4680,23,-175,-77,70
662,8639,23,-1727,-4683,23,-171,-78,71
663,8620,5,-1703,-4678,23,-171,-82,69
664,8629,5,-1706,-4684,23,-171,-78,65
665,8630,11,-1711,-4683,23,-173,-79,66
666,8631,6,-1717,-4687,23,-175,-74,71
667,8647,6,-1735,-4680,23,-175,-75,71
668,8636,15,-1734,-4683,23,-174,-74,66
669,8621,27,-1705,-4682,23,-174,-72,70
670,8619,-2,-1745,-4681,23,-171,-77,72
671,8642,8,-1747,-4684,23,-173,-73,69
672,8625,17,-1721,-4685,23,-174,-78,72
673,8620,10,-1704,-4682,23,-175,-78,69
674,8618,1,-1721,-4686,23,-172,-76,72
675,8634,-1,-1754,-4686,23,-173,-75,71
676,8624,5,-1709,-4682,23,-176,-73,69
677,8624,5,-1700,-4682,23,-175,-75,70
678,8638,-7,-1717,-4689,23,-169,-78,71
679,8627,-3,-1723,-4688,23,-170,-76,70
680,8641,2,-1721,-4687,23,-173,-78,72
681,8635,23,-1700,-4679,23,-176,-76,71
682,8640,9,-1712,-4681,23,-174,-77,69
683,8641,-2,-1711,-4688,23,-171,-77,69
684,8628,1,-1742,-4683,23,-173,-75,67
685,8612,14,-1731,-4678,23,-170,-76,69
686,8630,9,-1733,-4684,23,-176,-75,69
687,8626,7,-1736,-4680,23,-175,-72,70
688,8635,10,-1708,-4683,23,-173,-75,69
689,8651,23,-1703,-4686,23,-172,-73,69
690,8646,-3,-1724,-4682,23,-173,-74,70
691,8634,3,-1714,-4681,23,-175,-77,69
692,8619,14,-1723,-4681,23,-170,-76,68
693,8609,13,-1722,-4675,23,-170,-77,70
694,8622,24,-1734,-4678,23,-175,-77,70
695,8625,13,-1730,-4680,23,-177,-74,72
696,8637,11,-1733,-4680,23,-175,-73,70
697,8642,9,-1723,-4674,23,-177,-78,70
698,8641,13,-1706,-4680,23,-174,-76,72
699,8629,11,-1720,-4679,23,-173,-73,69
700,8636,-8,-1719,-4680,23,-173,-75,69
701,8633,11,-1705,-4684,23,-173,-70,70
702,8639,19,-1706,-4680,23,-173,-75,67
703,8636,15,-1716,-4684,23,-171,-77,70
704,8637,5,-1711,-4686,23,-173,-73,71
705,8630,-2,-1724,-4680,23,-176,-79,68
706,8637,9,-1722,-4683,23,-176,-77,68
707,8628,-12,-1707,-4688,23,-172,-75,72
708,8634,3,-1701,-4682,23,-174,-75,68
709,8637,4,-1721,-4682,23,-173,-72,67
710,8630,8,-1727,-4680,23,-173,-72,69
711,8633,3,-1730,-4682,23,-174,-76,67
712,8612,8,-1746,-4678,23,-171,-75,69
713,8617,14,-1712,-4687,23,-171,-79,70
714,8628,17,-1726,-4682,23,-172,-75,70
715,8625,14,-1719,-4679,23,-171,-78,68
716,8612,2,-1715,-4677,23,-169,-79,69
717,8620,20,-1703,-4679,23,-171,-75,68
718,8631,5,-1712,-4679,23,-172,-75,70
719,8624,2,-1699,-4682,23,-172,-73,70
720,8629,8,-1715,-4681,23,-172,-75,69
721,8638,9,-1711,-4686,23,-174,-80,70
722,8648,11,-1720,-4685,23,-171,-78,72
723,8645,7,-1721,-4682,23,-170,-77,70
724,8635,13,-1723,-4678,23,-171,-79,67
725,8651,5,-1713,-4683,23,-172,-74,70
726,8632,16,-1707,-4680,23,-173,-76,71
727,8632,19,-1718,-4684,23,-173,-79,71
728,8642,10,-1712,-4687,23,-172,-75,73
729,8631,9,-1717,-4675,23,-173,-76,69
730,8636,3,-1707,-4679,23,-176,-75,68
731,8631,2,-1718,-4682,23,-172,-76,71
732,8640,14,-1739,-4679,23,-172,-76,69
733,8630,4,-1717,-4682,23,-174,-75,71
734,8636,7,-1694,-4682,23,-173,-75,69
735,8631,13,-1705,-4680,23,-174,-75,71
736,8618,13,-1723,-4686,23,-173,-75,68
737,8621,-2,-1724,-4684,23,-174,-76,67
738,8624,14,-1715,-4686,23,-175,-77,70
739,8628,2,-1720,-4685,23,-168,-78,71
740,8623,7,-1722,-4689,23,-173,-73,68
741,8642,7,-1704,-4680,23,-174,-72,68
742,8654,13,-1725,-4680,23,-176,-74,69
743,8644,25,-1709,-4680,23,-172,-75,71
744,8634,3,-1725,-4684,23,-175,-77,69
745,8635,21,-1741,-4677,23,-175,-77,73
746,8637,20,-1743,-4680,23,-174,-78,70
747,8632,24,-1733,-4677,23,-175,-77,67
748,8641,8,-1700,-4679,23,-175,-75,72
749,8646,2,-1712,-4681,23,-171,-77,72
750,8643,11,-1718,-4679,23,-168,-71,68
751,8634,1,-1708,-4678,23,-173,-74,68
752,8626,7,-1714,-4674,23,-172,-76,67
753,8638,10,-1714,-4681,23,-171,-73,69
754,8631,5,-1717,-4679,23,-171,-75,69
755,8626,0,-1713,-4678,23,-173,-76,68
756,8634,20,-1723,-4684,23,-171,-74,72
757,8630,25,-1705,-4680,23,-175,-77,72
758,8640,3,-1716,-4682,23,-175,-80,72
759,8622,7,-1700,-4680,23,-174,-79,72
760,8622,11,-1713,-4682,23,-173,-76,72
761,8637,3,-1728,-4684,23,-175,-75,70
762,8621,15,-1727,-4678,23,-173,-72,69
763,8621,-3,-1720,-4681,23,-172,-76,70
764,8622,6,-1727,-4681,23,-171,-76,69
765,8637,1,-1707,-4684,23,-174,-77,72
766,8623,3,-1706,-4687,23,-172,-77,68
767,8620,7,-1708,-4683,23,-172,-75,68
768,8625,5,-1727,-4683,23,-174,-77,68
769,8639,-1,-1726,-4682,23,-174,-78,69
770,8631,-3,-1725,-4676,23,-174,-78,69
771,8630,1,-1712,-4670,23,-173,-76,69
772,8628,0,-1717,-4678,23,-171,-76,69
773,8625,-4,-1732,-4675,23,-171,-74,70
774,8630,3,-1731,-4677,23,-174,-82,72
775,8615,2,-1709,-4682,23,-171,-79,71
776,8636,4,-1711,-4676,23,-171,-79,71
777,8633,32,-1722,-4672,23,-165,-75,68
778,8643,20,-1712,-4681,23,-172,-74,68
779,8645,20,-1712,-4681,23,-172,-73,69
780,8642,15,-1713,-4685,23,-172,-75,69
781,8624,15,-1711,-4688,23,-173,-76,69
782,8640,27,-1714,-4680,23,-173,-72,66
783,8650,7,-1705,-4682,23,-172,-74,65
784,8640,11,-1713,-4685,23,-172,-77,65
785,8649,8,-1722,-4681,23,-173,-75,68
786,8659,7,-1707,-4680,23,-171,-76,68
787,8627,12,-1722,-4676,23,-171,-78,66
788,8635,28,-1691,-4684,23,-174,-78,71
789,8641,11,-1715,-4684,23,-175,-75,69
790,8649,9,-1734,-4689,23,-175,-75,70
791,8630,8,-1724,-4683,23,-174,-74,69
792,8631,5,-1721,-4675,23,-171,-72,67
793,8637,14,-1717,-4675,23,-174,-73,69
794,8646,20,-1711,-4679,23,-171,-72,68
795,8639,13,-1720,-4681,23,-172,-73,69
796,8639,23,-1732,-4684,23,-174,-77,69
797,8629,31,-1725,-4682,23,-174,-78,72
798,8633,1,-1743,-4680,23,-170,-76,67
799,8645,11,-1731,-4681,23,-172,-74,71
800,8645,15,-1737,-4685,23,-174,-73,73
801,8639,18,-1702,-4680,23,-175,-75,71
802,8633,1,-1758,-4682,23,-177,-74,68
803,8637,7,-1751,-4679,23,-173,-75,65
804,8625,10,-1727,-4680,23,-173,-76,70
805,8618,21,-1701,-4681,23,-176,-74,70
806,8621,16,-1706,-4677,23,-175,-75,70
807,8635,9,-1725,-4679,23,-171,-77,71
808,8634,7,-1728,-4675,23,-174,-75,70
809,8642,7,-1736,-4674,23,-172,-72,65
810,8648,12,-1746,-4681,23,-174,-74,71
811,8641,-3,-1724,-4678,23,-176,-78,68
812,8640,15,-1726,-4678,23,-177,-79,70
813,8628,26,-1710,-4683,23,-175,-76,70
814,8614,12,-1725,-4678,23,-172,-76,70
815,8631,17,-1749,-4675,23,-173,-73,70
816,8625,27,-1732,-4675,23,-172,-73,69
817,8625,21,-1721,-4678,23,-172,-78,67
818,8641,11,-1719,-4683,23,-176,-79,69
819,8656,12,-1723,-4682,23,-173,-78,70
820,8636,10,-1730,-4681,23,-175,-78,71
821,8631,3,-1719,-4683,23,-174,-74,71
822,8639,-8,-1698,-4685,23,-174,-79,66
823,8634,2,-1720,-4678,23,-172,-78,69
824,8625,10,-1731,-4681,23,-170,-79,69
825,8634,10,-1717,-4682,23,-171,-79,70
826,8632,9,-1726,-4680,23,-172,-76,68
827,8625,14,-1735,-4681,23,-173,-81,71
828,8637,8,-1722,-4678,23,-170,-79,74
829,8636,11,-1736,-4674,23,-173,-76,73
830,8637,16,-1723,-4678,23,-176,-75,69
831,8647,22,-1725,-4678,23,-175,-75,66
832,8635,-1,-1719,-4676,23,-173,-79,67
833,8636,8,-1730,-4676,23,-172,-82,68
834,8646,8,-1715,-4678,23,-172,-76,67
835,8616,8,-1714,-4680,23,-176,-75,70
836,8622,6,-1721,-4680,23,-172,-79,69
837,8627,12,-1717,-4678,23,-170,-79,72
838,8623,-2,-1715,-4682,23,-171,-77,70
839,8635,3,-1725,-4681,23,-173,-76,67
840,8628,5,-1726,-4682,23,-173,-81,71
841,8623,-4,-1706,-4678,23,-176,-78,69
842,8625,-7,-1710,-4680,23,-174,-80,70
843,8664,2,-1708,-4677,23,-172,-74,71
844,8632,5,-1702,-4672,23,-173,-75,70
845,8617,16,-1730,-4675,23,-173,-74,70
846,8611,12,-1717,-4674,23,-175,-75,65
847,8633,14,-1713,-4680,23,-172,-76,68
848,8631,18,-1701,-4679,23,-173,-78,68
849,8639,2,-1726,-4676,23,-174,-77,67
850,8623,10,-1704,-4678,23,-173,-74,67
851,8636,6,-1718,-4682,23,-178,-75,70
852,8645,3,-1715,-4683,23,-176,-74,67
853,8647,0,-1745,-4681,23,-178,-75,68
854,8625,-1,-1734,-4679,23,-170,-75,69
855,8617,13,-1721,-4676,23,-175,-78,68
856,8621,-6,-1730,-4678,23,-170,-75,71
857,8635,9,-1727,-4681,23,-169,-76,70
858,8638,2,-1733,-4676,23,-171,-74,70
859,8628,-4,-1714,-4683,23,-172,-74,73
860,8637,13,-1729,-4679,23,-175,-72,69
861,8631,19,-1713,-4686,23,-172,-74,71
862,8639,11,-1696,-4683,23,-172,-75,69
863,8636,-1,-1718,-4679,23,-173,-73,68
864,8650,10,-1723,-4679,23,-172,-73,69
865,8635,-6,-1707,-4677,23,-174,-75,69
866,8637,0,-1701,-4683,23,-172,-72,67
867,8629,2,-1712,-4682,23,-170,-74,68
868,8633,3,-1709,-4678,23,-172,-79,69
869,8639,5,-1712,-4676,23,-173,-82,71
870,8638,3,-1717,-4678,23,-171,-77,64
871,8627,5,-1730,-4673,23,-173,-74,68
872,8645,-3,-1723,-4678,23,-174,-75,69
873,8639,9,-1727,-4678,23,-174,-75,69
874,8644,8,-1701,-4678,23,-175,-80,69
875,8636,29,-1709,-4681,23,-173,-79,71
876,8620,20,-1706,-4677,23,-174,-77,70
877,8624,17,-1716,-4675,23,-171,-75,67
878,8632,23,-1709,-4676,23,-174,-73,66
879,8630,13,-1722,-4676,23,-171,-77,69
880,8625,10,-1724,-4675,23,-175,-79,74
881,8638,13,-1716,-4678,23,-176,-78,72
882,8648,16,-1709,-4682,23,-177,-77,68
883,8640,9,-1723,-4678,23,-171,-79,68
884,8632,15,-1737,-4675,23,-171,-74,70
885,8626,6,-1724,-4676,23,-172,-76,71
886,8622,4,-1725,-4679,23,-175,-76,72
887,8626,17,-1732,-4676,23,-172,-77,70
888,8622,15,-1718,-4677,23,-170,-78,69
889,8637,21,-1735,-4681,23,-172,-75,72
890,8655,16,-1714,-4678,23,-172,-75,73
891,8626,16,-1716,-4675,23,-168,-73,69
892,8626,6,-1718,-4679,23,-175,-77,69
893,8617,2,-1710,-4679,23,-175,-75,69
894,8627,1,-1683,-4675,23,-169,-73,70
895,8645,11,-1725,-4678,23,-173,-75,66
896,8635,7,-1734,-4680,23,-175,-82,68
897,8633,-3,-1719,-4675,23,-171,-80,71
898,8641,10,-1711,-4675,23,-169,-79,71
899,8640,11,-1726,-4673,23,-173,-73,66
900,8621,4,-1702,-4681,23,-174,-76,72
901,8643,4,-1721,-4681,23,-171,-77,69
902,8633,13,-1716,-4680,23,-173,-75,65
903,8625,9,-1724,-4679,23,-171,-72,69
904,8636,2,-1728,-4679,23,-173,-76,71
905,8637,15,-1696,-4680,23,-176,-75,70
906,8636,15,-1701,-4681,23,-173,-76,70
907,8630,28,-1711,-4679,23,-174,-75,65
908,8638,5,-1715,-4677,23,-173,-76,71
909,8643,7,-1711,-4679,23,-171,-75,69
910,8634,10,-1722,-4681,23,-168,-79,70
911,8638,-2,-1702,-4680,23,-171,-78,67
912,8629,-4,-1717,-4683,23,-170,-75,67
913,8639,7,-1707,-4678,23,-172,-74,69
914,8618,19,-1707,-4679,23,-169,-77,68
915,8620,-2,-1699,-4677,23,-173,-77,68
916,8643,11,-1706,-4679,23,-174,-78,68
917,8637,10,-1721,-4675,23,-169,-77,69
918,8616,9,-1718,-4679,23,-172,-75,69
919,8628,5,-1721,-4677,23,-174,-76,68
920,8636,6,-1707,-4673,23,-174,-76,71
921,8633,10,-1708,-4679,23,-172,-75,70
922,8623,9,-1723,-4678,23,-173,-76,70
923,8629,-9,-1730,-4685,23,-174,-77,68
924,8632,10,-1730,-4684,23,-172,-78,66
925,8640,10,-1709,-4678,23,-172,-76,72
926,8647,19,-1708,-4678,23,-177,-76,71
927,8638,6,-1709,-4674,23,-175,-77,73
928,8633,10,-1710,-4677,23,-172,-75,74
929,8638,10,-1720,-4678,23,-174,-75,73
930,8636,-6,-1722,-4674,23,-175,-73,69
931,8618,-15,-1749,-4676,23,-171,-77,69
932,8644,-4,-1734,-4681,23,-170,-76,73
933,8638,4,-1722,-4675,23,-171,-77,66
934,8628,2,-1710,-4678,23,-172,-77,68
935,8629,8,-1722,-4677,23,-172,-77,67
936,8631,14,-1727,-4680,23,-173,-76,69
937,8640,11,-1734,-4676,23,-174,-80,68
938,8630,7,-1692,-4671,23,-174,-78,73
939,8631,17,-1686,-4678,23,-172,-76,74
940,8638,25,-1709,-4679,23,-170,-76,72
941,8629,10,-1713,-4679,23,-172,-76,70
942,8639,4,-1714,-4676,23,-173,-78,70
943,8639,14,-1698,-4678,23,-174,-79,73
944,8631,15,-1704,-4680,23,-174,-75,70
945,8631,-3,-1712,-4682,23,-171,-75,70
946,8628,16,-1722,-4685,23,-173,-72,72
947,8622,11,-1718,-4676,23,-176,-72,69
948,8609,5,-1738,-4680,23,-171,-75,68
949,8628,2,-1734,-4677,23,-171,-74,69
950,8630,12,-1736,-4682,23,-174,-77,72
951,8639,12,-1729,-4679,23,-175,-79,67
952,8627,8,-1681,-4677,23,-174,-76,70
953,8638,21,-1690,-4680,23,-173,-74,71
954,8624,24,-1694,-4678,23,-174,-75,73
955,8634,17,-1728,-4679,23,-173,-77,69
956,8622,6,-1717,-4680,23,-175,-78,67
957,8631,4,-1737,-4679,23,-171,-75,70
958,8627,-1,-1731,-4677,23,-172,-76,71
959,8637,3,-1726,-4675,23,-175,-76,73
960,8621,-4,-1718,-4679,23,-172,-77,71
961,8608,-1,-1715,-4678,23,-170,-73,69
962,8610,0,-1729,-4677,23,-174,-75,70
963,8625,-12,-1720,-4683,23,-171,-75,70
964,8636,6,-1712,-4678,23,-172,-71,71
965,8622,8,-1725,-4676,23,-171,-75,70
966,8629,8,-1733,-4675,23,-170,-77,71
967,8636,35,-1720,-4683,23,-173,-76,69
968,8637,29,-1745,-4683,23,-173,-77,69
969,8640,15,-1727,-4676,23,-172,-79,70
970,8636,16,-1734,-4682,23,-173,-79,68
971,8621,5,-1715,-4681,23,-174,-76,69
972,8633,2,-1706,-4677,23,-173,-77,66
973,8643,11,-1699,-4683,23,-169,-76,71
974,8640,3,-1717,-4681,23,-174,-77,70
975,8661,9,-1704,-4678,23,-173,-77,73
976,8663,2,-1709,-4677,23,-173,-78,73
977,8656,-1,-1709,-4678,23,-170,-77,72
978,8626,17,-1715,-4683,23,-171,-76,74
979,8627,-2,-1722,-4681,23,-172,-75,69
980,8622,9,-1718,-4685,23,-173,-77,70
981,8623,8,-1713,-4685,23,-174,-77,68
982,8637,5,-1717,-4680,23,-175,-76,69
983,8643,7,-1746,-4680,23,-171,-75,69
984,8631,13,-1734,-4675,23,-173,-77,67
985,8626,17,-1723,-4676,23,-172,-76,69
986,8629,9,-1702,-4681,23,-175,-75,69
987,8630,0,-1721,-4680,23,-172,-72,68
988,8620,10,-1711,-4681,23,-173,-77,68
989,8641,21,-1712,-4680,23,-175,-75,67
990,8633,11,-1709,-4682,23,-174,-79,67
991,8636,2,-1706,-4680,23,-176,-74,69
992,8627,8,-1720,-4680,23,-172,-77,67
993,8620,11,-1742,-4684,23,-175,-78,66
994,8619,14,-1742,-4681,23,-174,-77,68
995,8636,3,-1735,-4681,23,-174,-77,67
996,8631,16,-1723,-4680,23,-173,-77,68
997,8629,11,-1732,-4673,23,-175,-77,67
998,8650,16,-1746,-4676,23,-174,-75,62
