,acc_X,acc_Y,acc_Z,temp,tempC,gyr_X,gyr_Y,gyr_Z
0,17288,-6,-3486,-4681,23,-91,-36,34
1,17284,26,-3370,-4680,23,-90,-41,35
2,17294,-34,-3440,-4677,23,-85,-41,32
3,17220,-14,-3416,-4682,23,-85,-38,36
4,17328,-8,-3418,-4693,23,-87,-42,37
5,17292,-16,-3384,-4688,23,-87,-38,32
6,17290,12,-3502,-4673,23,-86,-39,33
7,17260,80,-3442,-4686,23,-86,-39,35
8,17246,34,-3348,-4673,23,-87,-40,32
9,17254,26,-3364,-4683,23,-89,-40,37
10,17220,24,-3362,-4679,23,-90,-40,37
11,17258,-26,-3392,-4687,23,-89,-37,32
12,17256,40,-3372,-4681,23,-84,-38,35
13,17268,44,-3418,-4688,23,-85,-37,35
14,17302,-16,-3428,-4685,23,-85,-35,39
15,17276,54,-3332,-4677,23,-88,-37,34
16,17290,18,-3364,-4681,23,-89,-38,35
17,17298,66,-3316,-4691,23,-88,-38,33
18,17246,20,-3418,-4691,23,-87,-37,33
19,17304,-22,-3384,-4692,23,-84,-36,33
20,17270,14,-3432,-4678,23,-87,-36,36
21,17228,-58,-3370,-4682,23,-86,-38,34
22,17294,32,-3408,-4678,23,-89,-37,36
23,17250,52,-3478,-4690,23,-85,-39,35
24,17268,38,-3444,-4692,23,-85,-41,34
25,17270,2,-3394,-4688,23,-89,-35,37
26,17302,16,-3446,-4675,23,-87,-40,34
27,17284,-28,-3370,-4678,23,-85,-36,35
28,17294,18,-3392,-4695,23,-88,-36,34
29,17322,42,-3332,-4689,23,-87,-44,31
30,17300,28,-3382,-4679,23,-89,-34,37
31,17294,-8,-3290,-4680,23,-89,-38,34
32,17330,34,-3454,-4689,23,-91,-38,33
33,17196,38,-3310,-4681,23,-86,-37,34
34,17280,58,-3442,-4684,23,-86,-38,31
35,17280,30,-3352,-4691,23,-85,-37,37
36,17288,-2,-3482,-4668,23,-90,-36,38
37,17276,28,-3410,-4680,23,-87,-38,37
38,17294,40,-3452,-4681,23,-88,-36,35
39,17236,26,-3404,-4681,23,-85,-37,36
40,17276,2,-3366,-4679,23,-90,-36,36
41,17260,36,-3362,-4694,23,-89,-33,35
42,17294,12,-3338,-4680,23,-85,-35,32
43,17304,-46,-3314,-4682,23,-85,-39,38
44,17256,-14,-3426,-4674,23,-90,-40,31
45,17262,-36,-3384,-4676,23,-86,-35,37
46,17272,-32,-3346,-4683,23,-89,-38,33
47,17298,-24,-3426,-4688,23,-83,-36,33
48,17312,42,-3382,-4686,23,-87,-36,35
49,17236,-12,-3392,-4690,23,-86,-39,35
50,17290,22,-3370,-4684,23,-87,-41,33
51,17290,52,-3466,-4681,23,-89,-38,36
52,17264,-40,-3406,-4684,23,-91,-42,34
53,17306,56,-3442,-4687,23,-86,-37,33
54,17322,42,-3410,-4675,23,-85,-37,34
55,17262,4,-3412,-4693,23,-88,-38,33
56,17308,4,-3360,-4664,23,-86,-40,33
57,17252,-38,-3366,-4678,23,-87,-40,37
58,17220,26,-3398,-4687,23,-89,-34,32
59,17272,0,-3380,-4688,23,-83,-37,31
60,17244,-10,-3452,-4694,23,-86,-40,32
61,17258,8,-3420,-4684,23,-86,-39,33
62,17232,42,-3418,-4674,23,-84,-38,34
63,17264,28,-3426,-4689,23,-83,-40,35
64,17234,28,-3388,-4673,23,-84,-38,35
65,17344,2,-3438,-4687,23,-87,-42,34
66,17284,12,-3392,-4676,23,-86,-38,35
67,17268,-24,-3418,-4683,23,-88,-41,35
68,17342,22,-3300,-4673,23,-88,-39,35
69,17298,-26,-3476,-4682,23,-85,-42,32
70,17320,-16,-3388,-4688,23,-89,-37,34
71,17270,32,-3394,-4681,23,-91,-39,36
72,17288,20,-3418,-4686,23,-85,-40,35
73,17238,2,-3390,-4677,23,-87,-43,37
74,17296,52,-3436,-4670,23,-87,-40,37
75,17326,-18,-3346,-4682,23,-86,-39,38
76,17264,74,-3414,-4685,23,-89,-41,33
77,17230,36,-3380,-4677,23,-89,-39,34
78,17308,44,-3364,-4691,23,-86,-37,31
79,17276,16,-3378,-4686,23,-86,-37,33
80,17238,28,-3358,-4681,23,-88,-36,33
81,17284,-14,-3382,-4686,23,-90,-40,36
82,17270,68,-3412,-4683,23,-86,-36,34
83,17268,44,-3324,-4688,23,-87,-40,35
84,17284,18,-3422,-4686,23,-84,-38,33
85,17272,10,-3352,-4679,23,-86,-37,34
86,17230,18,-3390,-4683,23,-87,-41,33
87,17296,-18,-3426,-4688,23,-89,-38,35
88,17266,-14,-3494,-4687,23,-88,-37,35
89,17266,10,-3372,-4690,23,-91,-34,34
90,17244,-28,-3372,-4688,23,-87,-39,35
91,17266,-56,-3438,-4678,23,-90,-37,36
92,17324,22,-3334,-4673,23,-87,-39,34
93,17282,-6,-3348,-4682,23,-89,-34,32
94,17240,14,-3296,-4676,23,-83,-37,35
95,17326,78,-3420,-4699,23,-87,-37,37
96,17286,22,-3448,-4677,23,-89,-38,34
97,17278,26,-3436,-4684,23,-88,-42,35
98,17316,-6,-3328,-4684,23,-85,-38,32
99,17282,-22,-3326,-4678,23,-85,-38,35
100,17272,0,-3398,-4684,23,-86,-36,34
101,17280,-34,-3318,-4683,23,-86,-40,37
102,17260,-16,-3452,-4678,23,-83,-35,34
103,17256,18,-3430,-4679,23,-88,-37,32
104,17348,-36,-3334,-4669,23,-89,-39,35
105,17282,44,-3392,-4676,23,-88,-38,35
106,17302,-8,-3446,-4681,23,-91,-37,36
107,17262,2,-3400,-4675,23,-87,-36,37
108,17292,-40,-3376,-4679,23,-83,-33,34
109,17252,8,-3350,-4677,23,-88,-38,36
110,17298,20,-3422,-4683,23,-90,-36,36
111,17322,22,-3388,-4684,23,-87,-37,36
112,17238,2,-3364,-4679,23,-84,-41,33
113,17216,46,-3410,-4684,23,-85,-43,34
114,17252,76,-3362,-4681,23,-86,-38,33
115,17302,-10,-3444,-4689,23,-86,-36,32
116,17346,14,-3292,-4685,23,-88,-36,34
117,17252,32,-3316,-4677,23,-83,-41,34
118,17258,46,-3404,-4689,23,-87,-40,34
119,17298,24,-3420,-4679,23,-83,-37,34
120,17280,36,-3386,-4680,23,-85,-40,34
121,17248,22,-3414,-4677,23,-86,-40,35
122,17228,0,-3454,-4671,23,-83,-38,32
123,17284,52,-3420,-4681,23,-89,-38,34
124,17284,18,-3416,-4694,23,-90,-37,34
125,17296,8,-3322,-4692,23,-86,-39,34
126,17250,24,-3340,-4674,23,-87,-34,32
127,17296,34,-3394,-4689,23,-83,-37,37
128,17304,-14,-3382,-4682,23,-84,-36,35
129,17276,30,-3372,-4691,23,-88,-37,33
130,17242,18,-3374,-4681,23,-88,-40,32
131,17232,-52,-3442,-4673,23,-87,-43,32
132,17262,-46,-3478,-4681,23,-82,-36,34
133,17382,10,-3472,-4670,23,-88,-38,32
134,17220,12,-3366,-4678,23,-89,-40,32
135,17280,22,-3400,-4673,23,-85,-42,34
136,17322,48,-3340,-4682,23,-87,-38,37
137,17256,20,-3364,-4677,23,-91,-40,36
138,17322,36,-3420,-4687,23,-87,-37,37
139,17258,28,-3368,-4686,23,-88,-39,34
140,17288,36,-3318,-4676,23,-90,-37,36
141,17282,-6,-3448,-4685,23,-85,-41,35
142,17266,46,-3384,-4678,23,-88,-42,33
143,17236,56,-3382,-4678,23,-86,-38,33
144,17274,-12,-3332,-4684,23,-90,-34,35
145,17286,12,-3410,-4679,23,-85,-42,36
146,17262,42,-3340,-4670,23,-88,-36,31
147,17330,48,-3412,-4686,23,-84,-40,33
148,17266,-12,-3380,-4687,23,-86,-39,33
149,17274,-56,-3376,-4689,23,-89,-36,37
150,17230,-18,-3496,-4683,23,-85,-40,35
151,17286,32,-3490,-4684,23,-86,-41,39
152,17238,36,-3384,-4670,23,-86,-37,35
153,17236,18,-3368,-4677,23,-83,-35,35
154,17330,8,-3424,-4690,23,-83,-42,35
155,17280,24,-3390,-4685,23,-84,-39,34
156,17324,-12,-3390,-4679,23,-86,-38,35
157,17240,-14,-3362,-4679,23,-86,-41,33
158,17278,56,-3396,-4682,23,-85,-40,35
159,17360,40,-3474,-4678,23,-86,-38,34
160,17300,70,-3298,-4677,23,-89,-41,36
161,17282,12,-3386,-4680,23,-84,-43,30
162,17270,-28,-3486,-4669,23,-85,-41,38
163,17284,8,-3374,-4687,23,-89,-37,36
164,17258,34,-3410,-4688,23,-88,-38,36
165,17280,30,-3466,-4675,23,-90,-38,33
166,17262,20,-3378,-4677,23,-88,-36,34
167,17300,-26,-3408,-4676,23,-87,-35,34
168,17294,-6,-3342,-4687,23,-86,-38,38
169,17226,24,-3360,-4680,23,-84,-36,34
170,17232,12,-3432,-4682,23,-89,-40,33
171,17242,-4,-3338,-4683,23,-89,-40,35
172,17268,-18,-3362,-4685,23,-85,-38,35
173,17324,-32,-3366,-4672,23,-85,-38,33
174,17284,-66,-3360,-4680,23,-85,-37,33
175,17262,2,-3454,-4673,23,-88,-37,32
176,17326,-18,-3434,-4688,23,-89,-37,35
177,17280,8,-3390,-4685,23,-86,-34,36
178,17264,30,-3396,-4686,23,-86,-37,32
179,17202,-26,-3374,-4677,23,-88,-40,33
180,17276,2,-3414,-4673,23,-85,-39,35
181,17314,24,-3452,-4680,23,-86,-41,33
182,17228,-10,-3318,-4681,23,-87,-35,34
183,17330,18,-3330,-4671,23,-87,-42,36
184,17240,30,-3454,-4667,23,-85,-36,35
185,17276,42,-3348,-4683,23,-89,-41,34
186,17240,-34,-3334,-4679,23,-85,-40,36
187,17202,34,-3406,-4684,23,-88,-36,34
188,17328,2,-3474,-4686,23,-88,-39,35
189,17260,-14,-3394,-4684,23,-85,-37,34
190,17324,-38,-3370,-4679,23,-85,-39,34
191,17246,16,-3454,-4662,23,-84,-39,33
192,17252,48,-3408,-4678,23,-88,-39,34
193,17250,2,-3476,-4677,23,-87,-39,36
194,17186,28,-3392,-4679,23,-87,-37,36
195,17304,20,-3338,-4691,23,-86,-38,34
196,17252,46,-3392,-4677,23,-86,-35,34
197,17276,52,-3440,-4682,23,-89,-33,33
198,17238,-58,-3380,-4679,23,-87,-40,33
199,17232,52,-3400,-4670,23,-85,-37,37
200,17220,56,-3418,-4671,23,-89,-39,37
201,17262,4,-3352,-4681,23,-86,-35,34
202,17290,-24,-3372,-4685,23,-89,-38,36
203,17294,18,-3332,-4685,23,-86,-37,32
204,17308,2,-3392,-4671,23,-85,-38,34
205,17230,2,-3360,-4683,23,-86,-38,34
206,17242,10,-3448,-4686,23,-84,-42,36
207,17238,-22,-3410,-4674,23,-86,-39,35
208,17294,20,-3276,-4675,23,-87,-39,34
209,17288,34,-3412,-4672,23,-87,-39,33
210,17240,16,-3370,-4673,23,-86,-39,34
211,17298,34,-3334,-4688,23,-86,-37,35
212,17270,46,-3446,-4683,23,-86,-36,34
213,17290,18,-3324,-4684,23,-86,-39,33
214,17286,2,-3420,-4679,23,-89,-40,35
215,17240,34,-3388,-4678,23,-90,-39,34
216,17280,40,-3368,-4680,23,-88,-37,37
217,17280,-6,-3358,-4673,23,-86,-41,36
218,17224,-10,-3428,-4687,23,-86,-41,35
219,17226,-6,-3460,-4674,23,-88,-37,38
220,17292,84,-3336,-4678,23,-88,-37,35
221,17260,-20,-3404,-4685,23,-87,-40,32
222,17272,-44,-3414,-4674,23,-86,-38,35
223,17276,76,-3378,-4680,23,-84,-37,36
224,17334,-6,-3368,-4693,23,-89,-37,36
225,17298,-46,-3436,-4680,23,-86,-38,31
226,17298,50,-3396,-4670,23,-85,-37,34
227,17314,-46,-3474,-4676,23,-86,-36,36
228,17248,-22,-3422,-4682,23,-88,-38,37
229,17278,-16,-3348,-4678,23,-89,-41,33
230,17260,42,-3430,-4674,23,-87,-39,35
231,17262,16,-3382,-4679,23,-86,-40,36
232,17270,18,-3434,-4670,23,-86,-39,34
233,17198,8,-3420,-4684,23,-85,-38,34
234,17216,2,-3376,-4673,23,-84,-36,34
235,17234,-44,-3326,-4679,23,-87,-36,36
236,17372,0,-3362,-4674,23,-85,-38,33
237,17196,28,-3416,-4680,23,-86,-38,37
238,17270,38,-3384,-4674,23,-90,-39,32
239,17288,102,-3392,-4678,23,-88,-35,33
240,17290,-16,-3372,-4671,23,-86,-37,35
241,17256,12,-3426,-4687,23,-87,-38,34
242,17322,-6,-3408,-4680,23,-88,-41,33
243,17224,-2,-3420,-4682,23,-85,-38,36
244,17228,-8,-3336,-4674,23,-85,-42,33
245,17222,-16,-3460,-4676,23,-86,-32,34
246,17240,6,-3476,-4671,23,-86,-37,36
247,17262,-18,-3384,-4674,23,-87,-36,30
248,17324,26,-3460,-4671,23,-88,-36,34
249,17268,54,-3414,-4669,23,-88,-36,34
250,17260,-4,-3406,-4686,23,-85,-36,34
251,17260,84,-3336,-4684,23,-87,-40,35
252,17312,60,-3502,-4685,23,-82,-36,33
253,17260,26,-3330,-4677,23,-84,-37,33
254,17310,32,-3352,-4676,23,-88,-40,35
255,17304,-24,-3414,-4671,23,-87,-34,37
256,17284,32,-3362,-4690,23,-86,-36,32
257,17290,-50,-3448,-4679,23,-88,-36,33
258,17278,38,-3456,-4675,23,-89,-39,32
259,17282,24,-3422,-4686,23,-86,-38,37
260,17230,-18,-3336,-4667,23,-87,-37,32
261,17266,26,-3372,-4680,23,-86,-38,36
262,17266,36,-3474,-4686,23,-85,-35,35
263,17266,22,-3418,-4676,23,-85,-39,33
264,17340,46,-3462,-4682,23,-84,-36,34
265,17264,2,-3386,-4674,23,-90,-37,33
266,17284,-28,-3378,-4672,23,-84,-36,34
267,17290,34,-3402,-4685,23,-84,-39,34
268,17200,24,-3402,-4675,23,-83,-37,35
269,17316,2,-3468,-4690,23,-82,-41,34
270,17274,14,-3418,-4689,23,-88,-33,32
271,17300,-10,-3340,-4684,23,-89,-40,34
272,17218,16,-3376,-4689,23,-84,-37,36
273,17290,6,-3398,-4678,23,-85,-36,30
274,17282,44,-3404,-4678,23,-88,-36,32
275,17318,-12,-3420,-4679,23,-88,-39,33
276,17334,-8,-3376,-4681,23,-87,-36,35
277,17296,0,-3430,-4679,23,-88,-39,32
278,17238,-2,-3320,-4676,23,-89,-38,33
279,17266,34,-3354,-4676,23,-85,-40,32
280,17234,-28,-3320,-4673,23,-88,-38,35
281,17284,82,-3428,-4688,23,-89,-39,35
282,17256,76,-3408,-4682,23,-87,-41,34
283,17308,-20,-3410,-4691,23,-88,-37,31
284,17374,12,-3348,-4686,23,-89,-38,33
285,17264,42,-3404,-4671,23,-86,-36,33
286,17314,18,-3308,-4681,23,-87,-40,36
287,17238,-2,-3394,-4679,23,-85,-37,34
288,17210,8,-3364,-4679,23,-91,-38,36
289,17266,58,-3402,-4678,23,-87,-38,35
290,17322,42,-3482,-4675,23,-82,-36,39
291,17300,-20,-3442,-4680,23,-87,-40,36
292,17300,96,-3356,-4687,23,-86,-35,31
293,17288,-32,-3410,-4680,23,-88,-37,32
294,17200,-46,-3392,-4674,23,-87,-40,34
295,17262,-2,-3480,-4682,23,-88,-40,30
296,17296,-34,-3342,-4681,23,-85,-38,35
297,17302,-4,-3392,-4686,23,-89,-38,36
298,17240,0,-3326,-4676,23,-87,-38,35
299,17348,36,-3442,-4684,23,-88,-39,34
300,17256,-24,-3432,-4691,23,-91,-39,34
301,17264,-20,-3474,-4677,23,-82,-39,36
302,17246,24,-3356,-4671,23,-86,-38,31
303,17254,14,-3414,-4678,23,-86,-39,34
304,17260,54,-3398,-4674,23,-87,-36,36
305,17298,-28,-3326,-4679,23,-87,-42,35
306,17280,26,-3380,-4675,23,-85,-36,33
307,17280,30,-3364,-4676,23,-87,-37,36
308,17272,14,-3298,-4688,23,-87,-36,35
309,17234,28,-3420,-4677,23,-85,-38,36
310,17282,-14,-3306,-4678,23,-87,-38,36
311,17288,-30,-3368,-4680,23,-82,-36,34
312,17288,-22,-3418,-4677,23,-86,-35,33
313,17290,-40,-3320,-4685,23,-85,-35,32
314,17228,34,-3406,-4679,23,-89,-37,33
315,17228,-4,-3454,-4678,23,-88,-38,34
316,17274,36,-3436,-4673,23,-90,-37,34
317,17312,40,-3320,-4684,23,-86,-41,35
318,17290,22,-3386,-4686,23,-87,-39,34
319,17286,-8,-3360,-4681,23,-85,-38,36
320,17272,36,-3394,-4670,23,-89,-38,35
321,17248,-2,-3416,-4687,23,-83,-35,33
322,17224,14,-3376,-4684,23,-86,-37,35
323,17324,60,-3326,-4676,23,-86,-40,34
324,17266,24,-3334,-4678,23,-88,-37,37
325,17252,-58,-3356,-4689,23,-87,-38,35
326,17276,22,-3382,-4672,23,-89,-39,35
327,17290,-32,-3416,-4677,23,-86,-41,35
328,17306,52,-3484,-4689,23,-84,-39,34
329,17330,-12,-3364,-4691,23,-84,-41,37
330,17208,46,-3384,-4676,23,-86,-40,33
331,17224,56,-3364,-4675,23,-88,-40,34
332,17278,-34,-3300,-4677,23,-86,-40,34
333,17272,-26,-3418,-4676,23,-85,-42,36
334,17310,2,-3320,-4676,23,-85,-33,33
335,17304,-20,-3340,-4682,23,-89,-41,35
336,17334,20,-3458,-4677,23,-88,-40,37
337,17326,36,-3432,-4675,23,-86,-35,31
338,17280,64,-3398,-4687,23,-85,-37,34
339,17310,22,-3354,-4682,23,-88,-38,38
340,17330,-24,-3412,-4675,23,-87,-38,34
341,17274,-32,-3404,-4681,23,-88,-41,38
342,17264,-12,-3358,-4686,23,-86,-35,36
343,17260,-22,-3370,-4677,23,-88,-38,36
344,17344,12,-3426,-4673,23,-87,-37,35
345,17282,48,-3274,-4684,23,-87,-41,36
346,17324,80,-3374,-4677,23,-83,-40,34
347,17248,-16,-3356,-4676,23,-83,-33,35
348,17286,42,-3506,-4680,23,-85,-40,32
349,17272,-22,-3448,-4681,23,-87,-37,36
350,17238,4,-3410,-4685,23,-86,-38,33
351,17260,-22,-3348,-4673,23,-89,-38,34
352,17262,58,-3364,-4687,23,-88,-37,35
353,17194,94,-3310,-4681,23,-91,-38,36
354,17222,-26,-3296,-4687,23,-87,-35,35
355,17258,10,-3368,-4686,23,-85,-37,32
356,17264,32,-3376,-4671,23,-83,-38,33
357,17276,22,-3450,-4683,23,-86,-44,34
358,17252,2,-3410,-4675,23,-86,-37,33
359,17236,-16,-3386,-4675,23,-87,-34,33
360,17280,44,-3374,-4686,23,-87,-36,34
361,17220,42,-3390,-4680,23,-87,-37,33
362,17276,14,-3410,-4683,23,-85,-40,34
363,17332,2,-3386,-4673,23,-90,-38,35
364,17278,-4,-3532,-4681,23,-85,-38,31
365,17262,18,-3426,-4676,23,-86,-40,35
366,17264,42,-3408,-4681,23,-84,-38,34
367,17292,46,-3394,-4689,23,-86,-38,36
368,17290,12,-3428,-4683,23,-85,-36,33
369,17254,-6,-3376,-4680,23,-88,-37,35
370,17286,-10,-3400,-4676,23,-89,-41,34
371,17286,40,-3368,-4683,23,-88,-36,35
372,17244,-56,-3398,-4676,23,-86,-41,33
373,17318,28,-3384,-4681,23,-89,-35,33
374,17222,0,-3440,-4682,23,-89,-35,38
375,17356,26,-3376,-4675,23,-86,-39,33
376,17324,70,-3372,-4681,23,-86,-37,38
377,17262,12,-3392,-4674,23,-88,-38,38
378,17292,18,-3356,-4685,23,-86,-39,34
379,17242,-14,-3390,-4672,23,-87,-37,32
380,17238,20,-3510,-4681,23,-89,-37,33
381,17270,-10,-3410,-4691,23,-90,-40,34
382,17240,88,-3438,-4674,23,-88,-36,33
383,17274,34,-3340,-4689,23,-86,-37,34
384,17334,14,-3390,-4670,23,-88,-36,32
385,17264,26,-3352,-4672,23,-88,-38,37
386,17302,32,-3312,-4681,23,-83,-38,32
387,17326,-10,-3438,-4675,23,-87,-38,35
388,17264,-2,-3442,-4682,23,-88,-37,35
389,17226,-6,-3352,-4680,23,-88,-39,33
390,17304,14,-3382,-4688,23,-86,-37,36
391,17328,32,-3428,-4681,23,-86,-37,35
392,17288,12,-3340,-4681,23,-88,-39,35
393,17236,42,-3454,-4680,23,-88,-38,36
394,17238,54,-3386,-4683,23,-88,-40,36
395,17204,-28,-3396,-4675,23,-88,-41,34
396,17292,0,-3408,-4669,23,-84,-38,36
397,17282,-42,-3410,-4678,23,-87,-39,34
398,17278,16,-3390,-4681,23,-87,-41,34
399,17310,72,-3434,-4689,23,-88,-40,37
400,17266,18,-3382,-4689,23,-89,-39,34
401,17236,4,-3466,-4677,23,-88,-38,35
402,17290,14,-3370,-4677,23,-89,-36,37
403,17280,8,-3400,-4678,23,-88,-36,35
404,17262,-24,-3438,-4683,23,-85,-36,32
405,17256,4,-3282,-4685,23,-84,-37,34
406,17298,10,-3386,-4681,23,-88,-38,35
407,17232,60,-3348,-4683,23,-88,-38,37
408,17324,4,-3434,-4685,23,-85,-40,33
409,17350,-44,-3418,-4682,23,-89,-39,36
410,17288,50,-3334,-4679,23,-84,-37,35
411,17266,-24,-3408,-4676,23,-84,-42,33
412,17326,40,-3406,-4676,23,-87,-34,32
413,17274,36,-3498,-4680,23,-88,-36,34
414,17296,44,-3396,-4691,23,-88,-41,33
415,17286,60,-3394,-4684,23,-88,-40,31
416,17238,-56,-3360,-4673,23,-87,-36,36
417,17258,58,-3374,-4680,23,-89,-41,35
418,17260,62,-3400,-4680,23,-88,-40,35
419,17256,30,-3408,-4683,23,-85,-40,34
420,17272,14,-3418,-4676,23,-84,-38,35
421,17240,2,-3368,-4689,23,-87,-41,34
422,17300,-8,-3488,-4682,23,-84,-41,34
423,17278,12,-3382,-4677,23,-89,-36,32
424,17280,20,-3398,-4685,23,-87,-36,36
425,17342,48,-3322,-4677,23,-89,-38,33
426,17252,38,-3300,-4686,23,-86,-36,33
427,17294,6,-3414,-4679,23,-88,-40,35
428,17284,-6,-3424,-4692,23,-88,-39,35
429,17322,-38,-3398,-4686,23,-88,-39,37
430,17272,-32,-3370,-4670,23,-86,-37,36
431,17312,-14,-3424,-4671,23,-89,-35,36
432,17290,68,-3366,-4677,23,-87,-40,34
433,17328,14,-3418,-4676,23,-86,-36,34
434,17276,-24,-3438,-4683,23,-90,-36,36
435,17258,48,-3394,-4677,23,-88,-37,35
436,17342,52,-3266,-4683,23,-87,-37,34
437,17280,0,-3442,-4676,23,-85,-37,31
438,17300,8,-3496,-4678,23,-83,-39,37
439,17228,-30,-3356,-4676,23,-86,-37,35
440,17270,40,-3352,-4695,23,-88,-37,34
441,17292,18,-3374,-4674,23,-89,-41,35
442,17250,-26,-3442,-4680,23,-89,-34,33
443,17256,42,-3444,-4683,23,-85,-37,31
444,17270,40,-3392,-4679,23,-86,-37,33
445,17280,-70,-3498,-4687,23,-85,-37,36
446,17364,4,-3332,-4688,23,-86,-40,34
447,17316,64,-3428,-4685,23,-87,-36,30
448,17318,44,-3488,-4669,23,-88,-39,33
449,17204,-82,-3412,-4689,23,-88,-35,32
450,17208,-14,-3440,-4678,23,-85,-36,32
451,17306,18,-3322,-4676,23,-86,-41,37
452,17196,-18,-3304,-4686,23,-86,-40,36
453,17230,56,-3424,-4681,23,-87,-40,35
454,17274,48,-3396,-4678,23,-86,-39,35
455,17292,8,-3482,-4678,23,-86,-42,33
456,17310,-14,-3408,-4681,23,-87,-39,36
457,17212,2,-3316,-4686,23,-87,-41,36
458,17278,12,-3380,-4688,23,-88,-40,35
459,17282,6,-3334,-4670,23,-89,-38,34
460,17332,24,-3406,-4683,23,-88,-38,33
461,17308,-24,-3374,-4680,23,-84,-38,36
462,17330,-26,-3412,-4672,23,-88,-39,36
463,17306,46,-3284,-4679,23,-86,-38,37
464,17316,-10,-3356,-4678,23,-87,-40,35
465,17192,4,-3446,-4676,23,-85,-38,32
466,17294,20,-3380,-4673,23,-87,-38,35
467,17256,34,-3302,-4685,23,-89,-36,34
468,17276,-6,-3356,-4673,23,-83,-37,32
469,17320,12,-3372,-4678,23,-85,-36,35
470,17278,34,-3356,-4677,23,-88,-42,34
471,17270,-36,-3372,-4681,23,-88,-38,36
472,17260,86,-3414,-4680,23,-82,-35,32
473,17294,2,-3490,-4672,23,-89,-38,35
474,17256,40,-3354,-4684,23,-83,-40,34
475,17298,-2,-3346,-4667,23,-85,-39,34
476,17266,-64,-3392,-4679,23,-88,-38,34
477,17328,40,-3368,-4683,23,-84,-40,35
478,17300,16,-3416,-4677,23,-90,-37,34
479,17276,52,-3372,-4661,23,-85,-42,34
480,17240,-12,-3366,-4666,23,-89,-36,34
481,17326,-10,-3336,-4683,23,-88,-37,35
482,17262,52,-3370,-4670,23,-86,-40,33
483,17282,12,-3332,-4670,23,-84,-39,35
484,17310,32,-3452,-4684,23,-86,-35,33
485,17300,42,-3352,-4680,23,-86,-41,35
486,17282,-10,-3280,-4683,23,-87,-38,36
487,17258,20,-3362,-4683,23,-89,-39,29
488,17266,48,-3388,-4678,23,-85,-39,31
489,17250,12,-3412,-4674,23,-85,-43,36
490,17300,36,-3424,-4674,23,-84,-38,30
491,17208,10,-3392,-4687,23,-86,-43,33
492,17290,30,-3354,-4684,23,-88,-35,33
493,17366,12,-3362,-4671,23,-85,-39,32
494,17264,-36,-3374,-4668,23,-87,-39,35
495,17288,2,-3330,-4683,23,-87,-37,36
496,17318,64,-3352,-4679,23,-84,-39,38
497,17364,-6,-3412,-4680,23,-84,-39,35
498,17266,56,-3422,-4667,23,-87,-35,36
499,17246,14,-3474,-4678,23,-85,-40,36
500,17292,36,-3350,-4688,23,-87,-40,35
501,17242,-22,-3406,-4678,23,-86,-39,36
502,17268,82,-3318,-4676,23,-87,-36,37
503,17242,64,-3408,-4669,23,-84,-38,34
504,17264,12,-3292,-4683,23,-91,-41,35
505,17308,-8,-3284,-4682,23,-85,-40,34
506,17272,14,-3400,-4673,23,-87,-37,37
507,17254,-62,-3376,-4679,23,-86,-40,32
508,17288,30,-3448,-4676,23,-89,-39,31
509,17252,-8,-3448,-4679,23,-86,-37,36
510,17340,78,-3306,-4678,23,-88,-38,34
511,17264,-20,-3358,-4682,23,-85,-36,35
512,17296,76,-3398,-4672,23,-87,-40,35
513,17308,-4,-3394,-4685,23,-87,-37,33
514,17294,-34,-3338,-4674,23,-87,-35,35
515,17326,-22,-3342,-4664,23,-90,-38,34
516,17262,-10,-3394,-4690,23,-86,-36,36
517,17272,14,-3380,-4667,23,-87,-36,35
518,17224,0,-3278,-4674,23,-84,-38,32
519,17262,38,-3456,-4687,23,-87,-36,33
520,17262,-28,-3418,-4683,23,-89,-37,32
521,17312,38,-3362,-4675,23,-88,-42,36
522,17254,-12,-3314,-4678,23,-90,-40,34
523,17282,8,-3324,-4680,23,-86,-36,34
524,17260,-30,-3446,-4672,23,-86,-40,35
525,17316,16,-3416,-4673,23,-86,-40,33
526,17344,40,-3482,-4676,23,-87,-38,37
527,17232,-4,-3434,-4674,23,-89,-36,35
528,17266,22,-3430,-4671,23,-90,-34,33
529,17326,-34,-3426,-4678,23,-86,-39,35
530,17204,12,-3396,-4666,23,-85,-39,33
531,17308,-4,-3422,-4677,23,-87,-37,34
532,17192,10,-3446,-4684,23,-85,-40,31
533,17294,62,-3354,-4690,23,-86,-32,33
534,17284,-20,-3402,-4671,23,-84,-40,34
535,17300,42,-3416,-4678,23,-84,-37,34
536,17216,-58,-3458,-4674,23,-87,-37,35
537,17236,-6,-3538,-4671,23,-88,-35,32
538,17276,2,-3432,-4681,23,-86,-39,34
539,17344,-50,-3346,-4676,23,-88,-37,32
540,17234,-66,-3434,-4677,23,-88,-42,35
541,17356,-20,-3406,-4662,23,-88,-35,32
542,17238,38,-3392,-4670,23,-86,-40,36
543,17260,24,-3436,-4678,23,-87,-38,35
544,17272,18,-3396,-4680,23,-89,-40,37
545,17372,66,-3482,-4672,23,-85,-42,36
546,17286,-44,-3484,-4679,23,-88,-39,37
547,17248,8,-3386,-4671,23,-86,-37,33
548,17284,44,-3472,-4665,23,-85,-40,35
549,17242,8,-3422,-4672,23,-88,-38,34
550,17206,-28,-3400,-4670,23,-87,-37,36
551,17338,0,-3382,-4679,23,-86,-37,30
552,17278,4,-3338,-4675,23,-85,-38,34
553,17314,42,-3390,-4667,23,-82,-38,35
554,17278,-16,-3286,-4680,23,-85,-37,35
555,17268,20,-3476,-4678,23,-85,-38,37
556,17288,-8,-3424,-4677,23,-87,-39,35
557,17278,2,-3346,-4675,23,-86,-38,34
558,17312,30,-3430,-4682,23,-88,-39,33
559,17246,-46,-3368,-4673,23,-88,-38,36
560,17294,34,-3426,-4673,23,-85,-37,34
561,17292,30,-3388,-4668,23,-88,-37,33
562,17292,56,-3404,-4675,23,-91,-38,35
563,17228,12,-3416,-4673,23,-83,-37,36
564,17272,2,-3324,-4668,23,-89,-36,33
565,17272,52,-3426,-4682,23,-86,-35,36
566,17276,-2,-3438,-4674,23,-85,-36,34
567,17284,86,-3438,-4675,23,-88,-42,34
568,17314,12,-3362,-4670,23,-84,-39,35
569,17252,-16,-3346,-4667,23,-83,-37,34
570,17264,18,-3420,-4679,23,-88,-37,32
571,17218,10,-3340,-4687,23,-86,-35,35
572,17246,-12,-3496,-4682,23,-85,-40,34
573,17232,-30,-3450,-4673,23,-87,-39,36
574,17250,2,-3414,-4677,23,-87,-40,35
575,17240,14,-3380,-4684,23,-83,-37,34
576,17268,-108,-3372,-4674,23,-85,-39,32
577,17304,22,-3400,-4674,23,-88,-36,36
578,17246,-22,-3432,-4677,23,-83,-37,34
579,17206,20,-3354,-4681,23,-86,-34,35
580,17284,48,-3330,-4681,23,-91,-37,34
581,17250,-22,-3430,-4681,23,-88,-39,32
582,17266,12,-3438,-4692,23,-87,-39,35
583,17340,-10,-3476,-4673,23,-88,-36,33
584,17240,-4,-3326,-4683,23,-85,-39,33
585,17312,60,-3302,-4670,23,-88,-37,38
586,17266,36,-3270,-4683,23,-82,-38,34
587,17264,-30,-3366,-4664,23,-87,-34,36
588,17260,38,-3332,-4681,23,-88,-34,36
589,17246,-6,-3426,-4677,23,-84,-36,35
590,17260,4,-3392,-4677,23,-89,-39,34
591,17300,-50,-3424,-4676,23,-90,-36,37
592,17290,38,-3424,-4685,23,-87,-40,33
593,17266,10,-3380,-4674,23,-89,-35,37
594,17272,26,-3324,-4679,23,-85,-36,35
595,17248,-4,-3372,-4687,23,-86,-41,36
596,17242,10,-3430,-4674,23,-88,-40,34
597,17244,-64,-3404,-4683,23,-86,-37,33
598,17270,-2,-3392,-4662,23,-89,-40,34
599,17294,2,-3350,-4674,23,-89,-42,33
600,17282,-36,-3414,-4668,23,-87,-36,35
601,17276,24,-3410,-4679,23,-89,-40,35
602,17268,-28,-3346,-4671,23,-87,-42,32
603,17278,50,-3416,-4688,23,-82,-37,33
604,17352,-2,-3440,-4676,23,-86,-40,36
605,17328,64,-3370,-4666,23,-86,-43,37
606,17230,-6,-3414,-4683,23,-90,-40,33
607,17266,120,-3472,-4685,23,-91,-36,32
608,17286,6,-3394,-4676,23,-86,-37,35
609,17294,-30,-3342,-4673,23,-87,-36,35
610,17292,36,-3492,-4676,23,-82,-37,35
611,17306,54,-3420,-4669,23,-88,-39,35
612,17308,6,-3434,-4661,23,-89,-40,35
613,17272,-16,-3370,-4675,23,-87,-38,34
614,17226,16,-3344,-4673,23,-88,-36,37
615,17300,46,-3286,-4672,23,-85,-35,34
616,17274,-48,-3344,-4669,23,-92,-39,36
617,17270,32,-3490,-4680,23,-90,-37,33
618,17344,6,-3422,-4671,23,-84,-34,31
619,17288,26,-3546,-4683,23,-87,-39,34
620,17240,40,-3352,-4680,23,-86,-40,38
621,17270,-42,-3378,-4672,23,-86,-35,34
622,17280,-34,-3340,-4660,23,-85,-40,35
623,17272,-20,-3420,-4681,23,-85,-39,32
624,17266,4,-3388,-4672,23,-86,-35,33
625,17304,26,-3322,-4672,23,-87,-37,36
626,17262,66,-3406,-4677,23,-89,-39,35
627,17314,28,-3488,-4670,23,-87,-38,34
628,17328,-32,-3404,-4679,23,-87,-38,33
629,17240,104,-3286,-4675,23,-87,-38,32
630,17288,12,-3476,-4680,23,-84,-36,35
631,17326,-4,-3342,-4684,23,-89,-36,33
632,17246,-42,-3314,-4682,23,-88,-41,38
633,17296,-26,-3328,-4677,23,-88,-39,31
634,17190,44,-3292,-4681,23,-86,-38,33
635,17292,-20,-3422,-4679,23,-87,-35,35
636,17268,-4,-3422,-4665,23,-87,-38,33
637,17254,24,-3352,-4671,23,-84,-38,35
638,17250,-26,-3414,-4660,23,-89,-37,33
639,17282,60,-3436,-4675,23,-86,-39,36
640,17296,52,-3430,-4682,23,-85,-40,34
641,17276,-4,-3478,-4670,23,-84,-39,35
642,17294,4,-3350,-4682,23,-87,-34,34
643,17278,72,-3358,-4678,23,-89,-36,31
644,17284,-14,-3472,-4670,23,-84,-37,37
645,17320,4,-3378,-4684,23,-86,-37,34
646,17308,-2,-3332,-4682,23,-88,-39,35
647,17274,-16,-3338,-4681,23,-84,-38,36
648,17292,4,-3370,-4668,23,-89,-40,31
649,17294,-48,-3398,-4673,23,-86,-40,36
650,17238,-8,-3384,-4677,23,-85,-38,32
651,17278,-50,-3320,-4678,23,-87,-40,36
652,17286,62,-3382,-4670,23,-85,-38,33
653,17290,-38,-3366,-4668,23,-86,-40,35
654,17268,-38,-3368,-4682,23,-87,-37,35
655,17274,-40,-3516,-4684,23,-86,-36,33
656,17252,28,-3254,-4675,23,-86,-38,34
657,17318,30,-3372,-4678,23,-88,-38,34
658,17298,34,-3354,-4683,23,-89,-40,35
659,17322,-36,-3362,-4679,23,-89,-35,36
660,17254,6,-3402,-4679,23,-89,-37,35
661,17220,16,-3416,-4674,23,-86,-36,33
662,17274,32,-3536,-4669,23,-85,-37,30
663,17274,-34,-3386,-4681,23,-86,-37,33
664,17276,18,-3332,-4681,23,-86,-37,35
665,17340,28,-3468,-4670,23,-89,-40,32
666,17302,70,-3306,-4682,23,-86,-37,32
667,17308,-14,-3338,-4671,23,-85,-35,32
668,17318,-34,-3452,-4666,23,-88,-36,36
669,17286,-4,-3392,-4676,23,-84,-41,36
670,17264,28,-3422,-4677,23,-85,-38,36
671,17264,28,-3416,-4677,23,-89,-38,34
672,17244,-26,-3342,-4677,23,-89,-41,33
673,17302,-12,-3466,-4674,23,-88,-37,35
674,17308,34,-3474,-4680,23,-89,-37,33
675,17268,32,-3348,-4672,23,-85,-40,33
676,17254,-18,-3406,-4676,23,-86,-41,36
677,17238,-26,-3440,-4669,23,-87,-39,34
678,17266,82,-3388,-4683,23,-84,-35,39
679,17282,12,-3418,-4681,23,-90,-36,32
680,17296,62,-3412,-4675,23,-88,-38,36
681,17316,-24,-3396,-4674,23,-89,-41,37
682,17220,-4,-3360,-4663,23,-87,-38,33
683,17296,8,-3380,-4670,23,-85,-39,31
684,17274,-14,-3374,-4681,23,-89,-38,36
685,17286,100,-3310,-4675,23,-86,-42,34
686,17240,42,-3406,-4677,23,-85,-38,35
687,17238,-8,-3384,-4677,23,-88,-39,35
688,17226,34,-3472,-4676,23,-90,-42,34
689,17304,46,-3364,-4669,23,-88,-37,35
690,17234,18,-3366,-4672,23,-89,-35,36
691,17288,-48,-3374,-4677,23,-86,-35,35
692,17400,28,-3428,-4677,23,-85,-34,37
693,17280,12,-3370,-4669,23,-83,-37,35
694,17262,-12,-3468,-4673,23,-89,-37,36
695,17272,-36,-3412,-4669,23,-87,-40,37
696,17270,46,-3414,-4675,23,-83,-39,34
697,17246,86,-3346,-4672,23,-89,-36,37
698,17320,-30,-3414,-4671,23,-87,-37,35
699,17318,-44,-3486,-4665,23,-87,-37,35
700,17282,18,-3336,-4671,23,-83,-37,33
701,17286,6,-3432,-4679,23,-86,-40,35
702,17266,42,-3416,-4673,23,-89,-38,35
703,17304,28,-3322,-4678,23,-88,-35,37
704,17250,2,-3424,-4684,23,-85,-39,31
705,17260,-4,-3300,-4668,23,-87,-38,35
706,17258,16,-3392,-4675,23,-88,-39,36
707,17310,-2,-3410,-4675,23,-87,-38,34
708,17248,54,-3356,-4677,23,-87,-36,31
709,17318,-10,-3420,-4678,23,-88,-38,34
710,17224,44,-3408,-4670,23,-85,-37,34
711,17334,-28,-3282,-4671,23,-90,-40,35
712,17268,84,-3338,-4683,23,-87,-41,37
713,17276,-6,-3360,-4675,23,-83,-38,33
714,17310,-26,-3384,-4677,23,-87,-38,36
715,17224,22,-3318,-4671,23,-90,-42,33
716,17234,42,-3382,-4666,23,-86,-36,32
717,17300,-44,-3326,-4676,23,-84,-36,34
718,17316,24,-3392,-4672,23,-85,-36,32
719,17268,-84,-3358,-4671,23,-90,-37,37
720,17244,18,-3364,-4679,23,-88,-40,33
721,17274,30,-3398,-4684,23,-86,-38,35
722,17308,40,-3402,-4672,23,-88,-39,36
723,17330,-2,-3406,-4675,23,-88,-36,35
724,17290,36,-3374,-4665,23,-85,-37,37
725,17288,24,-3382,-4670,23,-86,-39,32
726,17248,18,-3380,-4678,23,-89,-41,35
727,17250,14,-3408,-4662,23,-84,-41,34
728,17268,56,-3378,-4678,23,-90,-40,33
729,17318,28,-3340,-4670,23,-90,-40,33
730,17250,46,-3474,-4672,23,-86,-34,31
731,17222,12,-3398,-4680,23,-83,-35,34
732,17256,12,-3462,-4669,23,-83,-38,35
733,17230,80,-3376,-4664,23,-87,-40,36
734,17294,-16,-3358,-4669,23,-85,-39,34
735,17332,36,-3420,-4679,23,-86,-41,36
736,17240,2,-3354,-4677,23,-89,-38,38
737,17300,76,-3468,-4671,23,-91,-37,32
738,17252,14,-3476,-4672,23,-86,-39,35
739,17270,-2,-3288,-4671,23,-86,-40,34
740,17302,18,-3414,-4668,23,-86,-42,33
741,17280,30,-3372,-4668,23,-86,-39,33
742,17282,-16,-3416,-4671,23,-85,-37,34
743,17262,16,-3462,-4668,23,-82,-40,35
744,17362,72,-3416,-4676,23,-88,-42,30
745,17236,16,-3426,-4665,23,-90,-40,33
746,17222,58,-3358,-4678,23,-88,-41,34
747,17234,-26,-3362,-4676,23,-93,-38,34
748,17222,-30,-3450,-4665,23,-90,-37,36
749,17248,12,-3398,-4670,23,-87,-32,33
750,17328,-8,-3320,-4676,23,-90,-37,38
751,17326,-8,-3484,-4671,23,-89,-38,35
752,17248,16,-3428,-4668,23,-87,-39,34
753,17282,-18,-3410,-4670,23,-86,-36,34
754,17300,32,-3470,-4671,23,-85,-41,35
755,17274,-28,-3444,-4674,23,-87,-36,33
756,17248,18,-3360,-4671,23,-84,-40,35
757,17292,-78,-3412,-4680,23,-84,-38,37
758,17238,26,-3338,-4686,23,-84,-39,35
759,17234,-10,-3380,-4670,23,-86,-41,35
760,17202,34,-3334,-4674,23,-87,-33,34
761,17252,74,-3336,-4674,23,-84,-37,33
762,17246,40,-3414,-4665,23,-87,-38,33
763,17256,44,-3362,-4670,23,-86,-39,34
764,17282,-24,-3390,-4669,23,-86,-39,36
765,17282,-14,-3480,-4672,23,-86,-37,37
766,17296,16,-3418,-4687,23,-84,-39,34
767,17318,-16,-3390,-4670,23,-88,-36,32
768,17218,-10,-3436,-4674,23,-89,-36,35
769,17304,12,-3436,-4674,23,-88,-37,35
770,17276,30,-3346,-4662,23,-86,-31,35
771,17284,-4,-3410,-4670,23,-87,-34,37
772,17320,68,-3412,-4668,23,-87,-36,31
773,17276,-24,-3398,-4677,23,-89,-39,34
774,17344,52,-3358,-4667,23,-87,-37,35
775,17320,-6,-3470,-4672,23,-85,-35,37
776,17288,-10,-3376,-4668,23,-88,-40,34
777,17216,22,-3440,-4678,23,-86,-36,34
778,17244,-16,-3418,-4670,23,-86,-38,33
779,17332,30,-3308,-4671,23,-85,-40,34
780,17272,6,-3328,-4677,23,-87,-37,33
781,17336,6,-3362,-4667,23,-84,-36,32
782,17304,28,-3398,-4672,23,-87,-37,36
783,17332,-16,-3414,-4677,23,-89,-39,35
784,17288,26,-3398,-4681,23,-88,-38,33
785,17338,40,-3460,-4663,23,-86,-35,35
786,17270,-36,-3320,-4681,23,-92,-39,35
787,17176,-8,-3372,-4672,23,-89,-37,37
788,17286,18,-3372,-4663,23,-87,-38,32
789,17284,8,-3366,-4677,23,-86,-40,33
790,17214,6,-3342,-4669,23,-88,-40,37
791,17228,40,-3458,-4665,23,-86,-44,33
792,17326,-62,-3324,-4663,23,-87,-38,35
793,17238,-14,-3318,-4673,23,-86,-42,36
794,17268,12,-3402,-4664,23,-84,-39,33
795,17240,26,-3420,-4679,23,-87,-38,36
796,17306,-22,-3304,-4673,23,-86,-40,36
797,17282,6,-3384,-4665,23,-85,-41,33
798,17290,-38,-3384,-4675,23,-86,-39,33
799,17352,14,-3324,-4669,23,-87,-37,33
800,17290,10,-3374,-4671,23,-86,-39,32
801,17304,10,-3470,-4674,23,-86,-39,36
802,17310,14,-3386,-4665,23,-86,-39,34
803,17304,12,-3362,-4674,23,-85,-39,34
804,17322,30,-3374,-4671,23,-87,-39,33
805,17258,-2,-3414,-4670,23,-89,-41,35
806,17292,2,-3378,-4669,23,-83,-38,34
807,17274,42,-3420,-4675,23,-85,-36,35
808,17260,36,-3404,-4686,23,-86,-37,35
809,17276,-14,-3408,-4673,23,-90,-37,32
810,17306,-22,-3374,-4669,23,-90,-39,33
811,17254,-40,-3372,-4666,23,-88,-39,34
812,17256,-44,-3428,-4667,23,-87,-40,36
813,17280,-18,-3398,-4667,23,-87,-37,36
814,17264,-46,-3410,-4671,23,-84,-41,34
815,17266,14,-3460,-4667,23,-86,-39,36
816,17296,24,-3402,-4675,23,-88,-39,36
817,17284,-46,-3406,-4666,23,-90,-38,33
818,17262,-12,-3436,-4679,23,-86,-38,31
819,17246,42,-3410,-4676,23,-86,-37,35
820,17298,-40,-3416,-4669,23,-83,-37,30
821,17284,10,-3436,-4675,23,-87,-35,35
822,17316,12,-3364,-4678,23,-90,-36,35
823,17234,4,-3322,-4672,23,-87,-36,33
824,17284,-10,-3406,-4674,23,-88,-38,35
825,17242,10,-3432,-4676,23,-89,-38,35
826,17298,-26,-3342,-4671,23,-85,-37,34
827,17284,50,-3374,-4671,23,-86,-39,35
828,17270,4,-3452,-4682,23,-86,-37,34
829,17256,-2,-3432,-4673,23,-88,-40,37
830,17298,-18,-3488,-4677,23,-84,-39,34
831,17252,16,-3438,-4667,23,-85,-35,32
832,17368,64,-3370,-4663,23,-86,-39,34
833,17248,10,-3380,-4665,23,-86,-39,38
834,17318,58,-3426,-4667,23,-89,-38,33
835,17262,16,-3406,-4670,23,-85,-34,32
836,17326,66,-3364,-4667,23,-86,-40,34
837,17264,-18,-3430,-4677,23,-86,-40,33
838,17266,34,-3318,-4669,23,-85,-38,35
839,17320,-36,-3384,-4672,23,-85,-37,35
840,17306,20,-3408,-4670,23,-85,-41,37
841,17274,-12,-3406,-4668,23,-88,-35,32
842,17262,8,-3388,-4672,23,-88,-38,34
843,17250,-58,-3266,-4673,23,-88,-41,32
844,17330,32,-3392,-4665,23,-87,-40,34
845,17286,-18,-3372,-4679,23,-86,-36,36
846,17282,-10,-3394,-4665,23,-88,-37,35
847,17304,-6,-3440,-4673,23,-89,-39,33
848,17244,66,-3396,-4671,23,-92,-35,37
849,17320,22,-3420,-4682,23,-90,-38,36
850,17284,4,-3344,-4675,23,-82,-32,34
851,17282,20,-3424,-4672,23,-89,-37,33
852,17254,-22,-3360,-4670,23,-89,-35,33
853,17284,22,-3382,-4677,23,-91,-35,36
854,17336,10,-3420,-4670,23,-86,-37,34
855,17294,-84,-3432,-4678,23,-88,-38,33
856,17224,12,-3334,-4669,23,-88,-43,36
857,17222,-26,-3424,-4670,23,-86,-39,35
858,17272,-6,-3338,-4677,23,-87,-39,32
859,17286,-16,-3430,-4678,23,-88,-41,35
860,17276,-28,-3432,-4661,23,-84,-41,34
861,17306,38,-3430,-4673,23,-87,-35,36
862,17234,-24,-3280,-4673,23,-87,-38,37
863,17262,2,-3436,-4674,23,-87,-36,36
864,17292,18,-3308,-4675,23,-87,-37,34
865,17340,54,-3382,-4681,23,-87,-39,34
866,17306,46,-3324,-4664,23,-87,-39,33
867,17244,70,-3294,-4656,23,-83,-40,32
868,17246,28,-3388,-4664,23,-87,-40,34
869,17310,28,-3348,-4680,23,-89,-40,35
870,17310,34,-3354,-4661,23,-86,-39,35
871,17282,-10,-3366,-4683,23,-86,-35,33
872,17268,-30,-3354,-4678,23,-87,-38,34
873,17338,6,-3370,-4663,23,-84,-33,31
874,17226,10,-3478,-4672,23,-88,-34,35
875,17280,-28,-3438,-4678,23,-87,-40,34
876,17324,28,-3444,-4663,23,-88,-39,30
877,17292,28,-3366,-4664,23,-86,-37,31
878,17340,-14,-3342,-4673,23,-85,-37,31
879,17254,-50,-3426,-4664,23,-89,-37,35
880,17306,28,-3416,-4661,23,-89,-37,35
881,17332,18,-3360,-4665,23,-87,-41,34
882,17242,0,-3356,-4675,23,-88,-38,33
883,17254,10,-3368,-4653,23,-85,-39,34
884,17236,10,-3422,-4675,23,-87,-37,37
885,17248,46,-3474,-4673,23,-87,-38,36
886,17260,38,-3508,-4669,23,-86,-37,33
887,17262,2,-3436,-4679,23,-90,-41,34
888,17258,-22,-3404,-4673,23,-89,-41,32
889,17266,2,-3362,-4668,23,-85,-40,33
890,17258,38,-3444,-4671,23,-89,-39,36
891,17228,70,-3456,-4667,23,-87,-37,39
892,17348,-4,-3412,-4674,23,-86,-41,36
893,17268,-16,-3418,-4665,23,-89,-37,34
894,17308,-24,-3344,-4681,23,-87,-39,36
895,17286,-10,-3372,-4678,23,-85,-41,31
896,17328,48,-3428,-4667,23,-86,-38,34
897,17230,2,-3318,-4675,23,-89,-42,32
898,17270,50,-3436,-4673,23,-86,-38,34
899,17248,22,-3400,-4676,23,-86,-41,34
900,17270,78,-3462,-4660,23,-88,-38,34
901,17310,34,-3460,-4667,23,-87,-39,34
902,17298,22,-3424,-4663,23,-88,-38,36
903,17284,50,-3270,-4669,23,-85,-39,35
904,17272,-6,-3414,-4667,23,-88,-39,38
905,17244,16,-3414,-4667,23,-86,-41,35
906,17310,-42,-3446,-4669,23,-85,-36,35
907,17284,32,-3398,-4668,23,-88,-36,31
908,17248,50,-3410,-4662,23,-88,-41,36
909,17332,-82,-3398,-4681,23,-86,-40,35
910,17296,-32,-3430,-4678,23,-86,-38,38
911,17244,48,-3410,-4681,23,-88,-35,34
912,17266,56,-3408,-4682,23,-90,-40,36
913,17270,6,-3374,-4676,23,-85,-40,34
914,17256,24,-3356,-4677,23,-89,-36,34
915,17268,0,-3416,-4675,23,-89,-37,33
916,17244,-40,-3370,-4682,23,-88,-40,34
917,17270,24,-3410,-4671,23,-87,-40,37
918,17280,14,-3346,-4666,23,-88,-39,34
919,17212,26,-3402,-4679,23,-89,-36,33
920,17284,-4,-3440,-4670,23,-86,-37,37
921,17296,2,-3370,-4666,23,-86,-38,33
922,17284,8,-3350,-4669,23,-87,-40,33
923,17230,0,-3424,-4673,23,-86,-39,37
924,17286,58,-3338,-4671,23,-87,-36,35
925,17242,38,-3378,-4669,23,-87,-37,35
926,17294,-18,-3382,-4664,23,-90,-37,38
927,17264,-12,-3368,-4671,23,-90,-40,35
928,17316,32,-3348,-4673,23,-87,-39,33
929,17284,-20,-3362,-4665,23,-89,-38,37
930,17280,28,-3392,-4665,23,-89,-39,35
931,17346,-20,-3432,-4659,23,-87,-41,34
932,17282,28,-3364,-4670,23,-87,-39,37
933,17276,82,-3374,-4658,23,-86,-37,32
934,17288,-18,-3402,-4666,23,-85,-35,35
935,17322,-14,-3444,-4663,23,-87,-41,33
936,17224,-24,-3340,-4669,23,-88,-39,35
937,17258,10,-3382,-4659,23,-85,-36,34
938,17246,0,-3488,-4675,23,-88,-39,36
939,17308,28,-3420,-4670,23,-87,-38,35
940,17306,-8,-3378,-4669,23,-90,-38,35
941,17246,24,-3404,-4656,23,-89,-40,34
942,17308,-20,-3392,-4671,23,-87,-38,38
943,17270,54,-3432,-4671,23,-89,-37,36
944,17294,30,-3386,-4674,23,-85,-39,34
945,17266,34,-3352,-4665,23,-83,-39,34
946,17318,-28,-3418,-4667,23,-87,-39,35
947,17278,40,-3432,-4669,23,-85,-36,36
948,17304,-22,-3306,-4669,23,-87,-39,37
949,17320,-30,-3322,-4667,23,-85,-40,35
950,17298,-30,-3342,-4661,23,-87,-41,35
951,17200,100,-3442,-4673,23,-86,-38,34
952,17300,-18,-3390,-4672,23,-87,-39,33
953,17218,72,-3428,-4659,23,-83,-38,36
954,17260,24,-3410,-4672,23,-88,-37,33
955,17294,-12,-3452,-4677,23,-89,-41,35
956,17290,-2,-3438,-4669,23,-89,-38,34
957,17330,14,-3418,-4668,23,-86,-40,34
958,17248,-30,-3454,-4661,23,-83,-37,32
959,17282,14,-3332,-4665,23,-88,-39,33
960,17234,6,-3352,-4681,23,-89,-37,36
961,17306,58,-3388,-4654,23,-89,-41,33
962,17256,78,-3402,-4680,23,-84,-40,30
963,17268,-10,-3316,-4671,23,-88,-40,35
964,17344,44,-3438,-4662,23,-90,-35,34
965,17322,22,-3406,-4674,23,-89,-38,34
966,17306,80,-3342,-4671,23,-86,-39,34
967,17270,44,-3468,-4666,23,-89,-38,33
968,17264,-20,-3368,-4676,23,-85,-37,38
969,17228,26,-3402,-4676,23,-85,-37,38
970,17238,-22,-3418,-4672,23,-86,-37,30
971,17260,38,-3492,-4664,23,-86,-41,34
972,17278,46,-3380,-4663,23,-89,-40,34
973,17300,6,-3398,-4659,23,-90,-41,34
974,17278,48,-3350,-4667,23,-86,-39,37
975,17282,-14,-3468,-4673,23,-88,-39,32
976,17272,34,-3338,-4658,23,-84,-37,36
977,17270,18,-3468,-4678,23,-84,-38,33
978,17260,0,-3408,-4664,23,-88,-34,34
979,17250,-14,-3406,-4662,23,-87,-37,32
980,17258,12,-3374,-4666,23,-88,-37,36
981,17262,-8,-3316,-4670,23,-86,-37,35
982,17304,-30,-3464,-4667,23,-87,-36,34
983,17272,36,-3404,-4670,23,-84,-39,35
984,17336,14,-3388,-4663,23,-89,-39,32
985,17250,56,-3320,-4660,23,-87,-39,34
986,17258,6,-3358,-4660,23,-88,-37,34
987,17222,-22,-3502,-4658,23,-86,-35,35
988,17278,-62,-3354,-4662,23,-85,-37,35
989,17232,-8,-3342,-4679,23,-85,-38,35
990,17296,-36,-3504,-4665,23,-86,-35,33
991,17196,48,-3380,-4674,23,-86,-39,35
992,17286,-8,-3410,-4664,23,-90,-34,38
993,17306,24,-3368,-4672,23,-90,-37,35
994,17268,-18,-3330,-4674,23,-87,-41,34
995,17266,-58,-3362,-4677,23,-82,-36,33
996,17242,-36,-3380,-4675,23,-93,-38,34
997,17236,22,-3414,-4659,23,-89,-39,34
998,17326,50,-3428,-4680,23,-84,-37,30
