,acc_X,acc_Y,acc_Z,temp,tempC,gyr_X,gyr_Y,gyr_Z
0,17254,18,-3446,-4683,23,-172,-75,69
1,17250,8,-3438,-4685,23,-171,-76,70
2,17260,8,-3422,-4686,23,-172,-75,70
3,17260,0,-3414,-4686,23,-172,-75,69
4,17264,8,-3388,-4686,23,-172,-75,69
5,17260,10,-3390,-4686,23,-173,-75,69
6,17270,20,-3396,-4687,23,-172,-74,70
7,17264,12,-3398,-4686,23,-171,-74,70
8,17262,12,-3404,-4685,23,-172,-74,70
9,17262,16,-3398,-4684,23,-173,-74,71
10,17264,16,-3416,-4685,23,-174,-74,71
11,17268,18,-3398,-4683,23,-173,-73,71
12,17278,8,-3416,-4682,23,-174,-73,69
13,17288,12,-3400,-4681,23,-174,-72,70
14,17284,18,-3398,-4684,23,-174,-73,69
15,17296,8,-3400,-4687,23,-173,-75,70
16,17294,6,-3396,-4686,23,-173,-75,68
17,17288,6,-3410,-4685,23,-173,-75,68
18,17282,14,-3412,-4684,23,-175,-76,69
19,17286,4,-3402,-4685,23,-175,-76,69
20,17280,6,-3406,-4686,23,-174,-75,68
21,17278,2,-3414,-4687,23,-175,-75,70
22,17278,2,-3418,-4685,23,-175,-76,69
23,17280,6,-3408,-4685,23,-175,-77,69
24,17276,12,-3410,-4684,23,-174,-77,69
25,17272,14,-3404,-4681,23,-173,-77,69
26,17268,14,-3412,-4681,23,-174,-76,70
27,17264,18,-3416,-4680,23,-173,-77,69
28,17268,16,-3418,-4681,23,-172,-76,69
29,17278,20,-3404,-4682,23,-173,-76,68
30,17284,16,-3410,-4682,23,-175,-76,68
31,17282,20,-3408,-4681,23,-175,-76,68
32,17278,16,-3416,-4681,23,-175,-76,68
33,17266,10,-3414,-4682,23,-175,-76,68
34,17280,8,-3418,-4682,23,-173,-77,69
35,17274,8,-3428,-4681,23,-174,-77,69
36,17270,20,-3434,-4681,23,-174,-77,69
37,17272,24,-3448,-4682,23,-174,-77,68
38,17270,26,-3430,-4681,23,-175,-76,68
39,17270,14,-3438,-4680,23,-174,-75,69
40,17272,12,-3440,-4681,23,-174,-74,69
41,17270,26,-3416,-4681,23,-173,-73,70
42,17262,30,-3414,-4680,23,-174,-73,71
43,17258,20,-3414,-4679,23,-173,-73,71
44,17262,20,-3424,-4679,23,-173,-75,71
45,17260,18,-3420,-4679,23,-173,-74,70
46,17260,12,-3414,-4680,23,-172,-74,70
47,17270,8,-3402,-4681,23,-173,-74,69
48,17270,14,-3400,-4681,23,-172,-74,69
49,17278,18,-3398,-4680,23,-172,-74,69
50,17274,14,-3402,-4682,23,-172,-74,69
51,17274,12,-3392,-4682,23,-172,-74,70
52,17270,10,-3416,-4682,23,-172,-75,69
53,17270,12,-3420,-4681,23,-173,-75,68
54,17258,14,-3418,-4682,23,-174,-74,69
55,17266,10,-3418,-4682,23,-174,-75,69
56,17266,8,-3420,-4681,23,-175,-73,69
57,17266,12,-3436,-4680,23,-175,-73,70
58,17268,0,-3434,-4679,23,-175,-72,70
59,17264,-2,-3432,-4679,23,-174,-74,70
60,17264,2,-3418,-4679,23,-173,-74,70
61,17262,-8,-3416,-4680,23,-172,-74,70
62,17266,-8,-3428,-4680,23,-173,-75,70
63,17268,0,-3434,-4681,23,-173,-74,69
64,17270,4,-3420,-4681,23,-171,-75,69
65,17274,4,-3410,-4680,23,-171,-75,69
66,17252,2,-3414,-4681,23,-173,-76,68
67,17250,2,-3398,-4680,23,-173,-76,67
68,17254,6,-3412,-4677,23,-173,-75,69
69,17260,6,-3404,-4679,23,-174,-77,69
70,17266,6,-3392,-4680,23,-174,-76,68
71,17278,20,-3396,-4679,23,-174,-76,70
72,17280,14,-3402,-4681,23,-174,-74,70
73,17280,2,-3392,-4682,23,-175,-76,71
74,17280,-4,-3408,-4682,23,-173,-77,71
75,17270,-8,-3394,-4681,23,-174,-78,70
76,17264,-6,-3414,-4681,23,-174,-77,70
77,17256,10,-3432,-4680,23,-174,-76,69
78,17270,6,-3434,-4681,23,-174,-76,70
79,17274,12,-3436,-4681,23,-174,-75,70
80,17278,8,-3440,-4681,23,-174,-74,69
81,17274,6,-3434,-4682,23,-174,-74,69
82,17272,10,-3416,-4683,23,-174,-74,70
83,17268,14,-3418,-4682,23,-175,-75,69
84,17280,10,-3408,-4681,23,-176,-74,69
85,17280,16,-3408,-4680,23,-175,-74,69
86,17280,22,-3408,-4682,23,-175,-73,69
87,17286,14,-3414,-4681,23,-176,-72,71
88,17278,12,-3420,-4681,23,-175,-73,70
89,17276,6,-3428,-4679,23,-176,-73,70
90,17274,6,-3412,-4681,23,-175,-73,70
91,17276,-6,-3416,-4684,23,-174,-74,71
92,17276,-14,-3410,-4684,23,-175,-73,69
93,17278,-14,-3416,-4684,23,-175,-74,69
94,17276,4,-3426,-4683,23,-174,-73,69
95,17276,6,-3434,-4683,23,-174,-74,69
96,17272,2,-3426,-4684,23,-175,-75,69
97,17268,4,-3420,-4685,23,-175,-74,70
98,17274,12,-3424,-4683,23,-173,-75,70
99,17276,14,-3396,-4684,23,-173,-74,69
100,17272,18,-3408,-4685,23,-173,-73,70
101,17266,14,-3408,-4684,23,-173,-75,69
102,17268,16,-3392,-4682,23,-173,-75,69
103,17276,18,-3402,-4683,23,-174,-76,69
104,17264,22,-3404,-4684,23,-174,-76,68
105,17280,34,-3412,-4682,23,-175,-76,69
106,17276,22,-3414,-4681,23,-174,-76,70
107,17268,12,-3420,-4680,23,-174,-77,69
108,17264,10,-3418,-4680,23,-174,-77,69
109,17266,4,-3410,-4681,23,-175,-77,69
110,17262,2,-3402,-4682,23,-175,-76,69
111,17276,10,-3422,-4683,23,-174,-77,69
112,17272,22,-3422,-4683,23,-174,-75,68
113,17274,14,-3418,-4683,23,-173,-76,69
114,17276,14,-3416,-4683,23,-173,-75,69
115,17276,20,-3420,-4683,23,-173,-73,68
116,17272,22,-3414,-4682,23,-173,-73,69
117,17276,18,-3396,-4680,23,-174,-73,70
118,17274,14,-3388,-4680,23,-174,-74,70
119,17282,16,-3408,-4678,23,-173,-73,69
120,17272,22,-3410,-4679,23,-174,-74,70
121,17278,26,-3418,-4679,23,-174,-75,70
122,17280,20,-3434,-4679,23,-174,-76,70
123,17272,20,-3428,-4678,23,-172,-75,69
124,17268,16,-3412,-4679,23,-174,-76,69
125,17274,22,-3404,-4681,23,-174,-75,68
126,17282,30,-3398,-4682,23,-174,-76,68
127,17284,12,-3402,-4682,23,-173,-76,68
128,17284,16,-3410,-4683,23,-173,-76,68
129,17282,10,-3416,-4683,23,-173,-77,68
130,17276,18,-3420,-4681,23,-173,-77,68
131,17272,20,-3428,-4681,23,-174,-76,67
132,17276,20,-3426,-4680,23,-174,-77,69
133,17280,18,-3434,-4679,23,-174,-76,71
134,17280,12,-3430,-4680,23,-174,-76,71
135,17288,18,-3414,-4678,23,-173,-75,71
136,17280,12,-3426,-4679,23,-174,-73,71
137,17282,4,-3432,-4680,23,-174,-76,70
138,17272,0,-3424,-4678,23,-175,-75,70
139,17270,4,-3414,-4679,23,-174,-75,69
140,17258,12,-3414,-4679,23,-174,-75,70
141,17266,12,-3394,-4680,23,-174,-74,69
142,17268,16,-3386,-4682,23,-173,-75,69
143,17274,4,-3380,-4682,23,-173,-75,69
144,17278,10,-3392,-4682,23,-174,-75,67
145,17272,16,-3398,-4681,23,-174,-76,66
146,17268,20,-3410,-4681,23,-174,-76,66
147,17268,16,-3424,-4680,23,-174,-75,67
148,17266,14,-3432,-4680,23,-173,-74,68
149,17272,18,-3420,-4679,23,-173,-75,68
150,17272,16,-3406,-4678,23,-172,-77,69
151,17278,18,-3408,-4678,23,-171,-77,69
152,17272,18,-3402,-4677,23,-171,-75,69
153,17274,0,-3414,-4678,23,-171,-77,68
154,17270,0,-3414,-4677,23,-172,-78,69
155,17274,-4,-3422,-4678,23,-172,-77,69
156,17268,2,-3416,-4679,23,-172,-77,69
157,17274,12,-3416,-4678,23,-173,-76,69
158,17268,8,-3414,-4677,23,-172,-76,70
159,17272,8,-3416,-4677,23,-173,-76,71
160,17274,18,-3414,-4677,23,-172,-75,70
161,17272,16,-3424,-4676,23,-172,-74,70
162,17270,26,-3430,-4677,23,-173,-74,70
163,17270,32,-3430,-4678,23,-172,-75,70
164,17272,22,-3418,-4678,23,-173,-75,71
165,17270,30,-3414,-4678,23,-173,-75,70
166,17272,28,-3414,-4677,23,-174,-73,70
167,17268,22,-3422,-4677,23,-174,-73,70
168,17270,6,-3438,-4678,23,-173,-73,70
169,17276,14,-3432,-4679,23,-174,-73,70
170,17274,16,-3438,-4680,23,-173,-74,71
171,17260,12,-3420,-4684,23,-173,-74,71
172,17260,10,-3412,-4682,23,-173,-74,70
173,17254,12,-3396,-4680,23,-173,-74,70
174,17250,8,-3394,-4680,23,-172,-73,68
175,17266,-2,-3406,-4681,23,-173,-76,67
176,17268,4,-3416,-4681,23,-173,-76,68
177,17272,8,-3410,-4681,23,-173,-75,67
178,17270,14,-3434,-4681,23,-174,-76,68
179,17272,14,-3424,-4681,23,-174,-75,68
180,17276,14,-3436,-4680,23,-175,-76,68
181,17272,22,-3428,-4681,23,-175,-76,70
182,17278,26,-3428,-4682,23,-174,-76,70
183,17274,12,-3426,-4681,23,-174,-75,69
184,17280,0,-3438,-4682,23,-175,-75,68
185,17284,-2,-3428,-4682,23,-175,-75,69
186,17284,6,-3416,-4682,23,-174,-75,68
187,17276,10,-3418,-4681,23,-173,-75,67
188,17272,20,-3418,-4681,23,-174,-75,67
189,17280,24,-3420,-4680,23,-172,-76,68
190,17282,16,-3436,-4679,23,-173,-75,68
191,17278,12,-3438,-4677,23,-173,-75,69
192,17270,12,-3440,-4678,23,-173,-75,68
193,17264,8,-3442,-4678,23,-173,-75,69
194,17270,12,-3448,-4678,23,-173,-77,70
195,17270,12,-3436,-4676,23,-174,-76,70
196,17264,18,-3420,-4678,23,-175,-76,69
197,17262,12,-3406,-4679,23,-173,-76,69
198,17264,10,-3418,-4680,23,-173,-76,69
199,17252,8,-3424,-4681,23,-172,-75,69
200,17262,6,-3430,-4679,23,-173,-77,68
201,17268,16,-3420,-4680,23,-173,-77,68
202,17270,14,-3418,-4678,23,-173,-76,68
203,17268,14,-3408,-4678,23,-172,-75,69
204,17266,18,-3424,-4679,23,-173,-76,70
205,17270,22,-3432,-4677,23,-172,-77,70
206,17272,14,-3428,-4678,23,-172,-75,70
207,17270,22,-3426,-4678,23,-171,-74,70
208,17266,22,-3422,-4678,23,-172,-77,70
209,17264,22,-3410,-4679,23,-171,-76,70
210,17258,18,-3410,-4681,23,-171,-76,70
211,17264,12,-3408,-4680,23,-172,-75,71
212,17272,16,-3406,-4680,23,-172,-76,70
213,17258,16,-3404,-4681,23,-172,-76,71
214,17268,10,-3412,-4680,23,-171,-74,71
215,17272,6,-3436,-4679,23,-171,-74,71
216,17270,8,-3428,-4681,23,-171,-74,70
217,17262,10,-3440,-4681,23,-172,-73,70
218,17262,12,-3440,-4681,23,-172,-74,68
219,17260,14,-3426,-4681,23,-173,-73,68
220,17256,18,-3428,-4679,23,-173,-74,68
221,17258,32,-3410,-4679,23,-173,-73,68
222,17262,16,-3410,-4679,23,-173,-73,68
223,17262,22,-3412,-4679,23,-172,-74,68
224,17260,10,-3416,-4678,23,-172,-74,68
225,17262,2,-3422,-4679,23,-172,-74,68
226,17262,-4,-3420,-4680,23,-172,-74,68
227,17252,4,-3410,-4681,23,-173,-75,69
228,17260,8,-3404,-4681,23,-173,-75,69
229,17264,12,-3410,-4680,23,-174,-76,70
230,17266,14,-3408,-4678,23,-174,-75,69
231,17272,18,-3410,-4676,23,-172,-76,70
232,17270,18,-3408,-4676,23,-173,-75,69
233,17276,6,-3416,-4676,23,-172,-75,69
234,17272,4,-3424,-4677,23,-172,-76,68
235,17268,6,-3416,-4677,23,-172,-76,67
236,17262,14,-3430,-4677,23,-171,-74,67
237,17270,16,-3416,-4677,23,-172,-74,67
238,17264,10,-3418,-4678,23,-173,-75,68
239,17268,6,-3438,-4679,23,-174,-74,68
240,17274,12,-3428,-4677,23,-174,-74,68
241,17276,16,-3426,-4676,23,-174,-74,67
242,17266,2,-3436,-4677,23,-173,-75,68
243,17266,6,-3454,-4678,23,-173,-76,68
244,17270,6,-3442,-4680,23,-173,-76,68
245,17262,8,-3438,-4680,23,-173,-76,68
246,17270,10,-3426,-4681,23,-173,-77,68
247,17270,0,-3422,-4680,23,-174,-76,69
248,17274,2,-3414,-4678,23,-173,-76,69
249,17278,-4,-3406,-4679,23,-174,-76,70
250,17278,-2,-3424,-4679,23,-175,-77,69
251,17278,-4,-3426,-4678,23,-175,-77,69
252,17272,-6,-3430,-4677,23,-175,-78,69
253,17264,-2,-3432,-4678,23,-175,-77,70
254,17260,-2,-3438,-4676,23,-175,-77,69
255,17280,6,-3436,-4677,23,-174,-78,69
256,17280,6,-3430,-4679,23,-174,-77,68
257,17272,2,-3426,-4679,23,-175,-77,69
258,17272,14,-3424,-4678,23,-175,-77,68
259,17272,16,-3418,-4678,23,-175,-77,69
260,17278,22,-3398,-4678,23,-174,-78,69
261,17286,20,-3400,-4676,23,-173,-78,70
262,17282,14,-3396,-4676,23,-173,-77,70
263,17268,8,-3394,-4676,23,-173,-77,70
264,17268,0,-3402,-4677,23,-174,-76,70
265,17262,8,-3396,-4675,23,-173,-76,69
266,17268,10,-3426,-4676,23,-173,-76,69
267,17274,16,-3412,-4677,23,-175,-76,70
268,17276,10,-3408,-4678,23,-175,-75,70
269,17270,10,-3394,-4679,23,-176,-75,70
270,17274,6,-3396,-4678,23,-175,-75,70
271,17268,14,-3392,-4677,23,-176,-75,69
272,17272,22,-3392,-4677,23,-176,-74,70
273,17282,22,-3412,-4676,23,-176,-73,70
274,17268,20,-3412,-4678,23,-176,-76,69
275,17270,28,-3416,-4678,23,-175,-76,69
276,17262,14,-3410,-4679,23,-174,-75,69
277,17268,10,-3402,-4676,23,-174,-74,70
278,17276,6,-3404,-4678,23,-174,-75,69
279,17286,10,-3416,-4675,23,-174,-75,70
280,17284,12,-3410,-4675,23,-175,-76,70
281,17278,14,-3404,-4675,23,-174,-75,70
282,17278,10,-3408,-4674,23,-175,-75,69
283,17274,2,-3410,-4674,23,-174,-75,70
284,17270,12,-3414,-4676,23,-174,-75,70
285,17268,10,-3392,-4678,23,-174,-74,69
286,17272,18,-3402,-4679,23,-174,-74,68
287,17278,20,-3424,-4677,23,-173,-74,70
288,17282,22,-3424,-4678,23,-172,-74,70
289,17278,24,-3420,-4677,23,-172,-74,69
290,17280,26,-3416,-4676,23,-173,-74,69
291,17280,18,-3408,-4677,23,-173,-75,70
292,17274,14,-3406,-4676,23,-173,-75,70
293,17268,14,-3396,-4676,23,-174,-76,70
294,17274,10,-3408,-4676,23,-175,-76,70
295,17278,10,-3408,-4677,23,-174,-75,70
296,17274,6,-3414,-4677,23,-175,-74,69
297,17268,4,-3412,-4679,23,-174,-76,69
298,17270,-4,-3404,-4678,23,-175,-76,70
299,17274,0,-3406,-4678,23,-175,-76,70
300,17268,6,-3404,-4676,23,-174,-75,69
301,17256,4,-3396,-4676,23,-174,-75,68
302,17252,8,-3390,-4676,23,-174,-76,68
303,17246,4,-3378,-4676,23,-174,-76,67
304,17244,6,-3388,-4676,23,-173,-75,67
305,17242,12,-3398,-4678,23,-174,-75,66
306,17240,12,-3408,-4677,23,-173,-75,67
307,17240,10,-3418,-4679,23,-174,-75,67
308,17250,10,-3394,-4680,23,-174,-75,67
309,17252,4,-3392,-4678,23,-174,-76,67
310,17266,4,-3386,-4677,23,-174,-75,68
311,17268,4,-3392,-4677,23,-172,-75,69
312,17268,4,-3388,-4677,23,-172,-76,67
313,17264,8,-3400,-4678,23,-172,-76,68
314,17266,4,-3396,-4678,23,-172,-75,68
315,17272,-2,-3396,-4677,23,-172,-75,69
316,17276,12,-3406,-4678,23,-172,-75,69
317,17274,16,-3400,-4679,23,-172,-75,69
318,17264,14,-3402,-4678,23,-173,-76,69
319,17266,10,-3414,-4676,23,-174,-75,68
320,17272,10,-3418,-4677,23,-175,-76,68
321,17286,12,-3430,-4677,23,-175,-75,69
322,17292,20,-3428,-4675,23,-175,-74,70
323,17290,14,-3432,-4676,23,-174,-76,70
324,17280,12,-3442,-4676,23,-175,-76,71
325,17276,14,-3420,-4677,23,-174,-74,72
326,17282,10,-3428,-4677,23,-174,-72,72
327,17278,14,-3422,-4675,23,-173,-73,70
328,17278,16,-3424,-4674,23,-173,-73,69
329,17272,22,-3430,-4677,23,-173,-75,68
330,17266,20,-3442,-4678,23,-173,-75,69
331,17266,16,-3448,-4679,23,-173,-75,70
332,17274,12,-3444,-4679,23,-173,-76,70
333,17284,14,-3430,-4676,23,-173,-75,69
334,17284,10,-3436,-4674,23,-174,-74,69
335,17284,10,-3436,-4675,23,-173,-74,70
336,17282,14,-3432,-4677,23,-173,-74,70
337,17284,12,-3432,-4676,23,-173,-73,69
338,17276,14,-3438,-4676,23,-173,-74,69
339,17276,2,-3436,-4678,23,-173,-74,69
340,17274,6,-3426,-4678,23,-173,-76,70
341,17274,8,-3430,-4677,23,-174,-75,70
342,17274,12,-3418,-4676,23,-173,-75,70
343,17260,20,-3426,-4677,23,-173,-76,69
344,17254,22,-3430,-4676,23,-174,-75,69
345,17258,22,-3442,-4675,23,-174,-76,69
346,17262,14,-3430,-4676,23,-173,-76,69
347,17268,6,-3438,-4675,23,-174,-77,69
348,17272,-8,-3430,-4675,23,-174,-77,70
349,17266,-4,-3436,-4676,23,-174,-77,70
350,17262,10,-3434,-4675,23,-174,-75,69
351,17262,18,-3434,-4676,23,-173,-74,69
352,17266,14,-3436,-4677,23,-172,-74,69
353,17262,12,-3436,-4676,23,-172,-74,68
354,17262,6,-3428,-4676,23,-174,-73,69
355,17264,10,-3408,-4675,23,-173,-74,68
356,17258,14,-3414,-4675,23,-174,-74,69
357,17256,18,-3422,-4675,23,-174,-73,69
358,17254,14,-3412,-4676,23,-174,-73,69
359,17266,8,-3414,-4675,23,-174,-73,69
360,17262,0,-3408,-4675,23,-173,-74,69
361,17270,12,-3416,-4676,23,-173,-75,70
362,17272,14,-3414,-4676,23,-172,-76,70
363,17260,12,-3426,-4676,23,-173,-76,69
364,17258,6,-3422,-4676,23,-173,-76,68
365,17266,18,-3416,-4676,23,-172,-76,69
366,17264,10,-3422,-4675,23,-171,-76,70
367,17260,14,-3420,-4674,23,-172,-75,70
368,17264,10,-3420,-4674,23,-173,-75,68
369,17264,6,-3424,-4676,23,-173,-75,69
370,17264,10,-3424,-4675,23,-172,-75,69
371,17256,12,-3418,-4675,23,-172,-75,70
372,17258,22,-3406,-4676,23,-173,-75,70
373,17260,10,-3402,-4676,23,-173,-76,69
374,17266,0,-3404,-4677,23,-173,-75,70
375,17268,2,-3408,-4677,23,-173,-76,70
376,17276,8,-3408,-4677,23,-175,-75,69
377,17278,4,-3412,-4676,23,-174,-74,69
378,17272,-2,-3404,-4674,23,-174,-75,70
379,17264,6,-3408,-4673,23,-173,-76,71
380,17258,18,-3406,-4673,23,-174,-75,71
381,17250,16,-3400,-4674,23,-172,-75,70
382,17258,18,-3396,-4676,23,-173,-75,70
383,17268,10,-3400,-4674,23,-173,-76,69
384,17276,16,-3412,-4674,23,-174,-74,69
385,17280,8,-3412,-4676,23,-173,-75,69
386,17268,6,-3416,-4675,23,-172,-74,69
387,17256,6,-3416,-4674,23,-173,-74,69
388,17260,12,-3420,-4674,23,-174,-75,69
389,17266,10,-3412,-4673,23,-173,-75,70
390,17266,8,-3422,-4673,23,-174,-75,70
391,17260,-6,-3428,-4673,23,-173,-75,70
392,17264,0,-3436,-4674,23,-174,-75,70
393,17266,4,-3434,-4674,23,-174,-76,70
394,17266,6,-3432,-4674,23,-173,-76,69
395,17260,6,-3430,-4674,23,-173,-76,69
396,17262,14,-3422,-4675,23,-172,-76,70
397,17256,18,-3418,-4675,23,-173,-74,70
398,17262,20,-3412,-4674,23,-173,-74,70
399,17260,24,-3418,-4675,23,-173,-75,69
400,17266,18,-3428,-4674,23,-174,-77,69
401,17272,8,-3434,-4674,23,-173,-77,70
402,17280,10,-3410,-4674,23,-172,-78,70
403,17284,6,-3414,-4674,23,-172,-77,69
404,17272,-2,-3416,-4674,23,-173,-77,69
405,17266,-4,-3408,-4673,23,-173,-77,69
406,17260,-2,-3418,-4674,23,-174,-77,69
407,17266,-2,-3426,-4676,23,-174,-77,69
408,17274,6,-3420,-4675,23,-174,-75,69
409,17272,12,-3416,-4676,23,-174,-75,69
410,17280,22,-3418,-4674,23,-173,-75,69
411,17274,14,-3430,-4676,23,-174,-75,69
412,17268,14,-3424,-4677,23,-174,-74,68
413,17264,16,-3414,-4677,23,-173,-74,68
414,17284,24,-3420,-4675,23,-174,-74,68
415,17280,24,-3414,-4675,23,-173,-76,69
416,17274,20,-3412,-4678,23,-173,-76,70
417,17272,20,-3406,-4678,23,-173,-77,70
418,17280,20,-3410,-4677,23,-174,-78,69
419,17284,16,-3396,-4677,23,-173,-77,70
420,17278,16,-3414,-4675,23,-173,-76,69
421,17266,20,-3412,-4674,23,-174,-76,69
422,17260,8,-3412,-4674,23,-174,-75,70
423,17262,16,-3434,-4674,23,-174,-75,70
424,17270,24,-3426,-4676,23,-173,-76,69
425,17268,18,-3430,-4677,23,-172,-76,70
426,17266,20,-3408,-4675,23,-172,-76,70
427,17264,12,-3430,-4674,23,-173,-77,70
428,17274,2,-3442,-4676,23,-173,-76,71
429,17260,8,-3434,-4677,23,-174,-76,71
430,17252,10,-3426,-4677,23,-174,-77,69
431,17266,6,-3426,-4677,23,-173,-77,70
432,17266,-2,-3430,-4677,23,-174,-77,70
433,17270,4,-3442,-4677,23,-174,-77,69
434,17268,0,-3434,-4677,23,-174,-77,69
435,17276,0,-3432,-4677,23,-175,-76,70
436,17274,-2,-3442,-4675,23,-175,-75,70
437,17270,-4,-3432,-4677,23,-174,-75,71
438,17272,-4,-3420,-4677,23,-173,-75,71
439,17266,6,-3408,-4677,23,-173,-76,71
440,17266,6,-3426,-4677,23,-174,-76,71
441,17270,16,-3426,-4675,23,-174,-76,70
442,17272,18,-3440,-4674,23,-174,-77,70
443,17278,2,-3426,-4675,23,-174,-76,70
444,17282,-6,-3422,-4676,23,-173,-76,69
445,17280,-14,-3420,-4677,23,-173,-75,70
446,17278,-14,-3408,-4676,23,-173,-76,70
447,17282,-2,-3404,-4677,23,-173,-75,69
448,17274,4,-3412,-4676,23,-173,-75,69
449,17270,-2,-3406,-4677,23,-173,-75,69
450,17266,-6,-3404,-4677,23,-172,-75,70
451,17252,2,-3412,-4677,23,-173,-74,70
452,17252,4,-3412,-4678,23,-174,-74,71
453,17264,4,-3410,-4676,23,-174,-75,71
454,17256,10,-3412,-4675,23,-174,-75,71
455,17262,8,-3414,-4675,23,-173,-76,71
456,17258,2,-3420,-4675,23,-172,-74,71
457,17258,0,-3428,-4677,23,-172,-74,71
458,17266,6,-3436,-4676,23,-172,-74,71
459,17272,10,-3426,-4676,23,-172,-74,71
460,17272,16,-3420,-4676,23,-172,-74,70
461,17266,20,-3404,-4677,23,-172,-74,70
462,17266,20,-3408,-4675,23,-172,-74,70
463,17262,28,-3422,-4675,23,-171,-74,69
464,17260,20,-3430,-4675,23,-172,-74,68
465,17268,6,-3422,-4676,23,-172,-74,68
466,17274,4,-3426,-4675,23,-173,-77,68
467,17274,4,-3426,-4675,23,-173,-76,69
468,17276,12,-3424,-4674,23,-173,-78,69
469,17270,8,-3402,-4674,23,-174,-77,70
470,17270,8,-3424,-4675,23,-173,-77,70
471,17282,6,-3416,-4675,23,-174,-77,70
472,17282,6,-3420,-4675,23,-175,-76,70
473,17276,-6,-3426,-4676,23,-174,-76,70
474,17272,12,-3412,-4676,23,-173,-75,70
475,17266,8,-3404,-4675,23,-173,-75,70
476,17262,12,-3396,-4673,23,-174,-76,70
477,17264,20,-3416,-4672,23,-174,-75,70
478,17264,26,-3418,-4673,23,-174,-75,71
479,17268,22,-3402,-4672,23,-174,-75,70
480,17274,28,-3390,-4672,23,-173,-75,70
481,17272,24,-3386,-4672,23,-172,-75,69
482,17272,16,-3388,-4674,23,-172,-74,70
483,17268,22,-3386,-4673,23,-173,-75,70
484,17266,20,-3384,-4673,23,-174,-76,71
485,17262,22,-3384,-4673,23,-174,-74,71
486,17268,18,-3398,-4672,23,-174,-75,72
487,17264,6,-3398,-4674,23,-174,-75,73
488,17258,6,-3390,-4675,23,-173,-75,73
489,17260,18,-3398,-4677,23,-173,-75,73
490,17258,14,-3410,-4677,23,-173,-73,71
491,17268,12,-3414,-4675,23,-173,-73,70
492,17272,16,-3424,-4675,23,-173,-74,70
493,17274,18,-3432,-4675,23,-173,-74,70
494,17274,14,-3424,-4674,23,-174,-75,69
495,17266,14,-3430,-4673,23,-173,-74,69
496,17270,4,-3420,-4673,23,-173,-74,69
497,17290,-2,-3432,-4674,23,-174,-74,68
498,17284,8,-3434,-4674,23,-174,-75,68
499,17280,14,-3424,-4675,23,-173,-76,70
500,17280,14,-3430,-4675,23,-173,-76,69
501,17282,4,-3424,-4675,23,-172,-76,69
502,17274,-2,-3430,-4675,23,-173,-74,69
503,17272,-4,-3424,-4675,23,-173,-74,69
504,17274,2,-3398,-4674,23,-172,-74,70
505,17274,0,-3400,-4675,23,-172,-74,69
506,17272,12,-3414,-4676,23,-172,-74,69
507,17272,6,-3404,-4676,23,-172,-74,70
508,17272,14,-3402,-4675,23,-172,-75,70
509,17266,16,-3412,-4675,23,-172,-74,69
510,17266,18,-3404,-4673,23,-173,-74,71
511,17268,24,-3404,-4673,23,-174,-75,71
512,17266,22,-3404,-4671,23,-174,-74,70
513,17258,14,-3404,-4671,23,-174,-75,68
514,17264,16,-3412,-4670,23,-174,-76,68
515,17262,8,-3412,-4671,23,-175,-75,69
516,17268,10,-3408,-4670,23,-174,-74,69
517,17262,16,-3414,-4671,23,-175,-74,69
518,17270,12,-3422,-4672,23,-174,-75,69
519,17284,12,-3426,-4673,23,-174,-74,69
520,17286,6,-3424,-4672,23,-173,-73,70
521,17284,10,-3410,-4673,23,-173,-73,70
522,17284,6,-3412,-4672,23,-173,-75,69
523,17280,2,-3404,-4671,23,-174,-74,69
524,17280,6,-3424,-4672,23,-173,-74,69
525,17278,14,-3434,-4673,23,-173,-75,70
526,17266,12,-3444,-4674,23,-173,-75,70
527,17272,8,-3426,-4675,23,-174,-74,70
528,17268,8,-3424,-4674,23,-174,-74,69
529,17270,4,-3430,-4672,23,-175,-74,70
530,17272,8,-3424,-4673,23,-174,-75,69
531,17274,8,-3422,-4673,23,-173,-75,69
532,17280,2,-3414,-4673,23,-173,-74,69
533,17278,8,-3422,-4674,23,-172,-75,69
534,17262,16,-3414,-4675,23,-173,-75,69
535,17264,10,-3410,-4677,23,-172,-76,69
536,17264,10,-3420,-4675,23,-172,-76,69
537,17278,4,-3426,-4677,23,-171,-76,68
538,17270,0,-3424,-4676,23,-172,-76,68
539,17266,-4,-3416,-4676,23,-171,-76,68
540,17266,0,-3426,-4675,23,-172,-76,69
541,17280,-4,-3434,-4674,23,-172,-77,69
542,17274,2,-3432,-4674,23,-173,-77,68
543,17270,14,-3448,-4673,23,-173,-77,69
544,17272,12,-3440,-4674,23,-174,-74,69
545,17276,14,-3434,-4674,23,-175,-75,68
546,17266,14,-3428,-4676,23,-174,-73,69
547,17266,8,-3434,-4675,23,-174,-74,70
548,17262,2,-3438,-4675,23,-175,-75,70
549,17270,4,-3438,-4674,23,-174,-74,69
550,17266,10,-3442,-4672,23,-174,-75,69
551,17272,12,-3434,-4674,23,-173,-76,70
552,17288,18,-3444,-4675,23,-172,-75,70
553,17290,22,-3432,-4675,23,-171,-74,71
554,17288,24,-3428,-4676,23,-171,-73,69
555,17290,20,-3416,-4674,23,-172,-74,69
556,17286,20,-3422,-4675,23,-173,-75,69
557,17278,12,-3414,-4675,23,-173,-74,69
558,17278,14,-3428,-4675,23,-173,-74,69
559,17274,16,-3426,-4676,23,-173,-74,70
560,17272,14,-3418,-4675,23,-173,-75,70
561,17274,16,-3418,-4672,23,-174,-76,70
562,17274,14,-3410,-4672,23,-175,-76,70
563,17280,10,-3398,-4672,23,-174,-76,69
564,17282,12,-3402,-4674,23,-175,-77,70
565,17286,6,-3398,-4676,23,-175,-77,69
566,17288,-2,-3404,-4675,23,-175,-77,69
567,17284,2,-3408,-4676,23,-174,-76,70
568,17276,6,-3400,-4675,23,-174,-76,70
569,17272,8,-3412,-4674,23,-175,-78,69
570,17284,18,-3410,-4674,23,-175,-77,70
571,17276,22,-3406,-4673,23,-174,-77,70
572,17268,22,-3400,-4672,23,-173,-79,69
573,17266,18,-3404,-4672,23,-173,-79,70
574,17262,12,-3412,-4673,23,-174,-79,71
575,17272,10,-3412,-4674,23,-174,-79,70
576,17270,0,-3408,-4674,23,-174,-78,70
577,17272,0,-3418,-4672,23,-174,-76,71
578,17276,0,-3418,-4674,23,-173,-77,71
579,17268,-2,-3406,-4673,23,-172,-77,70
580,17270,2,-3400,-4674,23,-172,-77,70
581,17282,-2,-3402,-4673,23,-171,-78,70
582,17284,2,-3406,-4672,23,-170,-76,70
583,17290,2,-3408,-4669,23,-171,-77,70
584,17284,14,-3396,-4672,23,-171,-76,70
585,17286,14,-3388,-4671,23,-171,-76,70
586,17284,18,-3398,-4671,23,-171,-75,70
587,17276,18,-3402,-4672,23,-172,-74,69
588,17276,14,-3410,-4671,23,-172,-75,69
589,17272,14,-3402,-4671,23,-173,-75,69
590,17276,8,-3410,-4671,23,-173,-75,69
591,17268,-2,-3420,-4672,23,-174,-74,69
592,17264,4,-3418,-4670,23,-174,-75,68
593,17254,10,-3428,-4670,23,-174,-75,68
594,17252,18,-3422,-4671,23,-174,-76,68
595,17258,18,-3416,-4672,23,-173,-77,69
596,17260,16,-3390,-4671,23,-174,-77,69
597,17268,10,-3388,-4672,23,-174,-76,68
598,17270,0,-3396,-4671,23,-174,-75,68
599,17262,-4,-3404,-4672,23,-173,-75,69
600,17264,0,-3408,-4673,23,-172,-76,70
601,17264,0,-3424,-4672,23,-172,-77,71
602,17258,6,-3434,-4673,23,-172,-77,71
603,17260,8,-3422,-4673,23,-171,-77,71
604,17272,4,-3424,-4673,23,-172,-76,70
605,17268,14,-3422,-4673,23,-172,-75,70
606,17266,10,-3422,-4671,23,-174,-75,71
607,17270,10,-3428,-4672,23,-173,-75,69
608,17276,12,-3420,-4672,23,-173,-75,70
609,17268,22,-3416,-4672,23,-173,-74,70
610,17260,24,-3424,-4673,23,-172,-74,71
611,17260,26,-3416,-4673,23,-172,-75,70
612,17266,30,-3414,-4672,23,-174,-75,70
613,17268,32,-3404,-4670,23,-173,-75,69
614,17266,26,-3400,-4669,23,-172,-75,70
615,17274,14,-3396,-4672,23,-173,-75,69
616,17276,28,-3394,-4672,23,-174,-74,69
617,17276,26,-3404,-4671,23,-174,-75,69
618,17274,20,-3398,-4669,23,-175,-76,69
619,17270,24,-3408,-4671,23,-175,-75,69
620,17272,26,-3414,-4670,23,-176,-75,67
621,17272,14,-3416,-4670,23,-176,-74,68
622,17274,14,-3406,-4670,23,-176,-75,67
623,17272,12,-3412,-4670,23,-176,-75,67
624,17270,14,-3418,-4670,23,-176,-76,69
625,17272,6,-3432,-4669,23,-176,-76,69
626,17270,10,-3452,-4671,23,-176,-76,70
627,17272,12,-3448,-4668,23,-176,-75,68
628,17274,18,-3454,-4669,23,-175,-76,68
629,17278,24,-3452,-4670,23,-175,-76,67
630,17280,20,-3432,-4670,23,-175,-77,67
631,17284,22,-3428,-4669,23,-174,-76,66
632,17284,18,-3428,-4669,23,-173,-77,67
633,17288,26,-3418,-4668,23,-172,-76,68
634,17282,30,-3420,-4670,23,-173,-75,69
635,17280,20,-3406,-4670,23,-174,-74,69
636,17272,14,-3404,-4669,23,-174,-74,69
637,17290,4,-3412,-4671,23,-173,-74,69
638,17278,12,-3414,-4671,23,-173,-74,70
639,17280,12,-3418,-4670,23,-173,-73,70
640,17288,22,-3418,-4671,23,-174,-73,71
641,17286,22,-3424,-4672,23,-173,-72,71
642,17288,16,-3426,-4672,23,-173,-73,70
643,17300,18,-3428,-4671,23,-172,-73,70
644,17284,24,-3422,-4672,23,-172,-74,71
645,17284,22,-3412,-4672,23,-171,-73,70
646,17288,26,-3408,-4672,23,-172,-75,70
647,17292,20,-3404,-4672,23,-174,-75,70
648,17294,22,-3412,-4671,23,-173,-77,70
649,17296,18,-3418,-4672,23,-174,-77,69
650,17294,14,-3428,-4671,23,-175,-77,68
651,17286,8,-3424,-4672,23,-174,-76,68
652,17288,4,-3426,-4671,23,-174,-76,69
653,17286,2,-3394,-4672,23,-174,-77,68
654,17282,4,-3412,-4671,23,-174,-77,69
655,17276,16,-3414,-4670,23,-173,-76,69
656,17284,14,-3414,-4671,23,-174,-76,69
657,17284,8,-3424,-4672,23,-174,-76,70
658,17282,8,-3412,-4671,23,-173,-75,70
659,17278,14,-3420,-4670,23,-173,-74,69
660,17280,8,-3410,-4670,23,-173,-76,69
661,17272,14,-3408,-4670,23,-173,-76,70
662,17274,20,-3416,-4670,23,-174,-75,70
663,17268,24,-3422,-4670,23,-175,-76,70
664,17270,20,-3426,-4669,23,-175,-77,70
665,17266,18,-3428,-4667,23,-174,-76,71
666,17264,14,-3418,-4669,23,-173,-75,71
667,17268,18,-3434,-4669,23,-172,-75,71
668,17274,22,-3436,-4670,23,-173,-76,71
669,17272,22,-3430,-4670,23,-172,-75,70
670,17262,10,-3428,-4668,23,-172,-76,70
671,17264,10,-3420,-4669,23,-172,-76,70
672,17264,10,-3402,-4670,23,-173,-76,70
673,17260,10,-3384,-4672,23,-173,-76,70
674,17268,6,-3378,-4672,23,-173,-75,70
675,17266,12,-3388,-4673,23,-172,-75,70
676,17268,20,-3398,-4672,23,-173,-76,69
677,17260,18,-3400,-4671,23,-173,-76,70
678,17274,10,-3416,-4670,23,-172,-77,69
679,17276,20,-3410,-4669,23,-172,-75,69
680,17278,16,-3416,-4671,23,-172,-74,69
681,17280,10,-3404,-4671,23,-171,-75,69
682,17270,12,-3404,-4671,23,-173,-74,69
683,17274,16,-3390,-4669,23,-174,-74,69
684,17278,28,-3400,-4670,23,-174,-74,70
685,17280,20,-3416,-4669,23,-174,-74,69
686,17282,10,-3406,-4670,23,-174,-74,70
687,17294,16,-3398,-4671,23,-173,-74,70
688,17292,18,-3394,-4670,23,-173,-75,70
689,17294,26,-3400,-4670,23,-174,-74,71
690,17286,12,-3396,-4670,23,-174,-75,71
691,17290,8,-3408,-4671,23,-174,-75,69
692,17278,22,-3406,-4672,23,-174,-76,69
693,17274,14,-3396,-4672,23,-174,-76,70
694,17270,10,-3394,-4672,23,-174,-78,70
695,17266,12,-3396,-4673,23,-173,-77,70
696,17260,10,-3404,-4673,23,-173,-77,69
697,17264,12,-3412,-4671,23,-174,-76,70
698,17264,14,-3412,-4670,23,-175,-76,70
699,17264,8,-3410,-4670,23,-175,-75,70
700,17264,4,-3402,-4671,23,-174,-76,70
701,17272,8,-3404,-4670,23,-175,-75,69
702,17280,12,-3416,-4669,23,-174,-75,69
703,17278,20,-3424,-4669,23,-174,-75,69
704,17276,16,-3420,-4669,23,-175,-76,68
705,17268,20,-3424,-4669,23,-177,-75,68
706,17270,20,-3410,-4669,23,-177,-74,67
707,17264,10,-3422,-4670,23,-176,-75,67
708,17270,20,-3424,-4671,23,-175,-75,66
709,17266,24,-3434,-4671,23,-175,-76,66
710,17270,28,-3426,-4669,23,-174,-75,67
711,17268,24,-3422,-4669,23,-173,-75,68
712,17260,4,-3416,-4670,23,-173,-75,68
713,17256,14,-3422,-4669,23,-174,-74,67
714,17256,14,-3410,-4669,23,-174,-74,68
715,17258,14,-3410,-4669,23,-173,-75,69
716,17254,12,-3414,-4669,23,-174,-77,70
717,17260,14,-3412,-4669,23,-174,-77,70
718,17256,8,-3390,-4670,23,-174,-78,70
719,17252,14,-3388,-4670,23,-173,-78,70
720,17254,6,-3414,-4671,23,-174,-77,70
721,17252,8,-3420,-4669,23,-173,-77,70
722,17260,6,-3408,-4670,23,-174,-76,70
723,17258,20,-3412,-4670,23,-173,-75,70
724,17262,20,-3426,-4670,23,-174,-75,70
725,17266,16,-3430,-4669,23,-174,-76,70
726,17260,12,-3412,-4668,23,-174,-76,69
727,17268,10,-3414,-4669,23,-176,-76,68
728,17272,16,-3410,-4670,23,-176,-77,68
729,17278,26,-3412,-4668,23,-176,-77,68
730,17276,22,-3406,-4669,23,-175,-75,67
731,17286,26,-3408,-4669,23,-175,-76,68
732,17280,26,-3414,-4669,23,-174,-76,69
733,17278,22,-3412,-4668,23,-173,-76,69
734,17270,14,-3402,-4666,23,-174,-76,69
735,17272,14,-3410,-4666,23,-174,-76,69
736,17280,18,-3384,-4668,23,-174,-75,69
737,17272,20,-3388,-4667,23,-175,-75,68
738,17276,26,-3390,-4668,23,-174,-75,68
739,17278,20,-3416,-4668,23,-173,-76,68
740,17268,18,-3408,-4669,23,-173,-75,68
741,17282,24,-3404,-4667,23,-175,-76,69
742,17268,12,-3416,-4669,23,-175,-75,69
743,17272,20,-3412,-4667,23,-174,-75,69
744,17264,18,-3406,-4667,23,-173,-74,70
745,17280,14,-3418,-4667,23,-174,-73,70
746,17282,22,-3426,-4667,23,-174,-74,70
747,17280,14,-3416,-4667,23,-175,-74,70
748,17268,6,-3410,-4665,23,-175,-75,70
749,17264,22,-3396,-4665,23,-176,-75,71
750,17268,10,-3406,-4668,23,-176,-75,70
751,17268,8,-3408,-4668,23,-176,-75,70
752,17272,14,-3394,-4668,23,-175,-76,70
753,17276,18,-3404,-4666,23,-175,-77,70
754,17266,18,-3418,-4666,23,-175,-77,71
755,17260,14,-3420,-4668,23,-175,-77,71
756,17266,16,-3412,-4668,23,-175,-75,71
757,17268,24,-3410,-4669,23,-174,-75,71
758,17262,26,-3420,-4668,23,-174,-75,71
759,17262,24,-3414,-4668,23,-173,-76,70
760,17272,22,-3420,-4669,23,-173,-76,70
761,17272,18,-3408,-4668,23,-173,-77,69
762,17266,18,-3412,-4667,23,-172,-74,69
763,17262,20,-3412,-4665,23,-172,-74,69
764,17274,22,-3420,-4665,23,-172,-73,68
765,17276,16,-3430,-4666,23,-172,-75,68
766,17276,26,-3448,-4665,23,-172,-75,69
767,17272,24,-3438,-4667,23,-172,-75,69
768,17272,24,-3418,-4667,23,-173,-76,70
769,17266,22,-3420,-4668,23,-173,-75,69
770,17290,14,-3412,-4668,23,-172,-75,69
771,17286,4,-3416,-4668,23,-171,-74,69
772,17284,16,-3420,-4669,23,-172,-75,69
773,17284,14,-3418,-4668,23,-173,-75,68
774,17286,18,-3426,-4668,23,-173,-76,68
775,17280,14,-3436,-4667,23,-173,-77,69
776,17276,8,-3442,-4667,23,-173,-77,69
777,17268,14,-3442,-4667,23,-174,-76,69
778,17272,8,-3426,-4666,23,-174,-76,69
779,17282,8,-3426,-4667,23,-174,-76,69
780,17290,14,-3440,-4667,23,-175,-74,69
781,17290,6,-3442,-4666,23,-174,-76,69
782,17280,4,-3436,-4667,23,-174,-76,69
783,17280,14,-3432,-4669,23,-173,-76,69
784,17274,18,-3434,-4668,23,-174,-76,68
785,17274,20,-3420,-4667,23,-173,-75,67
786,17274,20,-3436,-4668,23,-173,-75,67
787,17278,14,-3424,-4666,23,-171,-75,67
788,17266,10,-3430,-4664,23,-171,-76,68
789,17266,8,-3414,-4664,23,-171,-75,68
790,17260,0,-3416,-4664,23,-172,-76,68
791,17254,-4,-3414,-4665,23,-173,-77,68
792,17252,6,-3424,-4666,23,-174,-76,67
793,17256,4,-3424,-4666,23,-174,-75,66
794,17260,2,-3418,-4665,23,-173,-75,67
795,17256,2,-3398,-4667,23,-173,-75,67
796,17264,6,-3398,-4668,23,-174,-74,67
797,17264,4,-3398,-4668,23,-175,-74,68
798,17262,12,-3390,-4670,23,-174,-74,69
799,17262,2,-3404,-4668,23,-173,-75,69
800,17260,4,-3416,-4666,23,-172,-75,69
801,17278,4,-3416,-4666,23,-173,-74,70
802,17276,4,-3420,-4666,23,-174,-73,70
803,17270,10,-3418,-4665,23,-174,-74,70
804,17268,18,-3406,-4666,23,-174,-75,70
805,17266,18,-3394,-4667,23,-173,-76,70
806,17258,16,-3392,-4667,23,-172,-77,70
807,17262,16,-3398,-4668,23,-173,-76,70
808,17262,12,-3394,-4667,23,-174,-75,69
809,17254,10,-3404,-4667,23,-173,-75,69
810,17256,2,-3406,-4666,23,-174,-75,70
811,17270,8,-3396,-4666,23,-173,-76,71
812,17268,-2,-3390,-4665,23,-173,-76,71
813,17266,-8,-3388,-4665,23,-172,-75,70
814,17262,0,-3404,-4667,23,-172,-76,71
815,17258,10,-3408,-4669,23,-173,-76,70
816,17256,14,-3394,-4669,23,-173,-76,69
817,17268,16,-3408,-4669,23,-173,-75,69
818,17272,10,-3424,-4667,23,-172,-75,70
819,17276,20,-3436,-4668,23,-172,-75,69
820,17278,16,-3410,-4667,23,-173,-76,69
821,17268,12,-3408,-4667,23,-173,-76,68
822,17276,4,-3410,-4666,23,-174,-76,68
823,17272,-2,-3406,-4666,23,-173,-76,69
824,17276,-8,-3414,-4668,23,-174,-75,69
825,17276,-6,-3400,-4668,23,-174,-74,69
826,17272,-10,-3394,-4667,23,-173,-73,70
827,17266,0,-3394,-4667,23,-174,-75,70
828,17260,4,-3406,-4665,23,-174,-76,70
829,17264,6,-3404,-4664,23,-172,-75,69
830,17270,20,-3418,-4664,23,-173,-76,68
831,17262,18,-3424,-4663,23,-172,-76,68
832,17270,10,-3420,-4664,23,-173,-77,68
833,17266,6,-3404,-4664,23,-173,-77,69
834,17278,0,-3400,-4665,23,-172,-76,70
835,17280,2,-3400,-4665,23,-172,-76,70
836,17276,6,-3392,-4666,23,-173,-75,69
837,17268,14,-3400,-4667,23,-173,-75,69
838,17276,16,-3408,-4668,23,-172,-75,70
839,17278,24,-3416,-4667,23,-172,-75,70
840,17286,8,-3414,-4668,23,-173,-76,70
841,17292,20,-3400,-4668,23,-173,-76,70
842,17288,18,-3406,-4667,23,-172,-77,70
843,17282,26,-3416,-4666,23,-173,-78,69
844,17274,24,-3412,-4666,23,-172,-77,69
845,17278,22,-3414,-4665,23,-173,-77,69
846,17288,26,-3416,-4665,23,-174,-76,69
847,17278,24,-3416,-4665,23,-175,-75,69
848,17278,28,-3428,-4666,23,-173,-76,69
849,17274,22,-3422,-4665,23,-172,-74,68
850,17266,22,-3428,-4665,23,-173,-74,68
851,17264,12,-3428,-4667,23,-173,-75,69
852,17266,8,-3422,-4667,23,-173,-75,68
853,17270,6,-3432,-4669,23,-172,-74,68
854,17260,2,-3440,-4669,23,-173,-74,68
855,17274,4,-3434,-4669,23,-173,-74,70
856,17274,-2,-3426,-4669,23,-173,-73,70
857,17272,0,-3422,-4668,23,-173,-73,70
858,17276,0,-3434,-4667,23,-174,-74,69
859,17282,6,-3440,-4667,23,-174,-74,69
860,17272,6,-3450,-4666,23,-172,-76,70
861,17280,0,-3436,-4665,23,-173,-76,70
862,17274,6,-3418,-4665,23,-173,-75,70
863,17260,12,-3424,-4666,23,-173,-76,69
864,17244,18,-3434,-4667,23,-173,-75,69
865,17250,12,-3432,-4668,23,-173,-75,69
866,17258,14,-3418,-4667,23,-174,-74,69
867,17262,14,-3434,-4666,23,-174,-74,68
868,17256,4,-3426,-4669,23,-175,-75,67
869,17250,6,-3414,-4670,23,-174,-74,67
870,17250,14,-3408,-4670,23,-174,-74,67
871,17246,12,-3404,-4669,23,-175,-75,68
872,17258,10,-3408,-4668,23,-175,-75,68
873,17256,4,-3412,-4667,23,-176,-75,68
874,17264,14,-3418,-4667,23,-175,-73,69
875,17280,8,-3412,-4667,23,-174,-74,70
876,17272,2,-3420,-4667,23,-174,-74,70
877,17284,-2,-3416,-4667,23,-174,-74,71
878,17274,-2,-3406,-4666,23,-173,-74,70
879,17268,6,-3410,-4666,23,-174,-75,69
880,17266,8,-3406,-4666,23,-173,-75,70
881,17266,6,-3402,-4666,23,-173,-75,69
882,17270,6,-3412,-4665,23,-173,-75,69
883,17272,4,-3404,-4665,23,-175,-75,69
884,17270,8,-3400,-4666,23,-175,-74,70
885,17282,6,-3402,-4666,23,-174,-74,70
886,17282,14,-3404,-4665,23,-174,-73,70
887,17280,20,-3422,-4666,23,-174,-74,70
888,17282,26,-3430,-4666,23,-175,-74,69
889,17272,24,-3440,-4667,23,-174,-73,69
890,17270,22,-3432,-4667,23,-174,-74,69
891,17278,12,-3430,-4670,23,-173,-75,69
892,17272,8,-3420,-4669,23,-173,-75,68
893,17264,24,-3416,-4668,23,-174,-75,68
894,17256,28,-3414,-4668,23,-174,-74,68
895,17262,22,-3408,-4666,23,-172,-74,69
896,17256,22,-3410,-4668,23,-172,-75,70
897,17258,10,-3410,-4667,23,-172,-75,70
898,17264,4,-3408,-4667,23,-172,-75,70
899,17264,0,-3414,-4667,23,-172,-76,69
900,17266,8,-3414,-4666,23,-172,-77,69
901,17274,12,-3420,-4665,23,-173,-76,69
902,17276,16,-3426,-4667,23,-174,-77,69
903,17266,16,-3414,-4667,23,-174,-76,71
904,17270,4,-3416,-4667,23,-173,-77,71
905,17268,2,-3410,-4667,23,-173,-77,70
906,17272,10,-3408,-4667,23,-173,-78,71
907,17270,16,-3424,-4666,23,-174,-78,72
908,17278,24,-3414,-4667,23,-173,-76,71
909,17282,22,-3430,-4667,23,-173,-76,71
910,17290,24,-3424,-4668,23,-173,-76,70
911,17286,16,-3428,-4667,23,-173,-76,69
912,17296,16,-3430,-4668,23,-174,-75,69
913,17294,10,-3438,-4668,23,-174,-76,69
914,17290,8,-3448,-4667,23,-174,-77,68
915,17282,10,-3430,-4666,23,-173,-77,69
916,17282,4,-3428,-4667,23,-174,-77,69
917,17276,4,-3430,-4666,23,-174,-76,70
918,17280,10,-3432,-4665,23,-174,-75,70
919,17272,6,-3430,-4667,23,-174,-75,69
920,17266,22,-3422,-4667,23,-173,-75,69
921,17262,26,-3414,-4668,23,-173,-75,69
922,17266,34,-3424,-4667,23,-173,-75,69
923,17264,28,-3428,-4667,23,-174,-75,70
924,17268,26,-3436,-4666,23,-174,-75,70
925,17270,22,-3446,-4665,23,-174,-75,70
926,17268,18,-3436,-4665,23,-173,-76,70
927,17268,20,-3440,-4665,23,-173,-76,70
928,17270,10,-3438,-4667,23,-173,-75,70
929,17272,6,-3430,-4667,23,-174,-75,69
930,17276,-4,-3424,-4667,23,-173,-75,69
931,17276,4,-3430,-4667,23,-174,-74,69
932,17272,14,-3416,-4669,23,-174,-75,69
933,17276,12,-3410,-4669,23,-175,-75,69
934,17270,24,-3410,-4667,23,-175,-75,70
935,17274,20,-3414,-4667,23,-174,-76,70
936,17276,12,-3418,-4668,23,-173,-76,69
937,17272,4,-3428,-4670,23,-174,-76,69
938,17272,16,-3426,-4672,23,-173,-76,68
939,17270,6,-3418,-4672,23,-174,-75,68
940,17274,6,-3410,-4670,23,-173,-75,69
941,17272,8,-3412,-4669,23,-172,-75,68
942,17264,16,-3420,-4670,23,-173,-75,69
943,17258,26,-3438,-4669,23,-173,-75,68
944,17264,28,-3438,-4670,23,-174,-75,69
945,17266,22,-3426,-4671,23,-173,-75,69
946,17266,14,-3432,-4673,23,-173,-74,69
947,17268,8,-3432,-4672,23,-172,-74,69
948,17264,12,-3436,-4671,23,-174,-74,68
949,17268,22,-3426,-4671,23,-175,-74,68
950,17274,20,-3440,-4670,23,-174,-74,67
951,17272,14,-3442,-4669,23,-174,-74,68
952,17276,24,-3438,-4671,23,-173,-74,68
953,17272,20,-3436,-4670,23,-173,-75,68
954,17268,10,-3422,-4671,23,-173,-74,68
955,17264,20,-3418,-4669,23,-173,-73,69
956,17274,30,-3412,-4670,23,-173,-74,69
957,17272,18,-3404,-4671,23,-172,-74,69
958,17268,10,-3406,-4671,23,-173,-75,69
959,17268,10,-3422,-4670,23,-173,-76,69
960,17278,10,-3410,-4670,23,-171,-76,69
961,17272,6,-3430,-4670,23,-172,-75,68
962,17270,2,-3422,-4669,23,-172,-75,69
963,17266,0,-3416,-4669,23,-174,-76,69
964,17268,2,-3410,-4670,23,-175,-75,69
965,17276,4,-3412,-4670,23,-175,-74,67
966,17272,10,-3412,-4671,23,-175,-74,68
967,17272,2,-3408,-4671,23,-175,-75,68
968,17278,12,-3408,-4672,23,-175,-76,68
969,17276,-2,-3406,-4670,23,-175,-75,68
970,17278,-8,-3412,-4670,23,-173,-75,68
971,17280,-4,-3400,-4668,23,-174,-75,68
972,17280,12,-3396,-4666,23,-174,-74,68
973,17278,12,-3402,-4666,23,-174,-75,68
974,17274,6,-3406,-4665,23,-174,-75,68
975,17280,-2,-3412,-4666,23,-173,-75,69
976,17286,0,-3416,-4667,23,-173,-75,68
977,17284,10,-3420,-4668,23,-173,-75,69
978,17274,18,-3416,-4668,23,-174,-75,68
979,17274,18,-3412,-4669,23,-174,-74,68
980,17278,20,-3416,-4670,23,-173,-75,68
981,17266,34,-3402,-4669,23,-174,-74,68
982,17264,26,-3376,-4669,23,-174,-75,68
983,17258,20,-3388,-4669,23,-174,-75,68
984,17260,14,-3400,-4669,23,-174,-75,68
985,17252,10,-3400,-4669,23,-174,-75,69
986,17258,2,-3396,-4669,23,-174,-75,69
987,17260,10,-3388,-4670,23,-174,-75,69
988,17262,8,-3388,-4669,23,-175,-75,70
989,17272,6,-3386,-4669,23,-175,-74,70
990,17276,10,-3390,-4669,23,-173,-73,70
991,17280,8,-3398,-4668,23,-174,-73,70
992,17278,14,-3404,-4667,23,-174,-73,71
993,17276,16,-3402,-4669,23,-173,-73,70
994,17276,16,-3400,-4671,23,-173,-73,70
995,17270,12,-3410,-4671,23,-173,-73,69
996,17270,4,-3424,-4669,23,-174,-75,69
997,17274,12,-3436,-4669,23,-173,-75,70
998,17268,14,-3442,-4670,23,-174,-75,70
