,acc_X,acc_Y,acc_Z,temp,tempC,gyr_X,gyr_Y,gyr_Z
0,17264,48,-3400,-4700,23,-346,-151,147
1,17296,40,-3436,-4706,23,-346,-149,144
2,17284,12,-3396,-4705,23,-344,-153,144
3,17284,6,-3414,-4706,23,-340,-154,149
4,17244,6,-3416,-4699,23,-345,-149,137
5,17264,36,-3432,-4701,23,-341,-150,134
6,17294,-2,-3432,-4708,23,-347,-160,132
7,17286,20,-3432,-4709,23,-343,-157,135
8,17334,14,-3444,-4709,23,-345,-156,138
9,17286,-18,-3456,-4707,23,-340,-156,143
10,17268,-32,-3408,-4707,23,-342,-149,138
11,17276,-10,-3432,-4703,23,-346,-150,146
12,17290,36,-3420,-4700,23,-347,-141,142
13,17276,60,-3418,-4699,23,-345,-150,141
14,17250,24,-3372,-4704,23,-345,-148,143
15,17276,18,-3412,-4707,23,-342,-156,145
16,17286,30,-3422,-4704,23,-337,-150,144
17,17316,40,-3484,-4705,23,-340,-154,142
18,17276,36,-3494,-4703,23,-343,-154,136
19,17274,6,-3482,-4705,23,-348,-151,142
20,17248,2,-3440,-4706,23,-348,-142,147
21,17278,-8,-3384,-4704,23,-346,-149,149
22,17258,-22,-3360,-4700,23,-351,-152,150
23,17270,0,-3354,-4698,23,-343,-146,145
24,17286,10,-3370,-4702,23,-347,-150,142
25,17252,34,-3412,-4697,23,-348,-150,139
26,17296,30,-3406,-4700,23,-343,-153,133
27,17306,6,-3416,-4702,23,-344,-149,133
28,17280,32,-3428,-4700,23,-346,-153,131
29,17312,8,-3446,-4701,23,-349,-159,132
30,17316,8,-3462,-4701,23,-348,-147,136
31,17278,-8,-3438,-4703,23,-349,-151,141
32,17252,18,-3442,-4706,23,-347,-145,139
33,17248,4,-3452,-4694,23,-345,-152,135
34,17246,22,-3420,-4695,23,-347,-154,146
35,17254,-16,-3394,-4697,23,-353,-153,143
36,17270,-2,-3448,-4699,23,-350,-160,140
37,17264,20,-3422,-4705,23,-349,-153,140
38,17278,50,-3438,-4706,23,-350,-156,135
39,17296,40,-3420,-4702,23,-341,-155,132
40,17282,6,-3438,-4705,23,-339,-156,138
41,17278,-6,-3436,-4703,23,-344,-155,137
42,17246,26,-3370,-4694,23,-346,-155,143
43,17256,20,-3412,-4691,23,-355,-153,146
44,17244,14,-3436,-4695,23,-348,-149,142
45,17220,14,-3444,-4707,23,-344,-152,140
46,17250,18,-3410,-4701,23,-343,-151,139
47,17248,32,-3408,-4705,23,-344,-154,130
48,17262,24,-3452,-4705,23,-337,-152,139
49,17252,20,-3468,-4705,23,-345,-158,139
50,17276,6,-3478,-4697,23,-347,-160,141
51,17290,-26,-3438,-4699,23,-351,-157,147
52,17310,20,-3444,-4705,23,-349,-154,146
53,17316,14,-3418,-4696,23,-341,-151,150
54,17270,16,-3470,-4696,23,-338,-140,146
55,17240,4,-3442,-4701,23,-346,-154,149
56,17266,20,-3446,-4707,23,-347,-153,148
57,17248,8,-3426,-4709,23,-348,-152,144
58,17306,38,-3424,-4706,23,-347,-159,135
59,17276,10,-3404,-4705,23,-345,-147,141
60,17278,12,-3428,-4709,23,-346,-152,138
61,17272,16,-3440,-4709,23,-341,-147,138
62,17288,20,-3454,-4706,23,-339,-150,141
63,17278,40,-3452,-4705,23,-348,-155,144
64,17282,22,-3430,-4700,23,-346,-142,140
65,17264,8,-3474,-4701,23,-348,-147,133
66,17234,12,-3428,-4703,23,-342,-153,139
67,17248,-26,-3408,-4700,23,-344,-151,136
68,17262,32,-3372,-4702,23,-348,-155,133
69,17234,-16,-3450,-4702,23,-344,-148,131
70,17260,4,-3452,-4705,23,-345,-150,137
71,17268,26,-3438,-4705,23,-344,-149,135
72,17270,28,-3422,-4702,23,-343,-146,133
73,17262,-2,-3424,-4703,23,-341,-148,141
74,17256,-2,-3444,-4708,23,-343,-147,140
75,17274,-6,-3460,-4701,23,-348,-143,140
76,17286,6,-3460,-4701,23,-348,-143,140
77,17270,20,-3444,-4705,23,-346,-148,136
78,17278,-6,-3406,-4700,23,-337,-156,138
79,17258,24,-3402,-4705,23,-341,-160,136
80,17256,-18,-3396,-4704,23,-347,-156,133
81,17274,-14,-3458,-4696,23,-347,-158,131
82,17308,6,-3464,-4695,23,-343,-145,138
83,17288,-6,-3430,-4694,23,-341,-149,141
84,17254,-12,-3378,-4700,23,-343,-144,147
85,17232,-16,-3426,-4699,23,-347,-151,145
86,17246,22,-3440,-4703,23,-345,-154,146
87,17262,32,-3430,-4704,23,-343,-147,143
88,17254,16,-3456,-4706,23,-340,-152,144
89,17266,14,-3494,-4698,23,-350,-151,137
90,17258,52,-3418,-4698,23,-344,-154,129
91,17254,6,-3428,-4703,23,-341,-155,136
92,17284,24,-3434,-4696,23,-343,-151,139
93,17256,6,-3394,-4702,23,-344,-154,144
94,17298,12,-3442,-4706,23,-353,-157,145
95,17282,4,-3416,-4699,23,-343,-151,139
96,17260,4,-3442,-4701,23,-347,-152,137
97,17266,6,-3450,-4699,23,-345,-143,144
98,17286,32,-3414,-4698,23,-346,-146,143
99,17256,-8,-3406,-4694,23,-343,-157,138
100,17258,12,-3514,-4697,23,-341,-153,133
101,17262,0,-3462,-4700,23,-347,-157,137
102,17280,12,-3492,-4697,23,-350,-155,138
103,17280,22,-3476,-4697,23,-344,-145,136
104,17266,16,-3412,-4699,23,-340,-148,133
105,17288,8,-3416,-4699,23,-343,-147,130
106,17264,-12,-3406,-4701,23,-349,-139,137
107,17256,-6,-3436,-4702,23,-344,-145,138
108,17272,-12,-3388,-4702,23,-348,-146,149
109,17224,0,-3378,-4702,23,-343,-148,143
110,17244,-22,-3396,-4698,23,-344,-147,140
111,17268,-10,-3406,-4707,23,-344,-150,133
112,17296,-12,-3402,-4705,23,-343,-155,138
113,17288,22,-3426,-4699,23,-351,-159,139
114,17280,12,-3462,-4699,23,-344,-157,142
115,17282,-2,-3462,-4703,23,-336,-153,142
116,17268,6,-3454,-4708,23,-345,-154,143
117,17282,6,-3488,-4698,23,-344,-155,146
118,17264,30,-3430,-4702,23,-347,-152,142
119,17278,36,-3442,-4703,23,-340,-156,135
120,17286,26,-3438,-4705,23,-343,-163,136
121,17256,22,-3430,-4697,23,-349,-156,138
122,17264,22,-3512,-4701,23,-342,-160,146
123,17236,16,-3408,-4700,23,-345,-155,147
124,17188,42,-3460,-4699,23,-346,-141,149
125,17274,38,-3478,-4701,23,-342,-145,148
126,17234,24,-3430,-4701,23,-341,-137,144
127,17262,-12,-3420,-4700,23,-346,-144,142
128,17282,2,-3406,-4700,23,-346,-151,134
129,17290,12,-3436,-4698,23,-349,-148,130
130,17288,6,-3422,-4703,23,-340,-151,128
131,17306,-8,-3408,-4698,23,-350,-154,132
132,17294,-8,-3442,-4695,23,-352,-155,138
133,17236,2,-3440,-4700,23,-352,-150,139
134,17238,6,-3430,-4703,23,-344,-152,140
135,17266,14,-3432,-4700,23,-344,-144,143
136,17260,22,-3410,-4702,23,-341,-151,146
137,17284,16,-3380,-4704,23,-344,-161,147
138,17280,20,-3426,-4702,23,-345,-154,140
139,17264,18,-3412,-4706,23,-338,-158,134
140,17220,-4,-3398,-4697,23,-344,-161,134
141,17252,-10,-3426,-4698,23,-342,-151,130
142,17306,-26,-3460,-4697,23,-345,-153,135
143,17182,32,-3458,-4700,23,-348,-149,137
144,17182,4,-3464,-4702,23,-342,-116,155
145,17266,20,-3482,-4702,23,-352,-170,144
146,17332,48,-3340,-4697,23,-349,-140,145
147,17228,4,-3378,-4698,23,-345,-149,148
148,17208,-14,-3352,-4698,23,-342,-163,134
149,17280,18,-3396,-4701,23,-344,-145,129
150,17264,2,-3458,-4696,23,-341,-159,135
151,17292,6,-3446,-4699,23,-342,-157,132
152,17344,-24,-3464,-4699,23,-343,-163,129
153,17340,12,-3478,-4698,23,-340,-155,133
154,17274,36,-3498,-4699,23,-352,-141,141
155,17286,44,-3498,-4694,23,-351,-139,141
156,17234,34,-3448,-4699,23,-356,-144,142
157,17198,-16,-3402,-4702,23,-349,-145,142
158,17212,-26,-3428,-4706,23,-350,-148,150
159,17230,10,-3410,-4703,23,-348,-154,136
160,17242,-4,-3380,-4701,23,-341,-154,133
161,17266,-16,-3408,-4699,23,-336,-158,131
162,17290,20,-3422,-4699,23,-339,-158,130
163,17288,-8,-3422,-4703,23,-339,-154,140
164,17272,6,-3462,-4701,23,-339,-154,141
165,17280,26,-3496,-4704,23,-347,-138,139
166,17238,38,-3466,-4703,23,-355,-143,142
167,17264,24,-3478,-4700,23,-346,-132,146
168,17212,18,-3376,-4705,23,-352,-145,138
169,17244,30,-3338,-4704,23,-338,-137,141
170,17256,0,-3326,-4701,23,-348,-147,142
171,17208,-14,-3384,-4700,23,-348,-164,135
172,17228,14,-3418,-4701,23,-336,-164,127
173,17306,32,-3462,-4698,23,-340,-167,128
174,17276,12,-3482,-4703,23,-341,-155,132
175,17296,-2,-3468,-4706,23,-349,-144,141
176,17312,26,-3454,-4704,23,-357,-140,143
177,17244,-16,-3438,-4697,23,-351,-140,148
178,17216,0,-3384,-4701,23,-351,-135,149
179,17258,42,-3348,-4696,23,-355,-148,145
180,17220,-4,-3324,-4700,23,-340,-150,143
181,17228,28,-3352,-4697,23,-338,-162,133
182,17308,20,-3408,-4699,23,-338,-168,137
183,17284,26,-3448,-4695,23,-344,-167,132
184,17286,12,-3498,-4696,23,-347,-165,132
185,17326,16,-3490,-4698,23,-349,-144,133
186,17330,20,-3478,-4704,23,-358,-140,135
187,17328,6,-3436,-4697,23,-353,-143,142
188,17278,12,-3396,-4697,23,-350,-148,148
189,17246,-28,-3380,-4696,23,-346,-147,149
190,17246,-2,-3328,-4706,23,-347,-152,136
191,17222,2,-3336,-4699,23,-355,-161,135
192,17242,-4,-3386,-4704,23,-341,-161,134
193,17268,4,-3444,-4706,23,-346,-161,133
194,17282,26,-3492,-4704,23,-346,-151,133
195,17296,26,-3484,-4700,23,-349,-157,140
196,17282,42,-3468,-4703,23,-344,-144,140
197,17308,42,-3462,-4704,23,-343,-139,148
198,17284,44,-3430,-4700,23,-349,-140,152
199,17248,4,-3414,-4708,23,-357,-137,147
200,17246,12,-3434,-4703,23,-352,-144,140
201,17248,14,-3406,-4705,23,-342,-145,142
202,17236,10,-3426,-4697,23,-341,-151,140
203,17236,30,-3400,-4700,23,-346,-158,131
204,17246,6,-3390,-4699,23,-343,-158,137
205,17300,14,-3434,-4699,23,-342,-163,130
206,17326,12,-3440,-4704,23,-345,-156,139
207,17272,-10,-3456,-4701,23,-341,-159,137
208,17308,20,-3402,-4699,23,-346,-153,145
209,17298,24,-3392,-4697,23,-351,-150,144
210,17258,6,-3418,-4695,23,-347,-146,147
211,17236,16,-3448,-4697,23,-346,-147,143
212,17226,36,-3442,-4698,23,-339,-143,142
213,17218,34,-3392,-4701,23,-341,-155,138
214,17230,26,-3438,-4701,23,-346,-161,138
215,17272,20,-3456,-4698,23,-346,-165,133
216,17296,16,-3492,-4702,23,-344,-151,137
217,17324,-2,-3484,-4695,23,-346,-151,137
218,17320,-12,-3444,-4696,23,-343,-146,135
219,17300,26,-3444,-4698,23,-344,-143,141
220,17286,26,-3404,-4703,23,-349,-140,144
221,17238,36,-3394,-4707,23,-348,-141,136
222,17240,10,-3380,-4705,23,-342,-142,141
223,17220,-6,-3390,-4706,23,-346,-140,132
224,17250,0,-3418,-4699,23,-342,-155,141
225,17272,10,-3426,-4696,23,-338,-163,137
226,17266,6,-3416,-4694,23,-345,-163,130
227,17294,16,-3440,-4695,23,-342,-154,133
228,17312,14,-3472,-4696,23,-342,-150,141
229,17318,32,-3490,-4696,23,-349,-149,150
230,17282,30,-3438,-4698,23,-351,-139,143
231,17272,20,-3420,-4700,23,-349,-139,148
232,17240,10,-3434,-4700,23,-345,-153,147
233,17244,22,-3428,-4706,23,-345,-151,139
234,17254,6,-3398,-4702,23,-345,-149,138
235,17270,18,-3370,-4703,23,-336,-159,135
236,17276,20,-3454,-4701,23,-342,-152,135
237,17270,34,-3482,-4695,23,-341,-153,133
238,17252,26,-3456,-4701,23,-346,-152,134
239,17276,-2,-3470,-4702,23,-344,-141,141
240,17270,-2,-3444,-4701,23,-347,-141,140
241,17284,26,-3470,-4694,23,-350,-151,145
242,17274,24,-3454,-4692,23,-348,-145,148
243,17274,28,-3428,-4695,23,-346,-147,147
244,17272,30,-3416,-4702,23,-343,-155,145
245,17260,12,-3392,-4698,23,-346,-155,135
246,17266,8,-3412,-4693,23,-350,-149,137
247,17256,26,-3456,-4695,23,-343,-154,133
248,17270,-4,-3438,-4698,23,-346,-159,138
249,17298,-10,-3432,-4700,23,-337,-157,140
250,17270,-6,-3512,-4698,23,-343,-155,144
251,17278,-16,-3474,-4694,23,-348,-152,143
252,17278,-10,-3470,-4698,23,-353,-139,145
253,17260,-2,-3434,-4700,23,-347,-148,144
254,17256,-8,-3436,-4699,23,-344,-153,145
255,17230,-18,-3432,-4696,23,-341,-150,144
256,17232,-12,-3420,-4697,23,-351,-154,137
257,17254,24,-3424,-4699,23,-340,-156,136
258,17272,36,-3464,-4696,23,-344,-154,133
259,17272,42,-3516,-4695,23,-343,-155,136
260,17288,26,-3484,-4699,23,-345,-152,131
261,17296,30,-3464,-4702,23,-346,-150,140
262,17260,24,-3472,-4703,23,-347,-145,146
263,17272,40,-3454,-4700,23,-344,-143,144
264,17284,6,-3400,-4703,23,-341,-144,141
265,17240,8,-3374,-4700,23,-349,-150,141
266,17264,18,-3374,-4694,23,-346,-162,131
267,17268,0,-3380,-4694,23,-348,-157,126
268,17262,-20,-3400,-4700,23,-337,-163,134
269,17294,-28,-3460,-4698,23,-345,-159,131
270,17302,-10,-3458,-4700,23,-343,-151,136
271,17306,8,-3484,-4700,23,-349,-152,139
272,17278,-10,-3448,-4697,23,-345,-152,142
273,17274,14,-3422,-4700,23,-350,-148,143
274,17268,54,-3406,-4701,23,-352,-147,143
275,17286,28,-3386,-4704,23,-348,-146,142
276,17272,44,-3386,-4701,23,-345,-147,138
277,17246,30,-3398,-4701,23,-345,-150,137
278,17266,0,-3436,-4696,23,-346,-158,143
279,17268,20,-3440,-4696,23,-340,-157,142
280,17268,34,-3462,-4702,23,-345,-161,141
281,17286,24,-3468,-4697,23,-351,-156,144
282,17264,24,-3476,-4701,23,-346,-158,144
283,17280,34,-3430,-4700,23,-352,-148,149
284,17264,16,-3444,-4699,23,-346,-149,145
285,17270,6,-3412,-4700,23,-342,-150,138
286,17230,32,-3426,-4699,23,-343,-162,142
287,17258,10,-3422,-4697,23,-336,-158,142
288,17266,-2,-3430,-4695,23,-340,-154,140
289,17262,0,-3434,-4695,23,-342,-155,142
290,17288,30,-3430,-4697,23,-336,-148,139
291,17272,2,-3434,-4698,23,-336,-156,144
292,17256,-2,-3468,-4698,23,-347,-145,140
293,17276,36,-3406,-4702,23,-341,-146,142
294,17256,-10,-3442,-4703,23,-348,-142,147
295,17268,14,-3438,-4697,23,-346,-141,143
296,17278,26,-3442,-4702,23,-347,-144,142
297,17258,30,-3418,-4698,23,-345,-146,141
298,17272,4,-3352,-4700,23,-349,-152,135
299,17264,0,-3434,-4698,23,-347,-152,134
300,17272,32,-3422,-4695,23,-341,-158,130
301,17290,38,-3378,-4696,23,-345,-160,131
302,17244,28,-3416,-4695,23,-348,-157,138
303,17250,-2,-3414,-4699,23,-345,-157,138
304,17260,0,-3444,-4696,23,-349,-154,140
305,17264,0,-3384,-4699,23,-340,-148,139
306,17242,18,-3356,-4693,23,-346,-153,144
307,17246,38,-3386,-4699,23,-345,-154,146
308,17260,38,-3416,-4696,23,-346,-148,134
309,17292,44,-3434,-4698,23,-348,-151,136
310,17280,36,-3448,-4700,23,-337,-157,134
311,17286,18,-3426,-4701,23,-342,-152,136
312,17298,38,-3450,-4698,23,-350,-150,136
313,17270,30,-3458,-4696,23,-349,-148,142
314,17298,-2,-3454,-4697,23,-343,-155,145
315,17290,-46,-3446,-4700,23,-346,-148,140
316,17274,2,-3400,-4699,23,-346,-148,145
317,17252,-22,-3422,-4699,23,-345,-149,145
318,17278,-16,-3446,-4698,23,-346,-149,142
319,17244,8,-3444,-4694,23,-347,-149,141
320,17252,24,-3420,-4694,23,-348,-156,131
321,17266,10,-3398,-4696,23,-349,-157,134
322,17244,42,-3484,-4700,23,-343,-158,143
323,17282,22,-3482,-4696,23,-346,-154,143
324,17270,2,-3438,-4696,23,-349,-149,139
325,17264,48,-3426,-4697,23,-349,-143,138
326,17280,16,-3418,-4704,23,-352,-145,144
327,17288,24,-3400,-4699,23,-351,-150,148
328,17278,4,-3388,-4697,23,-350,-150,147
329,17272,26,-3366,-4696,23,-339,-149,141
330,17288,8,-3408,-4700,23,-346,-151,136
331,17284,-12,-3418,-4699,23,-343,-157,141
332,17280,46,-3420,-4694,23,-345,-149,135
333,17252,2,-3460,-4698,23,-340,-149,136
334,17248,18,-3448,-4693,23,-345,-144,141
335,17260,12,-3496,-4697,23,-344,-156,140
336,17262,42,-3452,-4698,23,-341,-149,133
337,17290,44,-3436,-4699,23,-342,-150,131
338,17286,22,-3424,-4698,23,-343,-150,146
339,17250,0,-3376,-4694,23,-343,-150,141
340,17262,-2,-3378,-4699,23,-350,-150,141
341,17252,-28,-3418,-4701,23,-352,-160,137
342,17296,14,-3422,-4696,23,-344,-158,133
343,17294,20,-3394,-4692,23,-341,-161,137
344,17290,26,-3412,-4695,23,-349,-158,133
345,17278,34,-3420,-4693,23,-344,-145,141
346,17286,12,-3428,-4697,23,-347,-147,141
347,17258,-14,-3450,-4696,23,-344,-147,144
348,17274,-6,-3436,-4699,23,-343,-147,150
349,17240,0,-3424,-4697,23,-340,-152,143
350,17254,28,-3390,-4702,23,-340,-148,144
351,17254,22,-3410,-4701,23,-344,-147,142
352,17270,22,-3418,-4695,23,-344,-150,134
353,17278,30,-3384,-4701,23,-343,-154,134
354,17328,70,-3448,-4697,23,-343,-158,140
355,17252,52,-3512,-4699,23,-339,-123,145
356,17252,48,-3466,-4696,23,-345,-153,151
357,17250,72,-3348,-4695,23,-343,-144,143
358,17276,18,-3394,-4693,23,-341,-147,149
359,17210,-36,-3412,-4693,23,-343,-141,143
360,17240,-16,-3396,-4695,23,-339,-148,142
361,17294,10,-3424,-4698,23,-344,-159,134
362,17312,-6,-3458,-4695,23,-340,-158,134
363,17290,-12,-3416,-4693,23,-342,-155,138
364,17344,4,-3418,-4695,23,-340,-155,140
365,17268,12,-3440,-4695,23,-348,-159,138
366,17224,26,-3446,-4701,23,-349,-143,137
367,17266,34,-3440,-4704,23,-349,-143,141
368,17254,34,-3448,-4705,23,-344,-141,140
369,17270,20,-3424,-4695,23,-350,-152,141
370,17280,10,-3352,-4698,23,-349,-153,144
371,17262,18,-3396,-4689,23,-343,-154,137
372,17246,34,-3396,-4696,23,-344,-158,129
373,17280,-6,-3462,-4696,23,-346,-154,131
374,17306,-16,-3452,-4700,23,-344,-153,131
375,17312,22,-3496,-4697,23,-343,-145,136
376,17272,0,-3452,-4695,23,-349,-147,138
377,17278,28,-3452,-4693,23,-360,-141,149
378,17290,34,-3420,-4690,23,-359,-141,149
379,17278,18,-3354,-4691,23,-360,-155,144
380,17240,20,-3376,-4700,23,-356,-147,142
381,17256,40,-3336,-4700,23,-350,-164,132
382,17230,42,-3386,-4696,23,-349,-161,134
383,17256,42,-3450,-4695,23,-344,-163,135
384,17284,34,-3466,-4692,23,-341,-161,132
385,17300,60,-3512,-4695,23,-342,-161,146
386,17262,36,-3492,-4697,23,-345,-153,145
387,17296,12,-3460,-4701,23,-347,-143,139
388,17274,34,-3418,-4700,23,-344,-151,148
389,17228,22,-3368,-4700,23,-351,-147,153
390,17248,-14,-3388,-4699,23,-346,-151,148
391,17252,2,-3364,-4698,23,-350,-149,142
392,17262,-8,-3394,-4699,23,-343,-147,135
393,17310,-6,-3392,-4698,23,-343,-161,131
394,17298,-2,-3450,-4698,23,-341,-156,130
395,17260,26,-3468,-4697,23,-343,-153,139
396,17254,36,-3444,-4700,23,-341,-151,140
397,17256,56,-3462,-4698,23,-346,-142,144
398,17234,58,-3444,-4701,23,-347,-148,148
399,17280,20,-3398,-4703,23,-349,-142,147
400,17274,8,-3426,-4697,23,-346,-148,139
401,17260,20,-3382,-4696,23,-345,-144,142
402,17244,18,-3406,-4700,23,-340,-148,140
403,17250,-10,-3414,-4699,23,-338,-147,137
404,17258,0,-3456,-4700,23,-348,-155,131
405,17244,2,-3410,-4696,23,-342,-152,142
406,17258,30,-3460,-4696,23,-346,-146,141
407,17280,42,-3440,-4697,23,-355,-141,143
408,17286,8,-3448,-4700,23,-350,-147,143
409,17300,6,-3420,-4697,23,-345,-147,151
410,17288,-18,-3378,-4696,23,-349,-146,150
411,17232,0,-3386,-4699,23,-340,-145,148
412,17216,14,-3380,-4702,23,-338,-149,140
413,17216,12,-3380,-4698,23,-349,-152,139
414,17268,28,-3428,-4694,23,-341,-165,143
415,17306,12,-3446,-4696,23,-344,-163,135
416,17276,-14,-3502,-4701,23,-346,-165,133
417,17314,4,-3448,-4695,23,-337,-158,136
418,17284,8,-3444,-4694,23,-348,-151,140
419,17266,14,-3450,-4688,23,-341,-149,142
420,17264,32,-3424,-4695,23,-344,-145,138
421,17262,16,-3430,-4693,23,-347,-144,136
422,17242,-30,-3416,-4700,23,-347,-147,137
423,17268,-22,-3400,-4700,23,-340,-154,139
424,17276,-6,-3428,-4696,23,-350,-156,137
425,17306,-28,-3420,-4698,23,-351,-159,136
426,17292,40,-3442,-4699,23,-344,-154,136
427,17280,48,-3482,-4696,23,-351,-152,131
428,17286,50,-3450,-4703,23,-351,-147,140
429,17272,4,-3430,-4698,23,-336,-142,142
430,17286,28,-3436,-4701,23,-339,-139,145
431,17282,16,-3436,-4699,23,-343,-150,145
432,17282,40,-3426,-4699,23,-342,-147,146
433,17290,40,-3392,-4697,23,-341,-146,142
434,17252,12,-3340,-4698,23,-343,-142,136
435,17258,2,-3388,-4701,23,-349,-148,140
436,17240,16,-3432,-4697,23,-345,-157,132
437,17236,16,-3424,-4691,23,-337,-158,135
438,17312,12,-3500,-4698,23,-340,-151,140
439,17292,-14,-3446,-4703,23,-346,-146,140
440,17284,-24,-3450,-4704,23,-344,-146,142
441,17290,-30,-3446,-4694,23,-339,-153,142
442,17280,-4,-3444,-4695,23,-350,-153,139
443,17262,24,-3398,-4700,23,-340,-162,137
444,17256,32,-3402,-4694,23,-341,-152,136
445,17274,24,-3444,-4695,23,-337,-150,137
446,17270,6,-3468,-4699,23,-341,-156,132
447,17268,22,-3454,-4702,23,-339,-150,131
448,17282,12,-3440,-4697,23,-337,-153,130
449,17324,12,-3448,-4698,23,-347,-148,138
450,17284,-8,-3416,-4699,23,-348,-148,142
451,17282,-14,-3432,-4700,23,-348,-145,138
452,17254,30,-3422,-4696,23,-346,-143,142
453,17238,14,-3370,-4699,23,-344,-143,142
454,17250,14,-3398,-4699,23,-341,-150,140
455,17262,-6,-3398,-4697,23,-345,-157,136
456,17250,-2,-3436,-4698,23,-345,-155,140
457,17256,20,-3436,-4697,23,-340,-154,134
458,17254,6,-3410,-4695,23,-336,-159,138
459,17284,-2,-3424,-4696,23,-343,-155,136
460,17270,-18,-3406,-4698,23,-351,-153,138
461,17260,4,-3454,-4701,23,-347,-151,143
462,17272,12,-3428,-4695,23,-346,-145,143
463,17278,36,-3446,-4693,23,-349,-153,139
464,17234,10,-3420,-4697,23,-349,-152,144
465,17214,-16,-3434,-4692,23,-351,-149,147
466,17274,6,-3430,-4692,23,-352,-153,139
467,17262,28,-3480,-4695,23,-350,-158,143
468,17264,24,-3464,-4692,23,-346,-155,136
469,17256,14,-3442,-4698,23,-348,-155,135
470,17286,14,-3454,-4698,23,-339,-155,140
471,17254,6,-3446,-4692,23,-343,-153,138
472,17282,14,-3478,-4695,23,-340,-147,138
473,17274,10,-3442,-4698,23,-351,-156,140
474,17278,56,-3368,-4695,23,-349,-155,143
475,17266,6,-3396,-4693,23,-349,-151,141
476,17254,4,-3450,-4696,23,-351,-154,141
477,17242,-14,-3478,-4698,23,-346,-158,138
478,17270,-4,-3422,-4697,23,-341,-161,133
479,17260,2,-3404,-4696,23,-338,-157,138
480,17288,10,-3436,-4695,23,-349,-152,139
481,17250,16,-3456,-4698,23,-346,-144,140
482,17244,20,-3426,-4699,23,-346,-144,139
483,17262,14,-3414,-4701,23,-344,-147,147
484,17252,-16,-3440,-4700,23,-337,-140,143
485,17268,-30,-3380,-4696,23,-340,-149,141
486,17258,0,-3388,-4697,23,-345,-146,146
487,17250,-4,-3388,-4691,23,-344,-149,141
488,17252,-38,-3358,-4697,23,-343,-150,136
489,17268,-50,-3388,-4694,23,-345,-163,134
490,17286,-8,-3468,-4697,23,-345,-152,139
491,17292,16,-3462,-4699,23,-346,-156,134
492,17304,46,-3438,-4696,23,-348,-148,134
493,17300,18,-3424,-4698,23,-341,-152,139
494,17298,28,-3400,-4698,23,-350,-150,138
495,17258,48,-3448,-4698,23,-347,-143,140
496,17274,48,-3404,-4697,23,-346,-149,142
497,17280,12,-3420,-4696,23,-342,-149,136
498,17288,10,-3394,-4695,23,-343,-152,127
499,17252,16,-3442,-4696,23,-343,-155,129
500,17228,22,-3436,-4693,23,-350,-154,132
501,17288,8,-3476,-4694,23,-352,-155,132
502,17288,50,-3470,-4694,23,-347,-153,140
503,17264,16,-3474,-4695,23,-347,-148,142
504,17258,-8,-3466,-4697,23,-353,-146,144
505,17268,8,-3428,-4695,23,-346,-142,150
506,17234,-8,-3396,-4695,23,-352,-147,144
507,17236,0,-3404,-4698,23,-347,-142,145
508,17278,20,-3430,-4698,23,-353,-145,138
509,17246,4,-3448,-4698,23,-349,-151,141
510,17262,40,-3448,-4699,23,-346,-151,141
511,17266,26,-3438,-4693,23,-339,-158,143
512,17288,4,-3448,-4699,23,-347,-151,144
513,17290,2,-3454,-4694,23,-343,-148,145
514,17270,14,-3478,-4694,23,-350,-145,137
515,17284,18,-3452,-4701,23,-345,-147,140
516,17288,-6,-3418,-4697,23,-353,-147,143
517,17246,2,-3438,-4695,23,-350,-148,138
518,17256,2,-3426,-4700,23,-344,-151,144
519,17264,-12,-3404,-4694,23,-343,-157,145
520,17280,14,-3426,-4692,23,-351,-157,140
521,17252,22,-3470,-4694,23,-350,-160,142
522,17280,34,-3420,-4699,23,-344,-155,133
523,17324,28,-3420,-4695,23,-348,-149,139
524,17278,28,-3440,-4697,23,-354,-149,138
525,17288,24,-3446,-4695,23,-351,-146,145
526,17282,26,-3420,-4692,23,-350,-148,148
527,17284,4,-3452,-4693,23,-344,-143,142
528,17270,20,-3424,-4695,23,-349,-148,142
529,17248,20,-3398,-4692,23,-346,-152,141
530,17246,4,-3372,-4695,23,-347,-147,138
531,17260,-26,-3370,-4694,23,-344,-152,138
532,17274,10,-3436,-4697,23,-344,-152,134
533,17274,8,-3434,-4696,23,-345,-148,131
534,17284,2,-3438,-4698,23,-344,-157,142
535,17256,-14,-3466,-4694,23,-345,-155,148
536,17270,-6,-3434,-4692,23,-339,-150,139
537,17250,4,-3484,-4695,23,-345,-160,142
538,17264,-6,-3498,-4692,23,-337,-161,136
539,17272,46,-3428,-4697,23,-340,-153,143
540,17238,26,-3456,-4693,23,-343,-149,140
541,17244,-4,-3366,-4696,23,-349,-154,138
542,17272,10,-3412,-4694,23,-347,-160,137
543,17290,38,-3416,-4685,23,-342,-148,144
544,17302,22,-3404,-4691,23,-346,-154,140
545,17310,8,-3474,-4695,23,-344,-152,137
546,17272,-12,-3426,-4692,23,-347,-138,143
547,17276,2,-3402,-4689,23,-343,-139,133
548,17274,-6,-3428,-4691,23,-348,-148,141
549,17256,2,-3422,-4694,23,-342,-149,140
550,17278,-2,-3440,-4696,23,-349,-153,140
551,17298,6,-3398,-4702,23,-346,-157,140
552,17266,24,-3350,-4693,23,-334,-151,141
553,17238,50,-3430,-4692,23,-341,-159,138
554,17296,26,-3442,-4696,23,-340,-148,140
555,17270,16,-3486,-4692,23,-348,-154,138
556,17272,12,-3460,-4694,23,-350,-148,140
557,17288,28,-3426,-4697,23,-344,-151,139
558,17242,38,-3430,-4691,23,-348,-148,143
559,17258,32,-3428,-4696,23,-350,-144,134
560,17240,10,-3456,-4693,23,-348,-144,134
561,17236,-6,-3432,-4697,23,-344,-142,136
562,17252,18,-3394,-4699,23,-339,-154,140
563,17282,26,-3384,-4697,23,-342,-154,139
564,17298,20,-3408,-4693,23,-333,-153,139
565,17288,16,-3436,-4695,23,-336,-151,139
566,17304,0,-3440,-4696,23,-341,-155,139
567,17292,-14,-3412,-4698,23,-344,-148,136
568,17312,-20,-3432,-4701,23,-345,-150,140
569,17264,-6,-3404,-4697,23,-344,-150,144
570,17250,10,-3394,-4697,23,-351,-144,145
571,17276,-4,-3350,-4700,23,-345,-147,140
572,17268,28,-3402,-4701,23,-345,-147,142
573,17292,28,-3388,-4693,23,-338,-154,145
574,17272,48,-3430,-4696,23,-339,-155,135
575,17274,8,-3430,-4695,23,-340,-158,138
576,17250,18,-3446,-4693,23,-339,-157,136
577,17254,2,-3430,-4697,23,-343,-153,140
578,17260,12,-3424,-4701,23,-345,-147,143
579,17248,18,-3442,-4702,23,-344,-148,142
580,17252,-8,-3454,-4701,23,-342,-153,138
581,17264,-6,-3408,-4696,23,-341,-157,140
582,17238,14,-3440,-4694,23,-337,-150,130
583,17284,42,-3416,-4695,23,-346,-156,138
584,17288,26,-3410,-4695,23,-340,-149,138
585,17278,34,-3470,-4696,23,-343,-153,140
586,17266,28,-3466,-4698,23,-345,-155,147
587,17300,42,-3420,-4697,23,-340,-150,150
588,17282,54,-3452,-4698,23,-344,-150,145
589,17254,14,-3484,-4699,23,-338,-146,139
590,17258,42,-3454,-4695,23,-342,-143,148
591,17262,28,-3440,-4697,23,-344,-142,147
592,17270,18,-3440,-4699,23,-350,-145,144
593,17254,14,-3416,-4694,23,-347,-144,141
594,17270,4,-3460,-4692,23,-350,-153,136
595,17280,10,-3442,-4695,23,-346,-152,139
596,17256,14,-3414,-4699,23,-347,-155,137
597,17256,-14,-3406,-4698,23,-340,-160,135
598,17274,-14,-3458,-4698,23,-343,-155,136
599,17282,-22,-3438,-4699,23,-344,-150,137
600,17288,4,-3400,-4698,23,-350,-155,137
601,17276,-6,-3448,-4697,23,-346,-153,145
602,17290,-42,-3426,-4693,23,-340,-151,141
603,17292,10,-3352,-4696,23,-341,-156,136
604,17262,8,-3414,-4699,23,-340,-155,140
605,17252,22,-3422,-4695,23,-343,-162,134
606,17286,32,-3390,-4695,23,-345,-155,143
607,17286,22,-3432,-4697,23,-346,-158,136
608,17282,16,-3374,-4697,23,-351,-156,137
609,17296,8,-3410,-4694,23,-339,-154,138
610,17266,-22,-3414,-4691,23,-341,-150,140
611,17276,-2,-3432,-4694,23,-341,-152,147
612,17260,18,-3448,-4694,23,-345,-160,145
613,17256,12,-3378,-4691,23,-346,-155,139
614,17268,-4,-3404,-4693,23,-341,-158,141
615,17272,6,-3424,-4697,23,-352,-155,139
616,17284,-2,-3434,-4688,23,-350,-154,138
617,17294,0,-3452,-4692,23,-339,-144,144
618,17268,24,-3424,-4693,23,-338,-141,132
619,17264,-10,-3436,-4698,23,-339,-150,137
620,17254,18,-3450,-4695,23,-350,-151,140
621,17260,14,-3464,-4699,23,-345,-148,141
622,17278,2,-3414,-4700,23,-345,-156,136
623,17290,12,-3462,-4699,23,-353,-154,140
624,17286,4,-3444,-4694,23,-343,-145,142
625,17288,0,-3450,-4698,23,-346,-143,143
626,17288,-38,-3426,-4696,23,-348,-142,148
627,17260,4,-3424,-4695,23,-341,-146,145
628,17224,-18,-3452,-4691,23,-342,-156,143
629,17242,-14,-3414,-4693,23,-341,-154,134
630,17262,12,-3432,-4696,23,-336,-157,140
631,17298,16,-3426,-4701,23,-345,-154,142
632,17262,10,-3416,-4697,23,-342,-155,139
633,17262,20,-3388,-4693,23,-348,-150,144
634,17254,0,-3422,-4690,23,-347,-147,143
635,17282,-30,-3410,-4695,23,-345,-152,143
636,17278,-12,-3422,-4701,23,-350,-146,140
637,17288,16,-3424,-4697,23,-346,-151,138
638,17266,20,-3406,-4697,23,-344,-154,135
639,17254,34,-3446,-4697,23,-353,-151,135
640,17298,-6,-3412,-4694,23,-347,-145,133
641,17274,0,-3460,-4695,23,-344,-148,137
642,17252,36,-3376,-4695,23,-342,-148,134
643,17266,30,-3390,-4695,23,-340,-151,140
644,17258,4,-3386,-4696,23,-344,-142,143
645,17262,28,-3352,-4693,23,-341,-148,142
646,17270,14,-3382,-4696,23,-346,-155,144
647,17276,42,-3370,-4702,23,-342,-155,136
648,17270,14,-3408,-4694,23,-351,-151,142
649,17272,26,-3476,-4694,23,-341,-153,143
650,17286,26,-3468,-4693,23,-344,-150,136
651,17272,10,-3432,-4698,23,-349,-151,144
652,17286,6,-3396,-4693,23,-343,-159,140
653,17260,8,-3422,-4691,23,-343,-151,142
654,17258,-10,-3456,-4689,23,-344,-152,143
655,17248,-12,-3414,-4695,23,-347,-152,144
656,17258,12,-3416,-4695,23,-339,-154,142
657,17252,-2,-3396,-4699,23,-340,-155,140
658,17232,6,-3404,-4692,23,-337,-153,136
659,17250,-24,-3440,-4693,23,-343,-153,131
660,17254,14,-3406,-4696,23,-353,-154,138
661,17276,12,-3420,-4694,23,-356,-154,132
662,17272,-16,-3444,-4692,23,-348,-146,137
663,17254,40,-3428,-4691,23,-341,-146,135
664,17258,8,-3376,-4698,23,-350,-153,135
665,17258,-8,-3408,-4696,23,-348,-150,139
666,17274,32,-3446,-4695,23,-345,-155,139
667,17266,38,-3464,-4691,23,-334,-151,146
668,17264,-10,-3430,-4698,23,-342,-152,134
669,17268,-2,-3456,-4699,23,-349,-152,137
670,17282,52,-3448,-4697,23,-343,-155,141
671,17296,28,-3446,-4696,23,-343,-152,136
672,17260,34,-3450,-4698,23,-343,-140,139
673,17238,36,-3410,-4699,23,-346,-144,140
674,17274,22,-3440,-4700,23,-352,-156,138
675,17278,56,-3470,-4701,23,-345,-154,140
676,17270,40,-3474,-4699,23,-345,-147,140
677,17286,16,-3446,-4699,23,-348,-148,142
678,17270,16,-3400,-4697,23,-348,-151,138
679,17242,10,-3410,-4698,23,-344,-156,143
680,17238,-14,-3434,-4699,23,-342,-151,145
681,17258,24,-3436,-4698,23,-340,-155,151
682,17280,50,-3448,-4697,23,-348,-154,153
683,17316,56,-3420,-4701,23,-352,-147,142
684,17320,22,-3424,-4698,23,-348,-142,147
685,17276,-8,-3442,-4696,23,-345,-148,151
686,17270,-6,-3446,-4695,23,-346,-149,139
687,17260,40,-3484,-4690,23,-346,-148,139
688,17264,20,-3450,-4690,23,-352,-145,137
689,17298,-10,-3450,-4686,23,-354,-147,137
690,17254,14,-3422,-4695,23,-347,-151,141
691,17284,-6,-3426,-4692,23,-345,-153,139
692,17278,-8,-3422,-4698,23,-345,-144,139
693,17260,-4,-3426,-4697,23,-343,-145,139
694,17268,18,-3426,-4693,23,-346,-147,137
695,17274,20,-3382,-4699,23,-345,-154,139
696,17266,26,-3424,-4696,23,-350,-149,143
697,17264,36,-3390,-4700,23,-348,-155,134
698,17270,10,-3438,-4693,23,-349,-156,139
699,17274,0,-3414,-4692,23,-346,-161,138
700,17250,12,-3404,-4695,23,-345,-151,134
701,17268,6,-3390,-4693,23,-342,-145,139
702,17282,8,-3404,-4701,23,-345,-152,141
703,17262,-26,-3412,-4699,23,-349,-147,139
704,17262,-6,-3412,-4697,23,-352,-154,135
705,17238,-14,-3438,-4699,23,-344,-156,141
706,17258,-14,-3394,-4693,23,-342,-148,141
707,17268,12,-3388,-4699,23,-345,-146,143
708,17282,-14,-3394,-4692,23,-346,-147,140
709,17306,-4,-3400,-4695,23,-345,-146,138
710,17272,22,-3430,-4692,23,-345,-146,139
711,17286,42,-3434,-4689,23,-337,-144,135
712,17304,36,-3440,-4694,23,-336,-150,141
713,17272,24,-3396,-4694,23,-344,-145,138
714,17268,8,-3396,-4694,23,-342,-141,138
715,17306,-4,-3424,-4694,23,-346,-148,144
716,17286,30,-3428,-4696,23,-341,-146,144
717,17288,20,-3430,-4697,23,-345,-149,144
718,17246,-10,-3432,-4695,23,-345,-151,135
719,17272,-10,-3398,-4694,23,-341,-151,140
720,17278,-12,-3432,-4691,23,-349,-150,136
721,17278,0,-3396,-4699,23,-342,-146,139
722,17244,-16,-3424,-4695,23,-345,-153,139
723,17292,4,-3456,-4698,23,-346,-144,140
724,17244,-26,-3420,-4696,23,-343,-147,144
725,17278,14,-3396,-4689,23,-347,-149,142
726,17278,14,-3466,-4693,23,-348,-155,139
727,17264,10,-3444,-4697,23,-349,-156,143
728,17280,0,-3424,-4699,23,-339,-148,142
729,17280,0,-3430,-4696,23,-339,-154,138
730,17280,-12,-3484,-4693,23,-345,-152,145
731,17246,4,-3454,-4693,23,-347,-151,150
732,17258,16,-3472,-4692,23,-342,-146,146
733,17264,-8,-3446,-4692,23,-346,-150,143
734,17280,12,-3484,-4696,23,-340,-157,133
735,17270,6,-3440,-4694,23,-348,-151,139
736,17284,32,-3398,-4692,23,-345,-148,139
737,17282,20,-3420,-4692,23,-347,-154,146
738,17298,-20,-3424,-4696,23,-347,-153,146
739,17272,18,-3460,-4688,23,-346,-155,143
740,17250,10,-3408,-4692,23,-350,-155,145
741,17244,20,-3432,-4697,23,-346,-153,136
742,17254,12,-3442,-4691,23,-342,-152,142
743,17234,38,-3480,-4694,23,-343,-153,140
744,17258,58,-3452,-4691,23,-344,-156,143
745,17278,30,-3438,-4695,23,-346,-150,142
746,17274,24,-3440,-4690,23,-350,-150,136
747,17246,-4,-3444,-4691,23,-342,-150,135
748,17238,-12,-3422,-4693,23,-347,-154,140
749,17252,32,-3428,-4693,23,-351,-147,139
750,17284,26,-3450,-4695,23,-356,-154,139
751,17288,-16,-3404,-4693,23,-349,-153,136
752,17288,4,-3430,-4696,23,-344,-151,141
753,17264,20,-3460,-4700,23,-345,-162,145
754,17256,28,-3456,-4697,23,-346,-161,144
755,17270,20,-3448,-4693,23,-348,-167,140
756,17262,10,-3398,-4694,23,-346,-156,145
757,17292,18,-3422,-4693,23,-344,-158,134
758,17266,16,-3484,-4691,23,-341,-156,138
759,17236,16,-3468,-4688,23,-344,-144,138
760,17272,4,-3434,-4689,23,-337,-149,135
761,17272,24,-3404,-4685,23,-345,-145,144
762,17262,-2,-3410,-4688,23,-344,-154,143
763,17268,2,-3446,-4697,23,-349,-148,134
764,17278,18,-3412,-4693,23,-345,-144,135
765,17276,8,-3384,-4696,23,-345,-150,133
766,17272,44,-3478,-4696,23,-344,-160,133
767,17292,34,-3520,-4697,23,-340,-151,133
768,17288,28,-3422,-4696,23,-343,-167,135
769,17258,34,-3418,-4692,23,-345,-151,139
770,17268,22,-3420,-4696,23,-348,-156,141
771,17228,4,-3498,-4691,23,-347,-154,148
772,17282,32,-3438,-4685,23,-350,-146,141
773,17274,34,-3434,-4685,23,-343,-154,138
774,17276,30,-3428,-4689,23,-340,-151,136
775,17288,28,-3396,-4693,23,-338,-149,137
776,17266,28,-3378,-4692,23,-341,-151,143
777,17284,8,-3438,-4693,23,-347,-144,138
778,17276,26,-3430,-4690,23,-351,-144,139
779,17270,2,-3458,-4693,23,-353,-142,135
780,17262,-16,-3464,-4694,23,-353,-142,135
781,17272,-26,-3414,-4689,23,-346,-148,138
782,17272,-24,-3416,-4689,23,-338,-154,141
783,17260,6,-3400,-4684,23,-342,-146,137
784,17288,24,-3388,-4690,23,-345,-145,143
785,17254,26,-3468,-4694,23,-337,-153,148
786,17260,10,-3436,-4690,23,-345,-148,145
787,17272,14,-3416,-4691,23,-344,-149,150
788,17256,20,-3442,-4688,23,-346,-144,139
789,17256,16,-3438,-4689,23,-345,-150,140
790,17258,28,-3408,-4687,23,-339,-153,142
791,17280,-4,-3452,-4688,23,-344,-153,142
792,17250,-4,-3434,-4693,23,-348,-146,130
793,17264,-36,-3434,-4692,23,-347,-152,144
794,17258,-4,-3400,-4693,23,-345,-154,140
795,17296,-4,-3410,-4694,23,-343,-156,138
796,17274,8,-3394,-4692,23,-345,-152,138
797,17258,16,-3426,-4696,23,-352,-155,134
798,17320,-4,-3410,-4700,23,-352,-151,139
799,17262,24,-3480,-4693,23,-349,-154,148
800,17278,8,-3414,-4697,23,-349,-147,146
801,17276,8,-3412,-4693,23,-340,-158,143
802,17240,6,-3406,-4692,23,-337,-155,143
803,17272,12,-3394,-4689,23,-342,-155,138
804,17248,8,-3414,-4691,23,-349,-157,141
805,17246,18,-3426,-4699,23,-347,-150,139
806,17268,18,-3446,-4699,23,-338,-145,140
807,17286,60,-3398,-4695,23,-344,-150,139
808,17268,50,-3410,-4698,23,-341,-153,130
809,17286,26,-3378,-4698,23,-343,-151,136
810,17284,8,-3436,-4696,23,-345,-149,139
811,17292,10,-3446,-4696,23,-342,-150,145
812,17264,8,-3414,-4696,23,-345,-151,144
813,17258,44,-3410,-4695,23,-337,-146,149
814,17272,-2,-3408,-4695,23,-340,-146,142
815,17286,24,-3404,-4693,23,-348,-150,138
816,17296,2,-3386,-4701,23,-341,-153,144
817,17292,24,-3432,-4699,23,-337,-154,146
818,17316,30,-3428,-4696,23,-343,-150,139
819,17270,12,-3422,-4697,23,-340,-149,138
820,17272,4,-3406,-4690,23,-336,-146,138
821,17276,-2,-3440,-4693,23,-341,-154,139
822,17258,22,-3444,-4695,23,-343,-152,138
823,17288,34,-3406,-4695,23,-345,-146,140
824,17266,8,-3414,-4695,23,-344,-155,145
825,17256,14,-3466,-4698,23,-346,-150,145
826,17278,8,-3410,-4697,23,-352,-149,135
827,17262,-12,-3434,-4696,23,-347,-149,140
828,17262,44,-3450,-4696,23,-348,-157,136
829,17250,10,-3450,-4692,23,-348,-156,136
830,17272,-2,-3438,-4687,23,-349,-154,133
831,17256,28,-3448,-4695,23,-350,-162,141
832,17234,10,-3378,-4691,23,-351,-156,142
833,17270,10,-3430,-4690,23,-348,-153,137
834,17274,10,-3396,-4692,23,-347,-149,142
835,17284,14,-3398,-4690,23,-343,-149,146
836,17284,4,-3438,-4692,23,-344,-153,142
837,17280,6,-3452,-4693,23,-344,-157,141
838,17292,26,-3458,-4691,23,-340,-163,140
839,17272,22,-3450,-4692,23,-344,-152,145
840,17264,34,-3414,-4695,23,-342,-148,142
841,17282,10,-3486,-4690,23,-346,-149,146
842,17296,-10,-3504,-4692,23,-344,-152,140
843,17250,-10,-3450,-4691,23,-348,-149,140
844,17272,14,-3434,-4689,23,-344,-147,142
845,17280,18,-3398,-4696,23,-342,-145,141
846,17258,38,-3382,-4695,23,-338,-154,144
847,17262,26,-3398,-4688,23,-340,-162,145
848,17290,30,-3394,-4689,23,-339,-154,144
849,17288,10,-3408,-4690,23,-343,-155,141
850,17280,50,-3416,-4688,23,-345,-151,139
851,17280,10,-3434,-4695,23,-344,-149,141
852,17284,18,-3432,-4698,23,-344,-152,143
853,17286,14,-3472,-4692,23,-343,-153,143
854,17258,38,-3462,-4695,23,-343,-152,139
855,17254,50,-3426,-4695,23,-336,-151,147
856,17254,14,-3450,-4688,23,-341,-153,139
857,17286,18,-3418,-4693,23,-346,-156,143
858,17270,4,-3418,-4690,23,-339,-150,142
859,17228,18,-3426,-4694,23,-344,-156,144
860,17272,20,-3434,-4694,23,-352,-150,144
861,17288,28,-3416,-4698,23,-342,-156,146
862,17230,-4,-3426,-4691,23,-344,-150,137
863,17260,-6,-3388,-4686,23,-348,-158,132
864,17270,20,-3384,-4695,23,-340,-152,143
865,17244,4,-3396,-4694,23,-341,-154,149
866,17250,0,-3420,-4691,23,-342,-146,142
867,17252,26,-3372,-4691,23,-340,-149,139
868,17262,32,-3410,-4694,23,-345,-149,139
869,17252,-2,-3458,-4696,23,-346,-156,143
870,17254,20,-3436,-4691,23,-346,-154,138
871,17292,8,-3476,-4692,23,-345,-156,141
872,17270,-4,-3488,-4694,23,-342,-148,143
873,17254,4,-3456,-4698,23,-340,-151,144
874,17272,16,-3448,-4695,23,-339,-151,136
875,17270,20,-3490,-4691,23,-338,-157,139
876,17292,-6,-3456,-4689,23,-340,-155,140
877,17282,14,-3392,-4691,23,-344,-155,135
878,17250,28,-3404,-4689,23,-346,-153,139
879,17250,10,-3412,-4687,23,-352,-157,144
880,17254,28,-3456,-4692,23,-347,-158,137
881,17270,22,-3452,-4690,23,-351,-156,141
882,17256,-2,-3452,-4695,23,-351,-151,142
883,17262,-10,-3406,-4695,23,-347,-153,140
884,17280,-20,-3462,-4695,23,-343,-145,144
885,17280,-10,-3452,-4695,23,-347,-154,141
886,17280,2,-3432,-4688,23,-343,-142,147
887,17294,-4,-3468,-4691,23,-342,-149,143
888,17318,-8,-3480,-4692,23,-343,-155,142
889,17320,-8,-3432,-4695,23,-347,-156,138
890,17284,-24,-3432,-4695,23,-348,-156,143
891,17274,-8,-3436,-4693,23,-344,-154,142
892,17286,30,-3386,-4700,23,-344,-144,136
893,17282,32,-3436,-4695,23,-339,-140,137
894,17262,16,-3446,-4695,23,-339,-154,141
895,17248,20,-3418,-4697,23,-348,-152,137
896,17258,24,-3420,-4695,23,-347,-149,141
897,17246,18,-3426,-4697,23,-337,-151,140
898,17264,16,-3470,-4691,23,-342,-155,138
899,17280,-8,-3428,-4697,23,-344,-148,135
900,17250,14,-3452,-4699,23,-347,-148,139
901,17276,-10,-3412,-4691,23,-338,-149,136
902,17270,18,-3412,-4695,23,-348,-148,137
903,17270,16,-3410,-4696,23,-351,-145,142
904,17234,24,-3408,-4700,23,-348,-150,141
905,17242,8,-3418,-4694,23,-351,-149,144
906,17288,14,-3436,-4694,23,-346,-158,143
907,17296,4,-3444,-4693,23,-346,-150,145
908,17288,-32,-3404,-4692,23,-341,-146,141
909,17284,14,-3426,-4690,23,-338,-148,144
910,17272,8,-3446,-4692,23,-348,-142,143
911,17238,10,-3446,-4694,23,-350,-156,140
912,17264,32,-3454,-4691,23,-349,-154,135
913,17274,24,-3382,-4690,23,-350,-158,134
914,17262,6,-3428,-4691,23,-346,-155,141
915,17266,36,-3404,-4693,23,-342,-151,138
916,17290,12,-3426,-4693,23,-344,-146,143
917,17302,10,-3440,-4691,23,-351,-153,140
918,17296,14,-3436,-4689,23,-353,-144,138
919,17320,-8,-3394,-4687,23,-343,-149,137
920,17258,-22,-3408,-4683,23,-345,-150,130
921,17274,26,-3416,-4685,23,-346,-148,141
922,17304,46,-3454,-4686,23,-346,-146,139
923,17264,12,-3418,-4687,23,-349,-145,136
924,17270,18,-3396,-4690,23,-352,-149,139
925,17258,16,-3446,-4687,23,-354,-154,140
926,17274,8,-3488,-4690,23,-348,-153,140
927,17276,18,-3450,-4692,23,-345,-156,143
928,17288,4,-3390,-4692,23,-344,-149,142
929,17284,16,-3370,-4690,23,-348,-149,139
930,17278,8,-3426,-4694,23,-354,-156,139
931,17282,34,-3412,-4690,23,-340,-149,138
932,17260,8,-3386,-4687,23,-347,-154,148
933,17256,42,-3434,-4690,23,-341,-152,147
934,17256,34,-3452,-4688,23,-344,-158,144
935,17284,26,-3444,-4696,23,-348,-148,138
936,17276,24,-3444,-4694,23,-350,-146,130
937,17284,26,-3400,-4693,23,-346,-150,146
938,17278,42,-3392,-4692,23,-340,-146,143
939,17288,48,-3422,-4686,23,-350,-159,134
940,17280,30,-3432,-4688,23,-346,-159,141
941,17244,14,-3440,-4690,23,-344,-150,142
942,17258,30,-3430,-4690,23,-340,-149,135
943,17286,14,-3410,-4693,23,-342,-154,140
944,17282,18,-3428,-4692,23,-341,-156,143
945,17278,46,-3430,-4694,23,-341,-149,141
946,17278,14,-3420,-4696,23,-350,-151,135
947,17306,32,-3416,-4690,23,-351,-152,136
948,17264,10,-3474,-4691,23,-350,-155,143
949,17258,38,-3470,-4691,23,-353,-153,142
950,17268,-28,-3476,-4694,23,-349,-149,143
951,17278,4,-3450,-4691,23,-346,-148,139
952,17274,-6,-3440,-4691,23,-346,-151,138
953,17240,26,-3444,-4693,23,-337,-150,139
954,17272,-10,-3476,-4692,23,-344,-157,145
955,17298,-6,-3448,-4689,23,-348,-147,139
956,17256,-14,-3466,-4687,23,-345,-156,142
957,17270,0,-3450,-4692,23,-349,-149,135
958,17284,36,-3408,-4693,23,-346,-149,140
959,17274,62,-3386,-4690,23,-350,-151,140
960,17272,22,-3400,-4690,23,-344,-155,141
961,17256,18,-3422,-4688,23,-337,-155,141
962,17248,30,-3370,-4685,23,-332,-157,142
963,17296,32,-3422,-4690,23,-347,-154,142
964,17260,38,-3462,-4688,23,-350,-146,143
965,17272,34,-3462,-4694,23,-353,-147,141
966,17258,20,-3414,-4691,23,-345,-149,139
967,17300,30,-3454,-4692,23,-341,-150,139
968,17258,28,-3496,-4694,23,-346,-148,139
969,17256,18,-3472,-4691,23,-345,-149,134
970,17266,22,-3414,-4687,23,-340,-146,140
971,17274,-10,-3416,-4697,23,-339,-146,145
972,17258,-10,-3440,-4695,23,-344,-144,140
973,17258,8,-3460,-4692,23,-347,-147,141
974,17260,24,-3452,-4688,23,-346,-153,143
975,17260,34,-3456,-4688,23,-349,-151,141
976,17236,42,-3398,-4690,23,-350,-153,136
977,17274,40,-3394,-4691,23,-348,-150,140
978,17264,28,-3440,-4694,23,-352,-152,141
979,17280,52,-3410,-4689,23,-344,-157,138
980,17272,22,-3396,-4693,23,-346,-154,143
981,17308,0,-3428,-4689,23,-345,-156,144
982,17300,26,-3454,-4685,23,-348,-153,140
983,17264,12,-3480,-4684,23,-344,-160,143
984,17258,22,-3470,-4690,23,-349,-155,143
985,17278,22,-3438,-4689,23,-346,-160,142
986,17270,12,-3422,-4691,23,-348,-155,137
987,17270,-12,-3414,-4688,23,-347,-158,138
988,17268,-2,-3458,-4690,23,-344,-152,138
989,17276,16,-3440,-4689,23,-346,-150,140
990,17278,32,-3442,-4688,23,-346,-146,140
991,17290,46,-3376,-4690,23,-344,-148,136
992,17280,36,-3406,-4694,23,-340,-146,136
993,17272,12,-3414,-4693,23,-344,-148,141
994,17250,30,-3446,-4688,23,-345,-149,135
995,17268,-22,-3470,-4689,23,-343,-154,142
996,17260,-4,-3396,-4695,23,-341,-158,139
997,17274,-4,-3424,-4691,23,-343,-158,139
998,17282,6,-3428,-4693,23,-342,-152,141
