,acc_X,acc_Y,acc_Z,temp,tempC,gyr_X,gyr_Y,gyr_Z
0,17298,-6,-3422,-4800,22,-43,-19,17
1,17300,-6,-3412,-4800,22,-43,-19,17
2,17300,-8,-3406,-4800,22,-43,-19,17
3,17288,-6,-3400,-4799,22,-44,-19,17
4,17282,6,-3400,-4801,22,-44,-19,17
5,17272,10,-3418,-4799,22,-44,-19,17
6,17274,8,-3418,-4799,22,-44,-19,17
7,17276,-2,-3416,-4799,22,-43,-19,17
8,17280,6,-3406,-4799,22,-44,-19,17
9,17288,4,-3404,-4798,22,-43,-19,17
10,17284,8,-3396,-4797,22,-44,-19,17
11,17284,6,-3382,-4796,22,-44,-19,17
12,17280,8,-3392,-4795,22,-44,-19,17
13,17264,12,-3384,-4795,22,-43,-19,17
14,17262,12,-3388,-4795,22,-44,-19,17
15,17266,12,-3392,-4794,22,-44,-19,17
16,17268,10,-3398,-4794,22,-43,-19,17
17,17272,6,-3398,-4792,22,-44,-20,17
18,17264,6,-3388,-4793,22,-44,-19,16
19,17262,12,-3392,-4794,22,-43,-19,17
20,17270,20,-3382,-4794,22,-43,-19,17
21,17260,14,-3380,-4796,22,-43,-19,17
22,17272,12,-3374,-4797,22,-43,-19,17
23,17270,14,-3384,-4794,22,-43,-19,17
24,17268,6,-3390,-4793,22,-43,-20,17
25,17274,2,-3392,-4794,22,-43,-19,17
26,17276,-8,-3396,-4793,22,-43,-19,17
27,17274,-6,-3406,-4794,22,-43,-19,17
28,17274,-2,-3406,-4794,22,-43,-19,17
29,17280,2,-3410,-4793,22,-43,-19,17
30,17284,10,-3412,-4792,22,-43,-19,17
31,17282,18,-3394,-4792,22,-43,-19,17
32,17280,14,-3394,-4790,22,-43,-19,17
33,17280,20,-3404,-4789,22,-43,-19,17
34,17288,20,-3406,-4788,22,-43,-19,17
35,17284,14,-3398,-4788,22,-43,-19,17
36,17292,26,-3408,-4787,22,-43,-19,17
37,17300,20,-3418,-4788,22,-43,-19,17
38,17294,24,-3416,-4788,22,-43,-19,17
39,17286,30,-3402,-4788,22,-43,-19,17
40,17288,26,-3394,-4789,22,-43,-20,16
41,17294,26,-3398,-4789,22,-43,-20,17
42,17290,24,-3398,-4787,22,-43,-20,17
43,17292,14,-3380,-4786,22,-44,-19,17
44,17290,18,-3380,-4785,22,-43,-19,17
45,17288,24,-3386,-4785,22,-44,-19,17
46,17294,18,-3400,-4784,22,-44,-19,17
47,17288,18,-3402,-4786,22,-44,-19,17
48,17280,26,-3410,-4788,22,-43,-19,17
49,17270,26,-3410,-4788,22,-43,-19,17
50,17276,12,-3400,-4790,22,-43,-19,17
51,17288,8,-3388,-4789,22,-43,-19,17
52,17286,0,-3396,-4790,22,-43,-19,16
53,17288,6,-3384,-4789,22,-43,-19,16
54,17278,4,-3388,-4788,22,-43,-19,16
55,17288,14,-3384,-4787,22,-43,-19,17
56,17276,20,-3384,-4787,22,-44,-19,16
57,17272,20,-3400,-4787,22,-44,-19,17
58,17270,22,-3384,-4785,22,-44,-19,17
59,17276,16,-3388,-4784,22,-44,-20,16
60,17282,20,-3386,-4785,22,-44,-19,17
61,17286,16,-3394,-4786,22,-44,-19,17
62,17292,22,-3380,-4787,22,-43,-19,17
63,17284,24,-3400,-4785,22,-43,-19,17
64,17280,26,-3394,-4784,22,-43,-19,17
65,17280,16,-3402,-4782,22,-43,-19,17
66,17270,26,-3408,-4781,22,-43,-19,17
67,17274,24,-3408,-4781,22,-43,-19,17
68,17278,32,-3414,-4783,22,-43,-19,17
69,17270,32,-3406,-4783,22,-43,-19,17
70,17266,30,-3398,-4783,22,-43,-19,17
71,17264,26,-3394,-4783,22,-43,-19,17
72,17272,6,-3414,-4783,22,-43,-19,17
73,17278,0,-3416,-4783,22,-43,-20,17
74,17284,0,-3416,-4782,22,-43,-20,17
75,17280,6,-3414,-4781,22,-43,-20,17
76,17276,4,-3408,-4781,22,-43,-19,17
77,17264,2,-3400,-4779,22,-43,-20,17
78,17272,14,-3398,-4779,22,-43,-20,17
79,17270,10,-3400,-4779,22,-43,-19,17
80,17268,8,-3400,-4780,22,-43,-20,17
81,17274,4,-3402,-4781,22,-44,-19,17
82,17270,-6,-3406,-4781,22,-44,-19,17
83,17274,-2,-3398,-4779,22,-44,-19,17
84,17260,0,-3398,-4779,22,-44,-20,17
85,17258,10,-3390,-4780,22,-43,-20,17
86,17258,16,-3396,-4779,22,-43,-19,17
87,17262,22,-3404,-4779,22,-44,-19,17
88,17264,30,-3414,-4780,22,-44,-20,17
89,17268,22,-3412,-4780,22,-44,-19,16
90,17266,24,-3418,-4781,22,-44,-20,16
91,17262,12,-3420,-4783,22,-44,-20,17
92,17256,18,-3412,-4782,22,-44,-20,17
93,17266,16,-3406,-4782,22,-44,-19,17
94,17276,6,-3388,-4782,22,-44,-19,17
95,17272,2,-3386,-4781,22,-43,-19,17
96,17270,0,-3386,-4781,22,-43,-19,17
97,17278,8,-3396,-4779,22,-44,-19,17
98,17274,6,-3404,-4778,22,-44,-19,17
99,17280,12,-3406,-4777,22,-44,-19,17
100,17290,4,-3398,-4777,22,-44,-19,17
101,17282,-4,-3394,-4776,22,-45,-19,17
102,17280,-6,-3404,-4777,22,-44,-19,17
103,17268,0,-3392,-4777,22,-44,-19,17
104,17268,4,-3392,-4776,22,-44,-19,17
105,17272,8,-3388,-4777,22,-44,-19,17
106,17280,6,-3388,-4777,22,-44,-19,17
107,17278,12,-3380,-4776,22,-44,-19,17
108,17282,18,-3392,-4774,22,-44,-19,17
109,17278,20,-3394,-4773,22,-44,-19,17
110,17272,10,-3404,-4774,22,-44,-19,17
111,17268,2,-3398,-4774,22,-43,-19,17
112,17266,2,-3396,-4775,22,-43,-19,17
113,17256,6,-3402,-4773,22,-43,-19,17
114,17260,12,-3404,-4772,22,-43,-19,17
115,17272,16,-3398,-4772,22,-43,-19,17
116,17276,10,-3390,-4773,22,-43,-19,17
117,17268,6,-3372,-4774,22,-43,-19,17
118,17268,10,-3370,-4774,22,-43,-19,17
119,17268,6,-3374,-4771,22,-43,-19,17
120,17268,8,-3386,-4771,22,-43,-19,17
121,17278,12,-3370,-4770,22,-43,-19,17
122,17282,22,-3382,-4771,22,-43,-19,17
123,17278,28,-3382,-4770,22,-44,-19,17
124,17280,16,-3376,-4769,22,-43,-19,17
125,17280,20,-3364,-4769,22,-44,-19,17
126,17274,10,-3392,-4769,22,-43,-19,17
127,17272,10,-3408,-4769,22,-43,-19,16
128,17278,12,-3400,-4769,22,-44,-19,17
129,17274,4,-3398,-4770,22,-43,-19,17
130,17274,6,-3408,-4769,22,-43,-19,17
131,17274,18,-3410,-4767,22,-43,-19,17
132,17274,18,-3384,-4767,22,-44,-19,17
133,17274,18,-3386,-4768,22,-44,-19,17
134,17272,20,-3386,-4770,22,-44,-19,17
135,17270,14,-3380,-4769,22,-44,-19,17
136,17274,20,-3372,-4768,22,-44,-19,17
137,17274,30,-3382,-4767,22,-44,-19,17
138,17278,14,-3392,-4767,22,-44,-19,16
139,17278,6,-3390,-4767,22,-44,-19,16
140,17274,10,-3398,-4767,22,-44,-18,17
141,17256,14,-3406,-4766,22,-44,-19,17
142,17260,20,-3408,-4768,22,-44,-19,16
143,17256,16,-3404,-4767,22,-44,-19,16
144,17252,22,-3402,-4766,22,-44,-19,16
145,17250,24,-3396,-4766,22,-44,-19,17
146,17244,26,-3388,-4766,22,-44,-19,17
147,17256,34,-3400,-4764,22,-44,-20,17
148,17260,24,-3406,-4765,22,-44,-19,17
149,17258,16,-3404,-4763,22,-44,-19,17
150,17258,22,-3404,-4762,22,-44,-19,17
151,17264,20,-3408,-4763,22,-44,-19,17
152,17258,16,-3406,-4762,22,-44,-19,17
153,17262,24,-3396,-4761,22,-44,-19,16
154,17274,12,-3398,-4763,22,-44,-19,17
155,17278,12,-3404,-4763,22,-44,-19,17
156,17278,-4,-3406,-4765,22,-44,-19,17
157,17270,-2,-3402,-4766,22,-44,-19,17
158,17266,0,-3392,-4765,22,-44,-19,17
159,17268,-4,-3382,-4765,22,-44,-19,17
160,17274,-2,-3390,-4764,22,-44,-19,17
161,17274,-4,-3392,-4763,22,-44,-19,17
162,17270,-2,-3396,-4763,22,-44,-19,17
163,17284,4,-3390,-4762,22,-44,-19,17
164,17280,8,-3394,-4760,22,-44,-19,17
165,17272,6,-3402,-4761,22,-44,-19,17
166,17272,2,-3408,-4762,22,-44,-19,17
167,17276,6,-3398,-4763,22,-44,-19,17
168,17276,12,-3388,-4762,22,-44,-18,17
169,17266,22,-3380,-4762,22,-44,-19,17
170,17270,22,-3386,-4761,22,-44,-19,17
171,17268,22,-3390,-4759,23,-44,-19,17
172,17266,20,-3388,-4759,23,-44,-19,17
173,17262,18,-3388,-4759,23,-44,-19,17
174,17260,14,-3390,-4758,23,-44,-19,17
175,17250,14,-3392,-4758,23,-44,-19,17
176,17258,8,-3376,-4759,23,-43,-19,17
177,17260,6,-3370,-4758,23,-43,-19,17
178,17266,-4,-3372,-4759,23,-43,-19,17
179,17268,0,-3372,-4759,23,-43,-19,17
180,17274,8,-3386,-4758,23,-43,-19,17
181,17282,4,-3388,-4757,23,-43,-19,17
182,17280,18,-3380,-4759,23,-44,-19,17
183,17282,18,-3384,-4759,23,-43,-20,17
184,17278,16,-3400,-4759,23,-44,-19,17
185,17284,10,-3394,-4758,23,-43,-19,17
186,17288,14,-3400,-4756,23,-44,-19,17
187,17294,14,-3396,-4755,23,-44,-19,17
188,17280,14,-3392,-4755,23,-44,-19,17
189,17280,2,-3382,-4754,23,-44,-19,17
190,17276,2,-3390,-4754,23,-43,-19,16
191,17280,2,-3390,-4753,23,-43,-19,16
192,17282,6,-3390,-4755,23,-44,-19,16
193,17288,12,-3384,-4755,23,-44,-19,16
194,17284,24,-3392,-4753,23,-43,-19,16
195,17284,26,-3386,-4754,23,-44,-19,16
196,17272,30,-3390,-4755,23,-43,-19,16
197,17272,28,-3404,-4755,23,-44,-19,16
198,17276,30,-3402,-4755,23,-44,-20,17
199,17262,14,-3406,-4754,23,-43,-20,17
200,17254,18,-3402,-4754,23,-44,-19,17
201,17266,22,-3404,-4757,23,-44,-20,17
202,17272,20,-3410,-4755,23,-44,-20,17
203,17276,20,-3414,-4756,23,-44,-19,17
204,17270,20,-3410,-4755,23,-44,-19,17
205,17262,14,-3402,-4755,23,-44,-20,17
206,17274,6,-3404,-4755,23,-44,-19,17
207,17274,4,-3400,-4754,23,-44,-19,17
208,17276,10,-3400,-4755,23,-44,-19,17
209,17274,20,-3402,-4754,23,-44,-19,17
210,17284,24,-3398,-4755,23,-44,-19,17
211,17268,16,-3392,-4755,23,-44,-19,17
212,17268,4,-3398,-4753,23,-44,-19,17
213,17262,4,-3404,-4752,23,-44,-20,17
214,17266,12,-3424,-4753,23,-44,-19,17
215,17268,16,-3422,-4754,23,-44,-19,18
216,17266,18,-3408,-4754,23,-44,-19,18
217,17274,24,-3398,-4753,23,-43,-19,17
218,17268,28,-3392,-4752,23,-43,-19,17
219,17262,18,-3386,-4753,23,-43,-19,18
220,17264,20,-3394,-4753,23,-43,-19,17
221,17262,24,-3390,-4752,23,-43,-19,18
222,17270,14,-3388,-4752,23,-43,-19,18
223,17276,16,-3388,-4752,23,-44,-20,18
224,17270,12,-3390,-4753,23,-43,-19,18
225,17266,8,-3386,-4751,23,-43,-20,17
226,17268,10,-3376,-4751,23,-43,-19,17
227,17264,18,-3376,-4753,23,-43,-19,17
228,17260,20,-3386,-4753,23,-44,-19,17
229,17268,20,-3390,-4752,23,-44,-19,17
230,17274,24,-3400,-4750,23,-44,-20,17
231,17280,24,-3416,-4749,23,-44,-20,17
232,17284,16,-3436,-4751,23,-44,-20,17
233,17288,24,-3410,-4752,23,-44,-20,17
234,17282,26,-3420,-4752,23,-44,-20,17
235,17284,24,-3402,-4751,23,-43,-20,17
236,17280,18,-3404,-4751,23,-43,-19,17
237,17282,10,-3406,-4750,23,-43,-19,17
238,17282,14,-3406,-4750,23,-43,-19,17
239,17286,18,-3402,-4749,23,-43,-19,17
240,17276,22,-3410,-4749,23,-43,-19,17
241,17274,20,-3402,-4749,23,-43,-19,17
242,17280,12,-3388,-4750,23,-43,-19,17
243,17272,14,-3396,-4750,23,-43,-19,17
244,17274,16,-3384,-4749,23,-43,-19,17
245,17278,14,-3394,-4748,23,-43,-19,17
246,17282,12,-3394,-4749,23,-43,-19,17
247,17284,18,-3400,-4751,23,-43,-19,17
248,17296,12,-3394,-4751,23,-44,-19,17
249,17288,2,-3390,-4751,23,-43,-19,17
250,17284,8,-3392,-4751,23,-43,-19,17
251,17286,8,-3390,-4753,23,-44,-19,17
252,17278,0,-3392,-4752,23,-44,-19,17
253,17284,2,-3392,-4751,23,-43,-19,17
254,17286,8,-3406,-4749,23,-43,-19,17
255,17278,14,-3410,-4750,23,-43,-19,17
256,17292,12,-3408,-4750,23,-44,-19,17
257,17294,14,-3410,-4750,23,-44,-19,17
258,17292,8,-3412,-4749,23,-44,-19,17
259,17282,6,-3410,-4750,23,-44,-19,17
260,17274,14,-3408,-4750,23,-44,-19,17
261,17272,16,-3394,-4749,23,-44,-19,17
262,17270,16,-3382,-4748,23,-44,-19,17
263,17262,14,-3366,-4748,23,-44,-19,17
264,17264,22,-3366,-4749,23,-44,-19,17
265,17262,26,-3374,-4748,23,-44,-19,17
266,17274,20,-3382,-4746,23,-44,-19,18
267,17270,8,-3376,-4744,23,-43,-19,17
268,17276,6,-3380,-4746,23,-43,-19,17
269,17280,2,-3378,-4745,23,-43,-19,17
270,17276,6,-3376,-4745,23,-43,-19,17
271,17278,6,-3388,-4745,23,-44,-19,17
272,17280,0,-3402,-4746,23,-44,-19,17
273,17274,-4,-3398,-4747,23,-43,-19,17
274,17278,2,-3410,-4745,23,-43,-19,17
275,17286,16,-3406,-4743,23,-43,-19,17
276,17290,16,-3422,-4745,23,-44,-19,17
277,17292,12,-3410,-4746,23,-43,-19,17
278,17288,14,-3408,-4746,23,-44,-19,17
279,17298,14,-3416,-4746,23,-44,-19,17
280,17288,10,-3412,-4745,23,-44,-19,17
281,17280,-6,-3410,-4747,23,-44,-19,17
282,17284,6,-3414,-4746,23,-44,-19,17
283,17280,20,-3406,-4745,23,-44,-19,17
284,17276,22,-3398,-4745,23,-44,-19,17
285,17278,18,-3400,-4745,23,-44,-20,17
286,17280,18,-3408,-4744,23,-44,-19,17
287,17280,16,-3416,-4746,23,-44,-19,17
288,17284,18,-3418,-4745,23,-43,-19,17
289,17282,22,-3422,-4746,23,-43,-19,17
290,17274,20,-3420,-4746,23,-43,-20,17
291,17272,24,-3416,-4744,23,-43,-19,17
292,17278,16,-3414,-4744,23,-43,-19,17
293,17274,10,-3404,-4745,23,-43,-19,17
294,17274,6,-3404,-4744,23,-43,-19,17
295,17266,12,-3396,-4745,23,-43,-19,16
296,17262,16,-3390,-4744,23,-44,-19,17
297,17262,4,-3376,-4745,23,-44,-20,17
298,17268,0,-3382,-4744,23,-44,-19,17
299,17264,-2,-3382,-4744,23,-44,-19,17
300,17272,0,-3388,-4746,23,-44,-20,17
301,17282,0,-3390,-4745,23,-44,-19,17
302,17286,8,-3392,-4744,23,-44,-19,17
303,17282,16,-3390,-4744,23,-44,-19,17
304,17282,28,-3382,-4745,23,-44,-20,17
305,17278,34,-3386,-4744,23,-44,-20,17
306,17286,28,-3388,-4744,23,-44,-19,17
307,17280,18,-3394,-4745,23,-44,-19,17
308,17282,22,-3390,-4743,23,-44,-19,17
309,17282,24,-3384,-4744,23,-43,-19,17
310,17280,18,-3394,-4743,23,-43,-20,17
311,17268,16,-3394,-4744,23,-44,-19,17
312,17272,24,-3400,-4744,23,-44,-19,17
313,17272,24,-3404,-4744,23,-44,-19,17
314,17270,20,-3402,-4742,23,-44,-19,17
315,17280,18,-3398,-4743,23,-44,-19,17
316,17266,16,-3394,-4743,23,-44,-20,17
317,17268,14,-3394,-4743,23,-44,-19,17
318,17276,10,-3400,-4743,23,-43,-19,17
319,17270,0,-3404,-4743,23,-44,-19,17
320,17266,6,-3410,-4743,23,-43,-19,17
321,17268,8,-3408,-4743,23,-44,-19,17
322,17278,12,-3402,-4742,23,-44,-19,17
323,17274,10,-3404,-4741,23,-44,-19,17
324,17266,10,-3408,-4740,23,-44,-19,17
325,17262,8,-3412,-4742,23,-44,-19,17
326,17260,10,-3420,-4742,23,-44,-19,17
327,17266,8,-3416,-4742,23,-44,-19,17
328,17266,6,-3412,-4741,23,-44,-19,17
329,17270,-2,-3406,-4741,23,-44,-19,17
330,17266,4,-3406,-4741,23,-44,-19,17
331,17272,4,-3402,-4741,23,-44,-19,17
332,17276,2,-3390,-4740,23,-44,-19,17
333,17278,2,-3382,-4742,23,-44,-19,17
334,17274,10,-3384,-4741,23,-43,-19,17
335,17282,22,-3402,-4742,23,-43,-19,17
336,17282,20,-3400,-4743,23,-44,-19,17
337,17280,14,-3402,-4743,23,-43,-19,17
338,17284,4,-3396,-4743,23,-43,-19,17
339,17284,-2,-3396,-4743,23,-43,-19,17
340,17286,-2,-3406,-4742,23,-43,-19,17
341,17274,6,-3406,-4743,23,-43,-19,17
342,17272,8,-3400,-4741,23,-43,-19,17
343,17272,14,-3400,-4741,23,-43,-19,17
344,17272,22,-3400,-4741,23,-43,-19,17
345,17282,14,-3406,-4743,23,-43,-19,17
346,17280,12,-3404,-4742,23,-43,-19,17
347,17280,4,-3398,-4741,23,-43,-19,17
348,17268,6,-3396,-4739,23,-43,-19,17
349,17264,6,-3408,-4739,23,-43,-19,17
350,17270,6,-3402,-4738,23,-44,-19,17
351,17272,2,-3406,-4739,23,-44,-19,17
352,17272,4,-3400,-4740,23,-44,-19,17
353,17270,2,-3398,-4741,23,-43,-19,17
354,17264,0,-3404,-4740,23,-44,-19,17
355,17270,0,-3408,-4739,23,-44,-19,17
356,17272,-8,-3406,-4739,23,-44,-19,17
357,17278,-6,-3404,-4740,23,-44,-19,17
358,17270,2,-3390,-4740,23,-44,-20,17
359,17264,-2,-3398,-4741,23,-44,-19,17
360,17272,2,-3404,-4741,23,-44,-20,17
361,17268,-2,-3404,-4742,23,-44,-20,17
362,17268,-8,-3382,-4742,23,-44,-20,17
363,17268,0,-3396,-4741,23,-43,-20,17
364,17274,-4,-3386,-4739,23,-44,-20,17
365,17278,-4,-3394,-4740,23,-44,-19,17
366,17280,-6,-3390,-4740,23,-44,-19,17
367,17276,-4,-3400,-4740,23,-43,-19,17
368,17272,10,-3416,-4740,23,-43,-19,17
369,17268,0,-3408,-4741,23,-44,-19,17
370,17276,2,-3418,-4740,23,-44,-19,17
371,17270,-2,-3422,-4740,23,-44,-19,17
372,17264,6,-3412,-4738,23,-44,-19,17
373,17278,4,-3402,-4737,23,-44,-19,17
374,17278,12,-3396,-4737,23,-44,-19,17
375,17270,6,-3398,-4738,23,-43,-19,17
376,17268,12,-3398,-4737,23,-43,-19,17
377,17272,14,-3404,-4738,23,-43,-19,17
378,17272,6,-3412,-4740,23,-43,-19,17
379,17278,10,-3418,-4740,23,-44,-19,17
380,17274,8,-3410,-4740,23,-44,-19,17
381,17274,8,-3402,-4739,23,-44,-19,17
382,17274,8,-3398,-4738,23,-44,-19,17
383,17280,10,-3386,-4736,23,-44,-19,17
384,17284,4,-3406,-4737,23,-44,-19,17
385,17274,4,-3406,-4736,23,-44,-19,16
386,17268,6,-3402,-4736,23,-44,-19,16
387,17272,6,-3398,-4735,23,-44,-19,16
388,17276,12,-3402,-4735,23,-44,-19,16
389,17270,24,-3398,-4734,23,-43,-19,16
390,17264,10,-3398,-4735,23,-44,-19,16
391,17264,8,-3402,-4735,23,-44,-19,16
392,17264,6,-3400,-4734,23,-44,-19,16
393,17278,10,-3400,-4734,23,-44,-19,17
394,17282,6,-3406,-4733,23,-44,-19,17
395,17286,6,-3406,-4733,23,-43,-19,17
396,17282,8,-3398,-4733,23,-43,-19,17
397,17278,14,-3390,-4734,23,-43,-20,17
398,17284,18,-3390,-4734,23,-44,-20,17
399,17286,18,-3390,-4733,23,-44,-20,17
400,17290,14,-3384,-4734,23,-44,-20,17
401,17282,10,-3394,-4733,23,-44,-19,17
402,17268,10,-3404,-4733,23,-44,-19,17
403,17262,18,-3402,-4733,23,-44,-19,17
404,17254,12,-3392,-4732,23,-44,-19,17
405,17250,18,-3390,-4734,23,-44,-19,17
406,17262,26,-3390,-4736,23,-44,-19,17
407,17262,16,-3380,-4737,23,-43,-19,17
408,17262,16,-3388,-4736,23,-44,-19,17
409,17258,16,-3380,-4736,23,-44,-20,17
410,17262,14,-3402,-4736,23,-44,-20,17
411,17260,4,-3398,-4734,23,-44,-19,17
412,17272,6,-3392,-4736,23,-44,-19,17
413,17276,0,-3390,-4736,23,-44,-20,17
414,17282,4,-3386,-4737,23,-44,-20,17
415,17276,-2,-3406,-4737,23,-44,-20,17
416,17278,2,-3402,-4735,23,-44,-20,17
417,17282,-2,-3412,-4736,23,-44,-20,17
418,17282,0,-3400,-4735,23,-44,-20,17
419,17272,0,-3400,-4734,23,-44,-20,17
420,17270,-4,-3402,-4733,23,-44,-19,17
421,17280,-8,-3400,-4734,23,-44,-19,17
422,17272,0,-3402,-4736,23,-44,-20,17
423,17274,-8,-3398,-4737,23,-44,-20,17
424,17276,2,-3392,-4737,23,-44,-20,17
425,17280,6,-3382,-4737,23,-44,-20,17
426,17280,18,-3390,-4738,23,-44,-20,17
427,17282,24,-3392,-4738,23,-44,-19,17
428,17276,18,-3404,-4736,23,-44,-19,17
429,17280,14,-3408,-4736,23,-44,-19,17
430,17278,22,-3414,-4736,23,-44,-19,17
431,17274,10,-3416,-4737,23,-44,-19,17
432,17274,10,-3418,-4737,23,-44,-19,17
433,17270,6,-3416,-4738,23,-44,-19,16
434,17268,8,-3420,-4738,23,-44,-19,16
435,17274,0,-3408,-4737,23,-44,-19,17
436,17272,-2,-3396,-4735,23,-44,-19,17
437,17266,-2,-3388,-4733,23,-44,-19,17
438,17276,0,-3402,-4733,23,-43,-19,17
439,17274,0,-3402,-4733,23,-43,-19,17
440,17274,2,-3404,-4733,23,-43,-19,17
441,17274,8,-3404,-4733,23,-44,-20,16
442,17274,4,-3406,-4732,23,-44,-20,16
443,17282,6,-3394,-4733,23,-44,-20,16
444,17268,4,-3398,-4733,23,-44,-19,17
445,17276,2,-3396,-4733,23,-44,-19,16
446,17270,0,-3388,-4732,23,-44,-19,17
447,17272,0,-3392,-4731,23,-44,-19,17
448,17262,12,-3394,-4732,23,-44,-19,17
449,17274,6,-3394,-4732,23,-44,-20,17
450,17278,14,-3406,-4731,23,-44,-20,17
451,17284,6,-3404,-4730,23,-44,-19,17
452,17288,28,-3406,-4732,23,-44,-20,17
453,17292,24,-3414,-4732,23,-44,-19,17
454,17298,24,-3406,-4732,23,-44,-20,17
455,17288,20,-3396,-4733,23,-44,-19,17
456,17288,18,-3396,-4731,23,-44,-19,16
457,17286,18,-3390,-4731,23,-44,-19,17
458,17292,18,-3392,-4731,23,-44,-19,17
459,17278,16,-3392,-4732,23,-44,-19,17
460,17282,26,-3398,-4732,23,-44,-19,17
461,17294,18,-3398,-4730,23,-44,-19,17
462,17282,8,-3390,-4730,23,-44,-19,17
463,17272,4,-3396,-4731,23,-44,-19,17
464,17272,14,-3390,-4730,23,-44,-19,17
465,17278,16,-3382,-4730,23,-43,-19,17
466,17280,26,-3386,-4731,23,-43,-19,16
467,17278,30,-3386,-4731,23,-44,-19,16
468,17282,20,-3396,-4731,23,-44,-19,17
469,17270,20,-3396,-4730,23,-44,-19,17
470,17264,22,-3396,-4731,23,-44,-19,17
471,17262,12,-3394,-4731,23,-43,-19,17
472,17270,8,-3388,-4731,23,-43,-19,17
473,17276,12,-3384,-4732,23,-43,-20,17
474,17274,8,-3376,-4732,23,-43,-20,17
475,17268,16,-3390,-4732,23,-43,-20,17
476,17266,16,-3392,-4731,23,-43,-20,17
477,17276,16,-3394,-4730,23,-43,-20,17
478,17264,8,-3384,-4732,23,-43,-20,17
479,17258,6,-3400,-4731,23,-44,-20,17
480,17260,2,-3388,-4729,23,-43,-19,17
481,17260,2,-3392,-4728,23,-43,-20,17
482,17266,6,-3392,-4728,23,-44,-19,17
483,17264,6,-3402,-4727,23,-44,-19,16
484,17270,4,-3406,-4728,23,-43,-19,17
485,17270,4,-3394,-4729,23,-43,-19,17
486,17260,8,-3400,-4728,23,-44,-19,17
487,17280,8,-3396,-4729,23,-44,-19,17
488,17270,6,-3396,-4729,23,-43,-19,17
489,17272,18,-3384,-4728,23,-44,-19,17
490,17280,16,-3404,-4730,23,-44,-19,17
491,17282,18,-3400,-4729,23,-44,-19,17
492,17274,10,-3402,-4730,23,-44,-19,17
493,17268,14,-3406,-4731,23,-44,-19,17
494,17264,10,-3410,-4730,23,-44,-19,17
495,17264,12,-3410,-4730,23,-44,-19,17
496,17272,16,-3402,-4728,23,-44,-19,17
497,17272,28,-3394,-4729,23,-44,-19,17
498,17272,26,-3400,-4728,23,-44,-19,17
499,17270,22,-3418,-4727,23,-44,-19,17
500,17268,14,-3412,-4728,23,-44,-19,17
501,17276,8,-3420,-4729,23,-44,-19,17
502,17276,12,-3418,-4728,23,-44,-19,17
503,17272,12,-3408,-4728,23,-44,-19,17
504,17260,14,-3410,-4728,23,-43,-19,17
505,17262,10,-3418,-4728,23,-44,-19,17
506,17268,4,-3406,-4727,23,-44,-19,17
507,17276,8,-3410,-4728,23,-44,-19,17
508,17272,10,-3404,-4729,23,-44,-19,17
509,17264,12,-3398,-4730,23,-44,-19,17
510,17270,14,-3400,-4729,23,-44,-19,17
511,17270,12,-3406,-4729,23,-44,-19,17
512,17276,4,-3400,-4728,23,-44,-19,17
513,17270,6,-3412,-4727,23,-44,-19,17
514,17262,8,-3420,-4728,23,-44,-19,17
515,17264,14,-3428,-4728,23,-43,-19,17
516,17260,8,-3410,-4728,23,-43,-19,17
517,17262,16,-3398,-4728,23,-43,-19,17
518,17278,20,-3394,-4730,23,-44,-19,17
519,17272,24,-3372,-4729,23,-44,-20,17
520,17274,24,-3384,-4728,23,-44,-20,17
521,17286,24,-3380,-4727,23,-43,-19,17
522,17286,22,-3390,-4730,23,-44,-19,17
523,17288,6,-3392,-4729,23,-44,-19,17
524,17284,2,-3388,-4730,23,-44,-19,17
525,17292,-2,-3390,-4730,23,-44,-20,17
526,17292,0,-3400,-4731,23,-44,-20,17
527,17274,12,-3380,-4731,23,-44,-20,17
528,17280,18,-3390,-4729,23,-44,-20,18
529,17282,8,-3400,-4730,23,-43,-20,17
530,17282,14,-3404,-4730,23,-43,-20,17
531,17282,8,-3406,-4728,23,-43,-19,17
532,17276,16,-3408,-4728,23,-43,-19,17
533,17278,20,-3404,-4728,23,-43,-19,17
534,17280,22,-3398,-4728,23,-43,-19,17
535,17286,22,-3394,-4728,23,-43,-19,16
536,17286,16,-3394,-4728,23,-43,-20,17
537,17274,18,-3404,-4727,23,-44,-20,17
538,17284,12,-3408,-4727,23,-44,-20,17
539,17286,16,-3412,-4728,23,-43,-20,16
540,17280,12,-3418,-4728,23,-43,-19,17
541,17282,12,-3408,-4729,23,-43,-19,16
542,17286,6,-3410,-4727,23,-44,-19,17
543,17278,16,-3408,-4730,23,-44,-19,17
544,17288,14,-3414,-4732,23,-44,-19,17
545,17286,16,-3412,-4731,23,-44,-20,17
546,17278,16,-3414,-4732,23,-43,-19,17
547,17272,10,-3400,-4731,23,-44,-19,17
548,17278,12,-3390,-4731,23,-44,-20,17
549,17280,22,-3400,-4732,23,-44,-19,17
550,17274,26,-3404,-4730,23,-44,-19,17
551,17276,28,-3404,-4729,23,-43,-19,17
552,17272,22,-3392,-4729,23,-44,-20,17
553,17276,22,-3406,-4731,23,-44,-19,17
554,17266,20,-3410,-4731,23,-44,-19,17
555,17266,26,-3400,-4731,23,-44,-19,17
556,17258,14,-3418,-4732,23,-44,-19,17
557,17254,12,-3420,-4732,23,-44,-19,17
558,17258,16,-3424,-4730,23,-44,-19,17
559,17260,12,-3402,-4730,23,-43,-19,17
560,17260,10,-3404,-4728,23,-44,-19,17
561,17264,12,-3394,-4728,23,-44,-19,17
562,17272,4,-3390,-4727,23,-44,-19,17
563,17268,0,-3384,-4725,23,-44,-19,17
564,17272,2,-3372,-4728,23,-44,-19,17
565,17272,-6,-3378,-4727,23,-44,-19,17
566,17268,-2,-3386,-4726,23,-44,-19,17
567,17264,-4,-3370,-4726,23,-44,-19,17
568,17270,0,-3382,-4725,23,-44,-19,17
569,17276,4,-3372,-4726,23,-44,-19,17
570,17276,-2,-3376,-4727,23,-44,-19,17
571,17276,-2,-3380,-4725,23,-44,-19,17
572,17260,4,-3390,-4725,23,-44,-19,17
573,17262,2,-3396,-4725,23,-44,-19,17
574,17262,6,-3396,-4726,23,-44,-19,17
575,17252,14,-3390,-4725,23,-44,-19,17
576,17258,16,-3394,-4724,23,-44,-19,17
577,17266,24,-3388,-4724,23,-43,-19,17
578,17268,32,-3402,-4725,23,-43,-19,17
579,17274,28,-3404,-4727,23,-43,-20,17
580,17280,20,-3398,-4727,23,-43,-20,17
581,17280,28,-3404,-4725,23,-43,-19,17
582,17276,20,-3394,-4726,23,-43,-19,17
583,17272,32,-3390,-4723,23,-43,-19,17
584,17266,26,-3394,-4723,23,-43,-19,17
585,17274,26,-3390,-4723,23,-43,-19,17
586,17280,14,-3388,-4722,23,-43,-19,17
587,17288,8,-3392,-4723,23,-44,-19,17
588,17286,10,-3404,-4724,23,-44,-19,17
589,17292,12,-3412,-4724,23,-43,-19,17
590,17292,4,-3406,-4723,23,-44,-19,17
591,17286,12,-3404,-4722,23,-43,-19,17
592,17278,14,-3408,-4723,23,-43,-19,17
593,17282,18,-3414,-4724,23,-44,-19,17
594,17274,20,-3420,-4723,23,-44,-19,17
595,17258,4,-3412,-4724,23,-43,-19,17
596,17268,10,-3410,-4723,23,-43,-19,17
597,17272,10,-3400,-4724,23,-44,-19,17
598,17272,6,-3390,-4723,23,-44,-19,17
599,17274,4,-3382,-4722,23,-44,-19,17
600,17274,20,-3374,-4723,23,-44,-19,17
601,17276,24,-3362,-4722,23,-44,-19,17
602,17280,28,-3376,-4724,23,-44,-19,17
603,17272,28,-3368,-4724,23,-44,-19,17
604,17274,36,-3362,-4723,23,-44,-20,17
605,17282,24,-3378,-4724,23,-43,-20,17
606,17278,20,-3378,-4725,23,-44,-20,17
607,17274,20,-3380,-4724,23,-43,-19,17
608,17260,18,-3388,-4723,23,-44,-19,17
609,17258,16,-3388,-4724,23,-44,-19,17
610,17256,18,-3388,-4724,23,-44,-20,17
611,17262,8,-3382,-4724,23,-44,-20,17
612,17268,4,-3398,-4723,23,-44,-19,17
613,17270,4,-3414,-4724,23,-44,-19,17
614,17264,8,-3410,-4724,23,-44,-19,17
615,17260,10,-3402,-4724,23,-44,-19,17
616,17260,8,-3384,-4725,23,-45,-19,17
617,17260,8,-3378,-4722,23,-44,-19,17
618,17264,8,-3392,-4723,23,-44,-19,17
619,17276,2,-3384,-4723,23,-44,-19,17
620,17272,2,-3408,-4722,23,-44,-19,17
621,17274,0,-3420,-4725,23,-44,-19,17
622,17274,8,-3416,-4726,23,-44,-19,16
623,17276,8,-3408,-4726,23,-44,-19,17
624,17274,14,-3390,-4725,23,-43,-19,17
625,17276,16,-3380,-4725,23,-43,-19,16
626,17274,18,-3400,-4726,23,-43,-19,17
627,17278,16,-3400,-4726,23,-44,-19,17
628,17272,22,-3408,-4727,23,-44,-19,17
629,17274,18,-3404,-4726,23,-44,-20,17
630,17274,22,-3404,-4725,23,-44,-20,17
631,17278,18,-3400,-4724,23,-44,-20,17
632,17274,12,-3396,-4723,23,-44,-19,17
633,17266,14,-3410,-4722,23,-44,-20,17
634,17262,16,-3412,-4721,23,-44,-20,17
635,17272,12,-3402,-4722,23,-44,-20,17
636,17272,12,-3408,-4720,23,-44,-19,17
637,17270,8,-3390,-4720,23,-44,-19,17
638,17272,4,-3390,-4720,23,-44,-19,17
639,17274,8,-3394,-4721,23,-44,-19,17
640,17264,6,-3398,-4723,23,-44,-19,17
641,17262,8,-3390,-4723,23,-44,-19,17
642,17268,18,-3390,-4723,23,-44,-19,17
643,17270,18,-3392,-4722,23,-44,-20,17
644,17272,18,-3386,-4722,23,-44,-19,17
645,17272,14,-3388,-4723,23,-44,-19,16
646,17278,16,-3392,-4723,23,-44,-19,17
647,17286,14,-3390,-4722,23,-43,-19,17
648,17290,10,-3404,-4721,23,-43,-19,16
649,17278,10,-3398,-4722,23,-43,-19,16
650,17274,10,-3410,-4722,23,-44,-19,16
651,17274,14,-3416,-4723,23,-43,-19,16
652,17272,16,-3420,-4722,23,-44,-19,17
653,17274,16,-3432,-4723,23,-44,-19,17
654,17266,20,-3428,-4724,23,-44,-19,17
655,17262,16,-3416,-4724,23,-44,-19,17
656,17260,22,-3404,-4724,23,-44,-19,17
657,17260,22,-3396,-4724,23,-44,-19,17
658,17264,24,-3408,-4723,23,-44,-19,17
659,17276,22,-3398,-4723,23,-44,-19,17
660,17268,26,-3394,-4725,23,-44,-19,17
661,17284,24,-3392,-4724,23,-44,-19,17
662,17290,32,-3364,-4722,23,-44,-19,17
663,17288,28,-3372,-4724,23,-44,-19,17
664,17294,24,-3374,-4722,23,-44,-19,17
665,17282,18,-3394,-4723,23,-44,-19,17
666,17286,22,-3378,-4725,23,-44,-19,17
667,17284,24,-3384,-4725,23,-44,-19,17
668,17284,22,-3402,-4724,23,-44,-19,17
669,17282,26,-3392,-4724,23,-44,-19,17
670,17278,22,-3402,-4722,23,-44,-18,17
671,17272,24,-3386,-4724,23,-43,-19,17
672,17274,18,-3394,-4723,23,-44,-19,17
673,17270,18,-3396,-4722,23,-43,-19,17
674,17270,14,-3408,-4723,23,-44,-19,17
675,17262,-6,-3412,-4725,23,-43,-19,17
676,17272,-6,-3428,-4725,23,-43,-19,17
677,17272,-2,-3420,-4725,23,-43,-19,17
678,17278,10,-3412,-4724,23,-44,-19,17
679,17286,14,-3422,-4724,23,-44,-19,17
680,17294,24,-3414,-4723,23,-44,-19,17
681,17284,20,-3414,-4723,23,-44,-19,17
682,17278,16,-3400,-4722,23,-44,-19,17
683,17274,18,-3398,-4722,23,-44,-19,17
684,17274,14,-3402,-4722,23,-44,-19,17
685,17276,20,-3400,-4722,23,-44,-19,17
686,17286,28,-3406,-4723,23,-44,-19,17
687,17296,26,-3412,-4724,23,-44,-19,17
688,17294,28,-3414,-4723,23,-44,-19,17
689,17294,28,-3400,-4723,23,-44,-19,17
690,17292,28,-3392,-4723,23,-43,-19,17
691,17278,22,-3400,-4722,23,-43,-19,17
692,17274,14,-3378,-4721,23,-43,-19,17
693,17272,14,-3380,-4720,23,-43,-19,17
694,17272,14,-3394,-4719,23,-43,-19,17
695,17276,14,-3394,-4718,23,-44,-19,17
696,17278,14,-3392,-4719,23,-44,-19,17
697,17264,12,-3404,-4719,23,-43,-19,17
698,17258,8,-3394,-4718,23,-44,-19,17
699,17258,8,-3398,-4719,23,-44,-19,17
700,17258,2,-3394,-4720,23,-43,-19,17
701,17258,10,-3394,-4719,23,-43,-19,17
702,17264,22,-3390,-4718,23,-44,-19,17
703,17264,22,-3396,-4719,23,-43,-19,17
704,17266,18,-3398,-4718,23,-43,-19,17
705,17274,20,-3414,-4719,23,-43,-19,17
706,17282,18,-3416,-4718,23,-43,-19,17
707,17282,12,-3410,-4719,23,-44,-19,17
708,17288,-2,-3408,-4718,23,-44,-19,17
709,17286,-2,-3402,-4719,23,-44,-19,17
710,17292,12,-3400,-4717,23,-44,-19,17
711,17292,16,-3408,-4716,23,-44,-19,17
712,17288,18,-3400,-4716,23,-44,-19,17
713,17288,8,-3414,-4716,23,-44,-19,17
714,17288,16,-3396,-4718,23,-44,-19,17
715,17282,16,-3400,-4718,23,-44,-19,17
716,17296,4,-3404,-4718,23,-44,-19,18
717,17284,8,-3392,-4717,23,-44,-19,18
718,17276,16,-3392,-4717,23,-44,-19,18
719,17270,24,-3394,-4718,23,-44,-19,17
720,17268,16,-3380,-4718,23,-44,-19,17
721,17264,6,-3364,-4718,23,-43,-19,17
722,17264,4,-3376,-4718,23,-44,-19,17
723,17272,12,-3374,-4719,23,-44,-19,17
724,17272,8,-3382,-4719,23,-44,-19,17
725,17274,6,-3388,-4718,23,-43,-19,17
726,17272,0,-3390,-4719,23,-43,-19,17
727,17260,2,-3392,-4719,23,-43,-19,17
728,17262,6,-3414,-4718,23,-43,-19,17
729,17268,8,-3426,-4716,23,-43,-19,17
730,17272,8,-3424,-4716,23,-44,-19,17
731,17280,0,-3426,-4716,23,-44,-19,17
732,17282,-4,-3412,-4716,23,-44,-19,18
733,17276,-6,-3398,-4716,23,-44,-19,17
734,17266,-4,-3390,-4717,23,-44,-19,17
735,17276,2,-3402,-4717,23,-44,-19,17
736,17280,4,-3400,-4719,23,-44,-19,17
737,17278,16,-3396,-4720,23,-44,-19,17
738,17276,14,-3388,-4718,23,-44,-19,17
739,17260,0,-3408,-4719,23,-44,-19,17
740,17266,4,-3402,-4718,23,-44,-19,17
741,17274,4,-3408,-4718,23,-44,-19,17
742,17280,6,-3402,-4718,23,-44,-19,17
743,17290,2,-3398,-4718,23,-44,-19,17
744,17286,2,-3414,-4718,23,-44,-19,17
745,17286,4,-3412,-4718,23,-44,-19,17
746,17280,0,-3410,-4718,23,-44,-19,17
747,17288,0,-3410,-4718,23,-44,-19,17
748,17286,12,-3426,-4719,23,-43,-19,17
749,17280,12,-3414,-4722,23,-43,-19,17
750,17278,10,-3410,-4721,23,-44,-19,17
751,17280,10,-3396,-4722,23,-43,-19,17
752,17274,8,-3392,-4722,23,-43,-20,17
753,17262,14,-3372,-4724,23,-43,-19,17
754,17262,12,-3378,-4722,23,-43,-19,17
755,17272,26,-3396,-4721,23,-43,-19,17
756,17274,24,-3388,-4721,23,-43,-19,17
757,17282,24,-3386,-4723,23,-43,-19,17
758,17282,22,-3372,-4724,23,-43,-19,17
759,17284,16,-3372,-4722,23,-44,-19,17
760,17286,26,-3384,-4721,23,-44,-19,17
761,17284,22,-3386,-4721,23,-44,-19,17
762,17284,14,-3412,-4721,23,-44,-19,17
763,17280,12,-3396,-4721,23,-44,-19,17
764,17272,12,-3392,-4721,23,-43,-19,17
765,17270,18,-3378,-4723,23,-43,-19,17
766,17268,12,-3374,-4722,23,-43,-19,17
767,17272,6,-3374,-4722,23,-43,-19,17
768,17274,4,-3378,-4720,23,-43,-19,17
769,17280,2,-3382,-4721,23,-43,-19,17
770,17278,-4,-3392,-4721,23,-43,-19,17
771,17290,-6,-3398,-4721,23,-43,-19,17
772,17284,4,-3396,-4722,23,-44,-19,17
773,17284,6,-3372,-4722,23,-44,-19,17
774,17282,8,-3374,-4722,23,-44,-19,17
775,17278,22,-3366,-4721,23,-44,-19,17
776,17274,12,-3382,-4721,23,-44,-19,17
777,17274,14,-3392,-4720,23,-44,-19,17
778,17280,20,-3396,-4719,23,-44,-19,17
779,17272,18,-3404,-4719,23,-44,-19,17
780,17284,18,-3398,-4720,23,-44,-19,17
781,17278,24,-3408,-4719,23,-44,-19,17
782,17272,22,-3396,-4718,23,-44,-19,17
783,17270,10,-3390,-4719,23,-43,-19,17
784,17276,16,-3384,-4718,23,-44,-19,17
785,17276,10,-3394,-4716,23,-44,-19,17
786,17272,12,-3384,-4715,23,-43,-19,17
787,17276,10,-3382,-4716,23,-43,-19,17
788,17276,18,-3382,-4715,23,-43,-19,17
789,17270,6,-3384,-4715,23,-43,-19,17
790,17266,14,-3400,-4716,23,-44,-19,17
791,17270,14,-3390,-4718,23,-44,-19,17
792,17268,12,-3402,-4717,23,-44,-19,17
793,17260,14,-3402,-4716,23,-44,-19,17
794,17260,10,-3406,-4717,23,-44,-19,17
795,17262,14,-3402,-4717,23,-44,-19,17
796,17270,4,-3408,-4717,23,-44,-19,17
797,17274,12,-3402,-4717,23,-44,-19,17
798,17278,14,-3400,-4716,23,-44,-18,17
799,17272,18,-3396,-4718,23,-44,-19,17
800,17272,12,-3394,-4717,23,-44,-19,17
801,17274,16,-3376,-4717,23,-44,-19,17
802,17270,16,-3378,-4716,23,-44,-19,17
803,17278,10,-3390,-4716,23,-44,-19,17
804,17280,12,-3392,-4716,23,-44,-19,17
805,17276,12,-3402,-4716,23,-44,-19,17
806,17282,20,-3402,-4715,23,-44,-19,17
807,17274,16,-3404,-4715,23,-44,-19,17
808,17274,16,-3404,-4716,23,-44,-19,17
809,17272,14,-3408,-4716,23,-44,-19,17
810,17270,6,-3410,-4717,23,-44,-19,17
811,17274,0,-3410,-4719,23,-44,-19,17
812,17270,2,-3404,-4717,23,-44,-19,17
813,17276,6,-3400,-4716,23,-44,-19,17
814,17286,8,-3396,-4716,23,-43,-19,17
815,17284,4,-3398,-4716,23,-44,-19,17
816,17292,2,-3390,-4716,23,-44,-19,17
817,17286,6,-3390,-4717,23,-44,-19,17
818,17280,-6,-3396,-4717,23,-44,-19,17
819,17276,2,-3402,-4716,23,-44,-19,17
820,17274,2,-3394,-4716,23,-44,-19,17
821,17272,2,-3396,-4716,23,-44,-19,17
822,17272,0,-3394,-4716,23,-44,-19,17
823,17268,-2,-3398,-4715,23,-44,-19,17
824,17274,4,-3388,-4717,23,-44,-19,17
825,17276,8,-3388,-4718,23,-44,-19,17
826,17270,10,-3392,-4718,23,-43,-19,17
827,17262,12,-3388,-4717,23,-44,-19,17
828,17260,10,-3384,-4717,23,-44,-19,17
829,17258,12,-3390,-4718,23,-44,-19,17
830,17262,18,-3398,-4718,23,-44,-20,16
831,17254,22,-3400,-4718,23,-44,-20,17
832,17254,18,-3408,-4717,23,-44,-20,17
833,17262,10,-3408,-4717,23,-44,-19,17
834,17252,8,-3392,-4718,23,-44,-19,17
835,17262,10,-3402,-4719,23,-44,-19,17
836,17264,4,-3398,-4719,23,-44,-19,17
837,17268,4,-3402,-4719,23,-44,-19,17
838,17268,12,-3408,-4720,23,-44,-19,17
839,17266,20,-3400,-4719,23,-44,-19,17
840,17276,6,-3402,-4719,23,-44,-19,17
841,17280,10,-3416,-4719,23,-44,-19,17
842,17284,14,-3412,-4719,23,-44,-19,17
843,17284,14,-3410,-4715,23,-44,-19,17
844,17280,2,-3408,-4715,23,-44,-19,17
845,17282,10,-3408,-4714,23,-44,-20,17
846,17272,8,-3402,-4715,23,-44,-20,17
847,17276,6,-3392,-4716,23,-44,-19,17
848,17274,4,-3372,-4715,23,-43,-20,17
849,17272,12,-3370,-4714,23,-43,-19,17
850,17274,10,-3384,-4716,23,-43,-19,17
851,17284,12,-3386,-4715,23,-43,-19,17
852,17278,14,-3384,-4715,23,-43,-19,17
853,17270,8,-3374,-4714,23,-44,-19,17
854,17270,6,-3392,-4715,23,-44,-19,17
855,17276,12,-3394,-4715,23,-44,-19,17
856,17278,12,-3402,-4716,23,-44,-19,17
857,17272,-4,-3420,-4715,23,-44,-20,17
858,17272,-4,-3420,-4716,23,-44,-20,17
859,17268,4,-3410,-4715,23,-44,-20,17
860,17272,10,-3390,-4716,23,-43,-20,17
861,17288,14,-3400,-4716,23,-43,-19,17
862,17282,14,-3402,-4715,23,-43,-19,17
863,17280,16,-3392,-4715,23,-44,-19,17
864,17292,18,-3388,-4713,23,-44,-19,17
865,17276,14,-3374,-4715,23,-44,-19,17
866,17280,4,-3374,-4716,23,-44,-19,17
867,17278,0,-3384,-4714,23,-44,-19,17
868,17280,-6,-3390,-4713,23,-44,-19,17
869,17278,-4,-3394,-4712,23,-44,-19,17
870,17278,0,-3382,-4712,23,-44,-19,17
871,17270,8,-3384,-4713,23,-43,-19,17
872,17272,8,-3392,-4713,23,-43,-19,16
873,17282,18,-3398,-4711,23,-44,-19,16
874,17278,16,-3388,-4714,23,-43,-19,16
875,17264,12,-3388,-4714,23,-44,-19,16
876,17272,6,-3384,-4715,23,-44,-19,17
877,17276,0,-3372,-4715,23,-44,-19,17
878,17278,0,-3374,-4716,23,-44,-19,17
879,17274,6,-3386,-4714,23,-43,-20,17
880,17266,2,-3388,-4713,23,-43,-20,17
881,17272,0,-3400,-4712,23,-43,-20,17
882,17272,8,-3404,-4712,23,-44,-19,17
883,17270,10,-3392,-4712,23,-44,-19,17
884,17270,14,-3390,-4711,23,-44,-19,17
885,17270,10,-3378,-4711,23,-44,-19,17
886,17274,6,-3386,-4712,23,-44,-19,17
887,17274,18,-3392,-4712,23,-43,-19,17
888,17276,4,-3396,-4713,23,-43,-19,17
889,17284,14,-3402,-4713,23,-43,-19,17
890,17276,16,-3402,-4713,23,-44,-19,17
891,17286,16,-3414,-4712,23,-44,-19,17
892,17288,12,-3412,-4713,23,-43,-19,17
893,17292,4,-3398,-4713,23,-43,-19,17
894,17288,0,-3400,-4713,23,-44,-19,17
895,17292,6,-3406,-4715,23,-44,-19,17
896,17292,8,-3406,-4715,23,-44,-19,17
897,17280,16,-3418,-4715,23,-44,-19,17
898,17266,14,-3408,-4717,23,-44,-19,17
899,17264,12,-3400,-4717,23,-44,-19,17
900,17268,8,-3412,-4717,23,-44,-19,17
901,17260,20,-3410,-4717,23,-44,-19,17
902,17264,16,-3408,-4715,23,-44,-19,17
903,17270,14,-3394,-4716,23,-44,-19,17
904,17270,12,-3382,-4715,23,-44,-19,17
905,17274,18,-3382,-4715,23,-43,-19,17
906,17280,10,-3370,-4715,23,-43,-19,17
907,17258,8,-3392,-4714,23,-43,-19,17
908,17268,12,-3396,-4714,23,-44,-19,17
909,17268,14,-3402,-4713,23,-44,-19,17
910,17266,14,-3402,-4712,23,-44,-19,17
911,17264,18,-3388,-4714,23,-44,-19,17
912,17256,14,-3386,-4713,23,-44,-19,17
913,17250,20,-3400,-4713,23,-44,-19,17
914,17254,20,-3402,-4712,23,-44,-19,17
915,17246,22,-3406,-4711,23,-44,-19,17
916,17264,24,-3404,-4712,23,-44,-19,17
917,17270,20,-3382,-4714,23,-44,-19,17
918,17266,14,-3398,-4713,23,-44,-19,17
919,17262,8,-3406,-4712,23,-44,-18,17
920,17264,12,-3396,-4715,23,-44,-18,17
921,17264,18,-3406,-4715,23,-44,-19,17
922,17260,12,-3416,-4715,23,-44,-19,17
923,17254,-4,-3408,-4714,23,-44,-19,17
924,17266,-8,-3398,-4715,23,-44,-19,17
925,17272,-6,-3394,-4715,23,-44,-19,17
926,17268,4,-3400,-4716,23,-44,-19,17
927,17272,-8,-3412,-4718,23,-44,-19,17
928,17274,0,-3414,-4717,23,-44,-19,17
929,17268,-6,-3414,-4716,23,-44,-19,17
930,17272,-8,-3408,-4714,23,-44,-19,17
931,17278,2,-3416,-4715,23,-44,-19,17
932,17278,12,-3412,-4713,23,-44,-19,17
933,17266,4,-3406,-4711,23,-44,-19,17
934,17270,14,-3430,-4711,23,-44,-19,17
935,17276,14,-3420,-4711,23,-43,-19,17
936,17284,6,-3406,-4713,23,-43,-18,17
937,17278,10,-3406,-4714,23,-43,-18,17
938,17274,6,-3412,-4714,23,-43,-19,17
939,17274,12,-3404,-4713,23,-43,-19,17
940,17266,14,-3402,-4713,23,-44,-19,17
941,17268,4,-3414,-4713,23,-44,-20,17
942,17264,6,-3422,-4713,23,-44,-20,17
943,17248,0,-3420,-4714,23,-44,-20,17
944,17250,10,-3414,-4711,23,-44,-19,17
945,17256,14,-3404,-4712,23,-44,-19,17
946,17262,8,-3390,-4713,23,-44,-19,17
947,17258,-6,-3396,-4712,23,-44,-19,17
948,17264,0,-3394,-4712,23,-44,-19,17
949,17268,10,-3392,-4711,23,-44,-19,17
950,17276,8,-3418,-4711,23,-44,-19,17
951,17272,-2,-3416,-4711,23,-44,-19,17
952,17272,8,-3402,-4711,23,-44,-19,17
953,17270,10,-3392,-4711,23,-44,-19,17
954,17268,20,-3392,-4712,23,-44,-19,17
955,17274,20,-3400,-4712,23,-44,-19,17
956,17276,16,-3398,-4713,23,-44,-19,17
957,17278,12,-3386,-4712,23,-44,-19,17
958,17278,8,-3384,-4711,23,-44,-19,17
959,17280,10,-3390,-4712,23,-44,-19,17
960,17278,14,-3398,-4713,23,-44,-19,17
961,17272,22,-3396,-4712,23,-44,-19,17
962,17264,14,-3388,-4711,23,-43,-19,17
963,17282,10,-3388,-4711,23,-44,-19,17
964,17276,8,-3384,-4711,23,-43,-19,17
965,17276,8,-3390,-4710,23,-43,-19,17
966,17282,12,-3382,-4709,23,-43,-19,17
967,17288,8,-3374,-4709,23,-43,-19,17
968,17276,10,-3388,-4708,23,-44,-19,17
969,17274,6,-3392,-4707,23,-44,-19,17
970,17266,4,-3394,-4706,23,-43,-19,17
971,17260,0,-3398,-4709,23,-44,-19,17
972,17270,-4,-3412,-4709,23,-44,-19,17
973,17282,-2,-3398,-4710,23,-44,-19,17
974,17274,0,-3390,-4709,23,-44,-19,17
975,17272,4,-3386,-4710,23,-44,-19,17
976,17276,12,-3388,-4711,23,-44,-20,17
977,17274,10,-3388,-4709,23,-43,-20,17
978,17272,6,-3384,-4710,23,-43,-19,17
979,17266,4,-3378,-4712,23,-43,-19,17
980,17266,8,-3378,-4710,23,-43,-19,17
981,17268,14,-3386,-4711,23,-43,-19,17
982,17272,22,-3394,-4709,23,-43,-19,17
983,17266,34,-3398,-4710,23,-44,-19,17
984,17276,28,-3390,-4710,23,-43,-19,17
985,17276,20,-3404,-4710,23,-43,-20,17
986,17282,10,-3408,-4708,23,-44,-19,17
987,17280,2,-3406,-4707,23,-44,-19,17
988,17272,-4,-3412,-4708,23,-44,-19,17
989,17274,-6,-3412,-4709,23,-43,-19,17
990,17272,-10,-3414,-4709,23,-44,-19,17
991,17276,-10,-3414,-4708,23,-43,-19,17
992,17278,-2,-3408,-4707,23,-43,-19,17
993,17278,2,-3404,-4707,23,-44,-19,17
994,17268,12,-3420,-4709,23,-44,-19,17
995,17262,10,-3414,-4708,23,-44,-19,17
