,acc_X,acc_Y,acc_Z,temp,tempC,gyr_X,gyr_Y,gyr_Z
0,2159,2,-428,-4708,23,-87,-38,34
1,2159,2,-427,-4709,23,-87,-38,35
2,2159,1,-428,-4709,23,-86,-39,35
3,2160,1,-428,-4708,23,-87,-39,34
4,2159,1,-426,-4706,23,-87,-39,35
5,2160,1,-426,-4706,23,-86,-39,35
6,2161,1,-427,-4705,23,-87,-38,35
7,2160,2,-425,-4706,23,-86,-38,35
8,2160,2,-425,-4707,23,-86,-38,35
9,2159,3,-426,-4706,23,-87,-38,35
10,2159,3,-426,-4705,23,-87,-38,35
11,2159,4,-427,-4707,23,-87,-39,35
12,2159,4,-427,-4708,23,-86,-39,35
13,2158,2,-429,-4707,23,-87,-38,35
14,2159,2,-430,-4706,23,-87,-39,35
15,2159,2,-428,-4705,23,-87,-38,35
16,2159,2,-430,-4706,23,-88,-38,35
17,2159,1,-430,-4707,23,-87,-38,35
18,2157,1,-429,-4708,23,-87,-39,35
19,2158,1,-428,-4710,23,-87,-38,35
20,2158,2,-427,-4709,23,-88,-38,35
21,2159,3,-426,-4709,23,-88,-38,35
22,2159,2,-427,-4707,23,-87,-39,36
23,2159,2,-428,-4708,23,-87,-38,36
24,2159,2,-429,-4706,23,-87,-38,36
25,2158,1,-429,-4707,23,-88,-39,35
26,2158,1,-429,-4707,23,-87,-38,35
27,2159,1,-430,-4705,23,-87,-39,35
28,2160,2,-430,-4704,23,-87,-38,35
29,2160,2,-430,-4705,23,-87,-38,35
30,2160,1,-432,-4706,23,-87,-39,34
31,2159,1,-431,-4706,23,-87,-39,34
32,2159,0,-430,-4706,23,-87,-38,34
33,2158,0,-428,-4707,23,-87,-38,34
34,2159,1,-428,-4705,23,-87,-38,34
35,2159,2,-427,-4704,23,-87,-38,35
36,2159,2,-428,-4703,23,-86,-39,35
37,2159,2,-427,-4703,23,-87,-38,34
38,2159,2,-425,-4703,23,-87,-38,35
39,2158,2,-425,-4703,23,-87,-37,35
40,2158,3,-427,-4705,23,-87,-37,35
41,2158,2,-428,-4707,23,-86,-37,35
42,2158,2,-427,-4707,23,-87,-37,35
43,2157,1,-429,-4709,23,-87,-37,35
44,2157,1,-429,-4707,23,-87,-38,35
45,2158,0,-427,-4707,23,-87,-38,34
46,2158,0,-427,-4708,23,-87,-38,35
47,2158,0,-428,-4707,23,-87,-38,34
48,2157,-1,-430,-4707,23,-87,-38,34
49,2158,0,-430,-4705,23,-87,-39,34
50,2158,1,-429,-4705,23,-87,-39,34
51,2158,0,-428,-4703,23,-87,-38,34
52,2159,-1,-429,-4702,23,-87,-38,34
53,2158,-1,-430,-4704,23,-88,-39,34
54,2158,0,-430,-4704,23,-87,-39,35
55,2159,1,-432,-4704,23,-87,-39,35
56,2159,-1,-431,-4704,23,-87,-39,35
57,2158,0,-432,-4705,23,-87,-39,34
58,2159,1,-432,-4705,23,-87,-39,35
59,2159,1,-430,-4706,23,-86,-39,35
60,2158,1,-428,-4706,23,-86,-39,35
61,2158,1,-427,-4705,23,-87,-38,35
62,2159,1,-427,-4706,23,-87,-38,35
63,2158,0,-426,-4706,23,-87,-39,35
64,2159,0,-426,-4705,23,-87,-39,35
65,2158,0,-427,-4708,23,-87,-38,35
66,2158,0,-427,-4707,23,-88,-38,35
67,2158,0,-428,-4707,23,-88,-38,34
68,2159,-1,-428,-4706,23,-87,-38,34
69,2159,0,-428,-4707,23,-88,-37,34
70,2157,0,-430,-4706,23,-87,-38,34
71,2157,0,-429,-4704,23,-87,-38,34
72,2157,1,-428,-4704,23,-87,-38,34
73,2158,0,-430,-4704,23,-87,-38,34
74,2158,1,-430,-4704,23,-87,-38,34
75,2159,2,-431,-4704,23,-87,-38,34
76,2159,1,-430,-4702,23,-87,-38,34
77,2160,2,-430,-4701,23,-87,-38,34
78,2159,2,-430,-4702,23,-87,-38,34
79,2159,1,-429,-4702,23,-87,-38,34
80,2158,1,-430,-4701,23,-87,-38,34
81,2159,1,-431,-4701,23,-87,-38,34
82,2159,2,-428,-4701,23,-86,-38,34
83,2159,3,-429,-4702,23,-87,-38,34
84,2158,3,-428,-4701,23,-87,-38,35
85,2158,4,-428,-4701,23,-88,-37,34
86,2158,3,-427,-4704,23,-88,-37,34
87,2159,3,-428,-4705,23,-87,-37,34
88,2159,3,-430,-4705,23,-87,-38,33
89,2160,3,-429,-4706,23,-87,-38,34
90,2159,3,-430,-4706,23,-87,-38,34
91,2159,3,-428,-4706,23,-87,-39,34
92,2159,3,-429,-4704,23,-87,-39,34
93,2160,3,-428,-4704,23,-87,-39,35
94,2159,2,-429,-4703,23,-87,-39,34
95,2159,1,-430,-4704,23,-87,-39,34
96,2159,3,-429,-4702,23,-86,-39,34
97,2159,4,-431,-4701,23,-87,-39,34
98,2159,4,-429,-4703,23,-87,-40,34
99,2159,3,-426,-4702,23,-87,-40,35
100,2159,2,-426,-4702,23,-87,-39,35
101,2158,2,-426,-4702,23,-87,-39,35
102,2158,3,-429,-4701,23,-87,-39,35
103,2158,3,-429,-4700,23,-87,-39,35
104,2158,3,-429,-4700,23,-87,-39,35
105,2158,3,-428,-4700,23,-87,-39,35
106,2158,2,-428,-4699,23,-87,-39,35
107,2158,1,-428,-4700,23,-87,-39,35
108,2158,1,-429,-4700,23,-87,-38,35
109,2158,2,-429,-4700,23,-87,-38,35
110,2158,2,-429,-4700,23,-87,-38,35
111,2159,2,-429,-4702,23,-87,-37,35
112,2158,2,-429,-4702,23,-86,-38,35
113,2159,1,-429,-4701,23,-86,-37,34
114,2160,0,-428,-4700,23,-87,-37,34
115,2159,-1,-428,-4701,23,-87,-37,34
116,2159,1,-429,-4701,23,-87,-38,33
117,2158,2,-428,-4702,23,-87,-37,34
118,2159,2,-428,-4702,23,-87,-38,34
119,2159,2,-429,-4702,23,-87,-38,34
120,2160,1,-430,-4703,23,-87,-38,34
121,2160,1,-431,-4703,23,-86,-38,34
122,2161,1,-430,-4702,23,-86,-38,34
123,2159,3,-427,-4701,23,-86,-38,35
124,2159,2,-428,-4703,23,-86,-38,35
125,2158,1,-426,-4703,23,-86,-38,35
126,2157,1,-424,-4705,23,-86,-38,34
127,2156,3,-425,-4703,23,-86,-38,35
128,2157,4,-428,-4703,23,-87,-38,35
129,2157,3,-428,-4701,23,-87,-38,34
130,2157,3,-427,-4703,23,-87,-38,34
131,2157,3,-428,-4702,23,-87,-38,34
132,2157,3,-427,-4702,23,-87,-39,35
133,2158,2,-426,-4702,23,-87,-39,35
134,2158,2,-425,-4700,23,-87,-38,35
135,2158,2,-427,-4699,23,-87,-38,35
136,2158,1,-428,-4699,23,-88,-37,35
137,2156,2,-429,-4700,23,-87,-38,35
138,2155,2,-429,-4699,23,-87,-38,35
139,2155,2,-429,-4700,23,-86,-38,35
140,2157,1,-428,-4701,23,-86,-38,35
141,2157,2,-428,-4702,23,-86,-38,35
142,2157,2,-428,-4702,23,-86,-38,34
143,2158,2,-430,-4700,23,-86,-38,34
144,2158,2,-430,-4701,23,-86,-38,34
145,2158,2,-429,-4700,23,-86,-38,34
146,2158,3,-428,-4701,23,-86,-37,34
147,2160,3,-430,-4701,23,-87,-37,34
148,2160,2,-430,-4701,23,-87,-37,34
149,2159,1,-430,-4702,23,-86,-37,34
150,2159,2,-429,-4701,23,-86,-37,35
151,2159,1,-429,-4701,23,-86,-37,35
152,2159,1,-430,-4699,23,-87,-37,35
153,2159,1,-429,-4698,23,-87,-38,34
154,2160,2,-425,-4698,23,-87,-38,34
155,2159,1,-424,-4701,23,-87,-38,34
156,2159,0,-425,-4702,23,-86,-37,34
157,2160,1,-425,-4701,23,-87,-37,34
158,2160,1,-425,-4700,23,-86,-37,34
159,2160,1,-426,-4701,23,-87,-37,34
160,2160,1,-426,-4701,23,-86,-38,34
161,2160,1,-426,-4702,23,-87,-38,34
162,2159,1,-429,-4702,23,-87,-38,34
163,2160,1,-430,-4701,23,-87,-39,34
164,2159,1,-427,-4701,23,-87,-39,34
165,2160,2,-426,-4702,23,-87,-38,34
166,2159,2,-425,-4701,23,-87,-39,34
167,2159,1,-425,-4701,23,-87,-38,34
168,2160,2,-426,-4702,23,-88,-39,34
169,2160,2,-426,-4701,23,-88,-39,34
170,2159,2,-426,-4700,23,-87,-39,34
171,2159,2,-426,-4700,23,-86,-38,34
172,2159,1,-426,-4702,23,-86,-39,34
173,2159,2,-427,-4702,23,-86,-38,34
174,2159,2,-426,-4704,23,-87,-39,34
175,2157,2,-428,-4703,23,-87,-39,34
176,2157,3,-430,-4702,23,-86,-38,34
177,2157,2,-429,-4703,23,-86,-39,34
178,2157,3,-428,-4704,23,-86,-38,34
179,2158,2,-427,-4703,23,-86,-38,34
180,2157,2,-426,-4701,23,-86,-38,34
181,2159,4,-425,-4702,23,-86,-39,34
182,2158,3,-426,-4702,23,-86,-38,34
183,2158,2,-425,-4702,23,-87,-39,35
184,2159,2,-424,-4701,23,-87,-39,35
185,2159,1,-425,-4701,23,-86,-39,35
186,2159,1,-426,-4700,23,-87,-39,35
187,2158,1,-426,-4700,23,-87,-40,35
188,2159,3,-425,-4701,23,-87,-40,35
189,2159,1,-425,-4699,23,-87,-39,34
190,2158,0,-425,-4700,23,-86,-38,35
191,2158,1,-426,-4700,23,-87,-38,35
192,2158,0,-428,-4700,23,-87,-38,35
193,2159,0,-426,-4700,23,-86,-38,35
194,2159,0,-427,-4701,23,-86,-38,35
195,2158,0,-428,-4701,23,-86,-38,35
196,2159,-1,-426,-4701,23,-87,-38,35
197,2158,0,-426,-4702,23,-86,-38,35
198,2159,0,-425,-4701,23,-87,-38,34
199,2158,1,-426,-4702,23,-87,-38,34
200,2159,1,-426,-4702,23,-87,-38,34
201,2158,0,-427,-4702,23,-87,-38,34
202,2156,0,-428,-4702,23,-87,-38,33
203,2158,0,-428,-4702,23,-87,-38,34
204,2160,1,-430,-4702,23,-87,-39,34
205,2160,1,-428,-4703,23,-87,-38,34
206,2159,3,-428,-4703,23,-87,-38,34
207,2158,2,-427,-4702,23,-87,-38,35
208,2158,2,-425,-4701,23,-87,-38,34
209,2159,0,-425,-4702,23,-87,-38,35
210,2160,0,-427,-4700,23,-86,-38,34
211,2159,1,-427,-4702,23,-86,-38,34
212,2160,0,-427,-4701,23,-87,-37,34
213,2159,1,-428,-4702,23,-87,-38,35
214,2158,1,-428,-4702,23,-86,-38,35
215,2159,2,-427,-4701,23,-87,-37,35
216,2158,2,-428,-4700,23,-86,-38,34
217,2160,3,-428,-4700,23,-86,-38,35
218,2159,3,-429,-4699,23,-86,-39,35
219,2157,4,-429,-4700,23,-87,-39,35
220,2158,2,-430,-4699,23,-87,-39,34
221,2158,2,-431,-4699,23,-86,-39,34
222,2158,2,-431,-4700,23,-86,-39,33
223,2160,2,-430,-4700,23,-86,-39,34
224,2160,1,-431,-4698,23,-87,-38,33
225,2159,1,-429,-4699,23,-87,-38,34
226,2159,1,-429,-4698,23,-87,-38,34
227,2158,1,-429,-4699,23,-87,-38,34
228,2159,1,-431,-4700,23,-87,-38,34
229,2159,2,-432,-4699,23,-87,-39,35
230,2159,2,-432,-4700,23,-87,-39,35
231,2158,2,-431,-4701,23,-87,-39,35
232,2158,2,-432,-4698,23,-87,-39,34
233,2159,3,-431,-4700,23,-87,-39,34
234,2158,3,-430,-4699,23,-87,-39,34
235,2160,4,-431,-4698,23,-86,-39,35
236,2159,4,-430,-4697,23,-86,-38,35
237,2159,2,-431,-4698,23,-86,-38,35
238,2157,3,-430,-4697,23,-87,-39,35
239,2157,5,-429,-4697,23,-87,-39,35
240,2156,4,-429,-4697,23,-86,-38,35
241,2157,3,-428,-4697,23,-86,-38,35
242,2158,3,-426,-4697,23,-86,-38,35
243,2160,1,-428,-4698,23,-87,-38,35
244,2159,1,-429,-4699,23,-86,-38,34
245,2160,1,-430,-4700,23,-86,-38,34
246,2159,1,-427,-4699,23,-86,-38,35
247,2159,2,-427,-4699,23,-86,-38,35
248,2160,2,-429,-4699,23,-87,-39,35
249,2160,2,-429,-4699,23,-87,-38,35
250,2161,2,-429,-4699,23,-86,-39,35
251,2161,2,-429,-4700,23,-86,-39,35
252,2161,2,-428,-4700,23,-87,-39,35
253,2160,1,-427,-4699,23,-87,-39,35
254,2159,2,-428,-4699,23,-87,-39,35
255,2159,1,-428,-4699,23,-87,-39,34
256,2158,1,-428,-4699,23,-87,-39,34
257,2158,0,-428,-4699,23,-87,-38,34
258,2160,0,-427,-4697,23,-87,-38,34
259,2160,0,-427,-4699,23,-87,-38,35
260,2160,1,-428,-4699,23,-87,-38,35
261,2159,0,-428,-4699,23,-86,-38,34
262,2158,0,-428,-4700,23,-86,-38,34
263,2160,2,-428,-4700,23,-86,-39,35
264,2160,3,-428,-4700,23,-86,-39,34
265,2158,2,-426,-4700,23,-86,-40,34
266,2158,3,-426,-4701,23,-87,-39,34
267,2158,3,-428,-4701,23,-86,-39,34
268,2157,3,-427,-4703,23,-86,-39,35
269,2157,2,-428,-4702,23,-86,-38,35
270,2158,2,-427,-4701,23,-86,-38,35
271,2159,1,-428,-4700,23,-86,-38,35
272,2159,2,-427,-4701,23,-87,-38,35
273,2158,1,-428,-4700,23,-87,-38,35
274,2158,1,-429,-4699,23,-87,-38,36
275,2158,2,-430,-4699,23,-87,-38,35
276,2159,2,-431,-4700,23,-87,-38,35
277,2159,2,-430,-4700,23,-86,-37,35
278,2160,2,-430,-4700,23,-87,-38,35
279,2159,1,-430,-4702,23,-87,-37,35
280,2159,2,-430,-4701,23,-87,-37,34
281,2161,2,-429,-4701,23,-87,-37,35
282,2161,2,-430,-4702,23,-87,-37,35
283,2161,1,-430,-4702,23,-87,-38,35
284,2159,2,-431,-4704,23,-88,-38,35
285,2159,2,-430,-4704,23,-88,-38,35
286,2159,3,-430,-4705,23,-88,-38,35
287,2160,2,-427,-4703,23,-88,-38,35
288,2160,1,-425,-4703,23,-87,-38,34
289,2161,0,-425,-4702,23,-87,-37,34
290,2161,1,-426,-4704,23,-87,-37,34
291,2160,2,-427,-4703,23,-87,-37,35
292,2160,1,-429,-4703,23,-87,-38,34
293,2161,0,-428,-4702,23,-87,-38,35
294,2159,0,-428,-4702,23,-87,-38,35
295,2158,1,-428,-4703,23,-87,-39,35
296,2158,1,-429,-4702,23,-87,-39,34
297,2159,1,-430,-4701,23,-87,-39,35
298,2159,2,-430,-4699,23,-87,-39,34
299,2160,2,-431,-4700,23,-87,-39,34
300,2159,2,-431,-4700,23,-87,-38,34
301,2158,1,-431,-4700,23,-87,-38,34
302,2159,2,-431,-4700,23,-87,-38,34
303,2159,3,-429,-4701,23,-87,-38,35
304,2158,3,-428,-4701,23,-87,-37,35
305,2157,3,-428,-4702,23,-87,-37,35
306,2158,3,-428,-4702,23,-88,-38,35
307,2157,3,-428,-4702,23,-88,-38,35
308,2158,2,-426,-4701,23,-87,-38,35
309,2159,3,-426,-4700,23,-87,-38,35
310,2159,3,-425,-4701,23,-87,-38,35
311,2159,1,-425,-4703,23,-87,-38,35
312,2159,0,-426,-4703,23,-87,-38,35
313,2160,0,-427,-4701,23,-86,-37,35
314,2160,0,-428,-4699,23,-86,-37,35
315,2159,-1,-430,-4699,23,-86,-38,35
316,2159,-1,-432,-4701,23,-86,-38,35
317,2159,0,-432,-4702,23,-86,-38,35
318,2160,1,-430,-4702,23,-87,-38,35
319,2160,2,-431,-4701,23,-87,-38,34
320,2160,2,-431,-4701,23,-86,-39,35
321,2161,2,-429,-4702,23,-86,-39,34
322,2160,2,-430,-4700,23,-86,-38,35
323,2160,2,-428,-4699,23,-86,-38,35
324,2161,2,-427,-4699,23,-86,-37,34
325,2160,2,-427,-4700,23,-86,-37,35
326,2160,2,-428,-4700,23,-86,-38,35
327,2159,2,-427,-4701,23,-86,-38,35
328,2160,2,-428,-4699,23,-86,-38,35
329,2160,2,-429,-4698,23,-86,-38,34
330,2160,1,-427,-4698,23,-86,-38,35
331,2160,3,-428,-4699,23,-86,-38,35
332,2160,3,-429,-4699,23,-86,-39,35
333,2160,2,-429,-4698,23,-86,-38,35
334,2159,2,-429,-4698,23,-87,-39,35
335,2159,2,-428,-4699,23,-87,-38,35
336,2157,0,-428,-4699,23,-87,-38,34
337,2157,0,-427,-4699,23,-86,-39,34
338,2157,0,-426,-4696,23,-86,-39,35
339,2157,1,-427,-4697,23,-86,-39,35
340,2157,1,-427,-4697,23,-86,-39,35
341,2157,1,-428,-4699,23,-86,-39,35
342,2158,2,-428,-4699,23,-86,-39,35
343,2158,1,-427,-4699,23,-86,-39,35
344,2159,1,-425,-4701,23,-86,-38,34
345,2159,1,-427,-4702,23,-85,-38,35
346,2159,2,-429,-4703,23,-86,-39,35
347,2160,3,-428,-4702,23,-87,-38,36
348,2159,3,-427,-4701,23,-86,-38,36
349,2160,3,-426,-4701,23,-87,-38,35
350,2160,3,-426,-4701,23,-86,-38,35
351,2160,2,-428,-4702,23,-86,-38,35
352,2160,3,-430,-4702,23,-87,-38,35
353,2159,3,-429,-4700,23,-87,-39,35
354,2159,1,-430,-4701,23,-88,-38,35
355,2159,2,-430,-4701,23,-87,-38,35
356,2159,2,-430,-4701,23,-88,-38,35
357,2159,2,-430,-4702,23,-88,-38,35
358,2158,2,-430,-4702,23,-87,-38,35
359,2158,2,-430,-4703,23,-88,-39,35
360,2159,3,-430,-4700,23,-88,-40,35
361,2159,2,-432,-4700,23,-88,-39,35
362,2159,1,-433,-4702,23,-88,-39,35
363,2159,2,-432,-4701,23,-87,-39,34
364,2159,1,-432,-4700,23,-88,-39,34
365,2159,1,-431,-4699,23,-87,-39,34
366,2159,3,-430,-4700,23,-88,-39,34
367,2159,2,-431,-4700,23,-88,-39,34
368,2160,2,-431,-4699,23,-87,-38,35
369,2158,3,-429,-4698,23,-87,-38,35
370,2159,3,-430,-4699,23,-87,-38,35
371,2159,3,-431,-4700,23,-87,-38,34
372,2160,3,-430,-4699,23,-87,-38,34
373,2160,3,-429,-4700,23,-87,-38,34
374,2161,2,-428,-4699,23,-87,-38,34
375,2162,2,-428,-4700,23,-87,-38,34
376,2162,2,-428,-4701,23,-86,-38,34
377,2161,2,-427,-4700,23,-86,-37,35
378,2161,1,-428,-4699,23,-87,-38,35
379,2160,1,-429,-4699,23,-87,-37,34
380,2159,1,-431,-4698,23,-87,-38,34
381,2159,-1,-429,-4697,23,-87,-38,35
382,2159,-1,-427,-4696,23,-87,-39,35
383,2161,-1,-426,-4697,23,-87,-38,35
384,2161,0,-425,-4699,23,-87,-38,35
385,2161,0,-427,-4699,23,-87,-39,35
386,2161,1,-429,-4701,23,-87,-38,34
387,2161,0,-429,-4701,23,-86,-38,34
388,2161,0,-428,-4702,23,-86,-38,35
389,2160,1,-429,-4700,23,-86,-38,35
390,2159,3,-429,-4700,23,-86,-38,35
391,2159,3,-428,-4699,23,-86,-38,34
392,2159,3,-429,-4700,23,-86,-38,34
393,2159,2,-429,-4701,23,-86,-38,35
394,2159,3,-429,-4703,23,-87,-38,34
395,2158,2,-430,-4702,23,-86,-38,34
396,2158,1,-429,-4703,23,-86,-38,34
397,2158,2,-429,-4703,23,-87,-38,34
398,2157,2,-430,-4702,23,-86,-38,35
399,2157,1,-429,-4700,23,-86,-38,35
400,2157,1,-428,-4699,23,-87,-39,35
401,2158,2,-429,-4700,23,-87,-39,35
402,2159,2,-429,-4699,23,-87,-39,34
403,2159,1,-429,-4700,23,-87,-39,34
404,2159,1,-428,-4699,23,-87,-39,34
405,2159,2,-428,-4700,23,-87,-39,34
406,2159,2,-427,-4700,23,-87,-39,34
407,2159,3,-427,-4701,23,-87,-39,34
408,2159,1,-427,-4700,23,-87,-39,34
409,2159,1,-428,-4699,23,-88,-38,34
410,2159,1,-429,-4699,23,-87,-37,34
411,2159,1,-429,-4701,23,-87,-38,34
412,2159,1,-428,-4700,23,-87,-38,33
413,2159,0,-427,-4699,23,-87,-38,34
414,2159,0,-427,-4698,23,-87,-38,34
415,2159,2,-429,-4700,23,-87,-39,34
416,2158,1,-428,-4702,23,-87,-39,34
417,2159,2,-428,-4700,23,-86,-39,34
418,2158,2,-428,-4700,23,-87,-38,34
419,2158,3,-430,-4700,23,-87,-38,33
420,2159,2,-430,-4700,23,-87,-38,34
421,2159,3,-427,-4700,23,-87,-38,34
422,2160,2,-427,-4700,23,-87,-39,34
423,2159,1,-428,-4702,23,-86,-39,35
424,2159,1,-427,-4702,23,-87,-39,35
425,2159,1,-427,-4701,23,-86,-39,35
426,2158,1,-428,-4700,23,-87,-38,35
427,2158,2,-428,-4698,23,-87,-39,35
428,2158,3,-429,-4699,23,-87,-38,35
429,2158,3,-430,-4699,23,-87,-38,35
430,2159,3,-429,-4699,23,-87,-38,35
431,2160,3,-431,-4697,23,-87,-39,35
432,2160,1,-430,-4698,23,-86,-39,35
433,2159,1,-429,-4698,23,-86,-39,35
434,2159,0,-430,-4698,23,-86,-39,35
435,2160,0,-429,-4699,23,-86,-38,35
436,2159,0,-429,-4701,23,-86,-38,35
437,2159,1,-426,-4700,23,-87,-37,35
438,2159,0,-425,-4698,23,-87,-38,35
439,2158,0,-427,-4699,23,-87,-38,35
440,2158,1,-428,-4699,23,-87,-39,35
441,2158,1,-428,-4700,23,-87,-38,35
442,2159,2,-429,-4700,23,-87,-38,35
443,2158,3,-429,-4700,23,-87,-39,35
444,2158,2,-428,-4701,23,-87,-38,35
445,2157,1,-429,-4703,23,-87,-38,35
446,2157,1,-429,-4703,23,-87,-38,35
447,2157,2,-430,-4702,23,-86,-39,35
448,2159,3,-429,-4701,23,-86,-38,35
449,2160,4,-430,-4699,23,-86,-38,34
450,2160,3,-430,-4698,23,-86,-38,35
451,2160,4,-431,-4700,23,-87,-38,35
452,2160,1,-432,-4700,23,-87,-39,35
453,2160,0,-431,-4698,23,-86,-39,35
454,2159,0,-431,-4699,23,-87,-38,35
455,2160,1,-431,-4700,23,-86,-38,34
456,2160,0,-432,-4700,23,-87,-39,34
457,2158,0,-431,-4701,23,-87,-38,35
458,2158,0,-430,-4699,23,-87,-38,35
459,2158,0,-431,-4698,23,-87,-38,35
460,2159,1,-431,-4696,23,-87,-38,35
461,2159,1,-432,-4696,23,-87,-38,35
462,2159,1,-430,-4696,23,-87,-38,35
463,2159,2,-430,-4697,23,-87,-39,35
464,2158,2,-430,-4696,23,-87,-38,35
465,2159,1,-429,-4695,23,-87,-38,35
466,2159,2,-429,-4697,23,-87,-38,34
467,2159,0,-430,-4698,23,-87,-39,34
468,2158,0,-431,-4698,23,-87,-38,35
469,2159,0,-429,-4699,23,-87,-39,34
470,2159,0,-430,-4699,23,-87,-39,34
471,2159,-1,-428,-4699,23,-87,-38,34
472,2159,0,-427,-4701,23,-87,-39,34
473,2159,2,-427,-4702,23,-87,-38,34
474,2158,2,-427,-4702,23,-86,-38,35
475,2158,1,-425,-4701,23,-86,-38,35
476,2158,2,-425,-4701,23,-87,-38,35
477,2157,2,-425,-4701,23,-87,-37,34
478,2158,3,-425,-4699,23,-87,-37,35
479,2158,4,-424,-4700,23,-86,-38,35
480,2159,3,-426,-4697,23,-86,-39,35
481,2159,2,-426,-4696,23,-86,-38,35
482,2159,2,-426,-4696,23,-86,-38,35
483,2159,1,-426,-4695,23,-87,-38,34
484,2160,1,-426,-4697,23,-87,-38,35
485,2161,1,-425,-4698,23,-86,-38,35
486,2161,1,-427,-4698,23,-85,-38,35
487,2162,1,-426,-4699,23,-87,-38,35
488,2161,2,-427,-4698,23,-87,-38,34
489,2161,1,-427,-4698,23,-87,-38,35
490,2161,1,-429,-4698,23,-87,-38,35
491,2161,2,-428,-4699,23,-87,-39,35
492,2160,1,-426,-4700,23,-88,-39,35
493,2161,2,-428,-4699,23,-87,-40,35
494,2160,3,-427,-4699,23,-87,-39,35
495,2160,4,-427,-4700,23,-87,-39,35
496,2159,4,-429,-4699,23,-87,-39,34
497,2159,3,-429,-4699,23,-86,-38,34
498,2158,3,-428,-4698,23,-87,-39,33
499,2159,3,-430,-4698,23,-86,-39,33
500,2159,3,-430,-4698,23,-87,-38,33
501,2159,3,-429,-4697,23,-87,-39,33
502,2160,1,-429,-4699,23,-87,-38,34
503,2160,1,-428,-4701,23,-86,-38,34
504,2159,1,-428,-4699,23,-87,-38,33
505,2159,2,-429,-4698,23,-87,-38,34
506,2159,1,-429,-4698,23,-87,-39,34
507,2158,1,-427,-4698,23,-87,-39,35
508,2157,1,-426,-4698,23,-87,-39,35
509,2158,2,-426,-4698,23,-87,-39,35
510,2156,1,-426,-4698,23,-87,-38,34
511,2156,0,-426,-4697,23,-87,-38,34
512,2156,0,-426,-4697,23,-87,-38,34
513,2157,0,-427,-4698,23,-87,-38,34
514,2156,1,-426,-4698,23,-87,-39,34
515,2157,2,-428,-4698,23,-88,-38,34
516,2157,1,-428,-4697,23,-87,-39,35
517,2159,2,-429,-4698,23,-87,-39,35
518,2158,1,-429,-4698,23,-86,-39,35
519,2159,3,-429,-4697,23,-86,-39,36
520,2159,3,-428,-4695,23,-86,-38,35
521,2159,3,-429,-4694,23,-86,-38,35
522,2158,3,-428,-4694,23,-87,-38,35
523,2159,4,-428,-4696,23,-86,-38,35
524,2160,3,-427,-4695,23,-86,-38,35
525,2159,2,-428,-4695,23,-86,-38,35
526,2160,1,-430,-4696,23,-86,-39,35
527,2160,1,-432,-4696,23,-87,-38,35
528,2160,0,-431,-4696,23,-87,-38,35
529,2160,0,-431,-4696,23,-87,-39,34
530,2162,0,-431,-4696,23,-86,-38,34
531,2162,1,-429,-4696,23,-87,-38,34
532,2160,0,-430,-4696,23,-86,-38,35
533,2159,1,-430,-4695,23,-87,-38,34
534,2160,1,-429,-4695,23,-87,-39,34
535,2158,1,-430,-4695,23,-87,-38,35
536,2157,0,-430,-4695,23,-87,-38,35
537,2157,1,-431,-4697,23,-87,-38,35
538,2158,0,-430,-4696,23,-87,-37,35
539,2157,0,-431,-4695,23,-87,-38,34
540,2157,0,-431,-4696,23,-87,-38,34
541,2157,0,-429,-4697,23,-88,-39,34
542,2158,0,-430,-4697,23,-87,-39,35
543,2158,0,-431,-4697,23,-87,-39,35
544,2158,0,-431,-4697,23,-87,-39,35
545,2159,2,-429,-4697,23,-87,-39,35
546,2158,3,-430,-4697,23,-87,-38,35
547,2159,3,-432,-4696,23,-87,-38,35
548,2159,2,-432,-4694,23,-87,-38,35
549,2160,3,-433,-4696,23,-86,-38,34
550,2160,3,-431,-4696,23,-86,-38,34
551,2161,2,-430,-4696,23,-86,-38,34
552,2161,1,-432,-4695,23,-86,-38,33
553,2161,1,-431,-4695,23,-86,-38,33
554,2160,2,-429,-4694,23,-86,-39,33
555,2159,1,-427,-4695,23,-86,-39,33
556,2159,1,-430,-4696,23,-86,-39,33
557,2159,1,-429,-4697,23,-86,-39,33
558,2159,1,-428,-4697,23,-86,-39,33
559,2158,0,-430,-4696,23,-86,-39,34
560,2157,0,-432,-4695,23,-86,-39,35
561,2158,1,-431,-4695,23,-86,-38,35
562,2158,1,-431,-4695,23,-86,-38,35
563,2159,1,-429,-4694,23,-86,-39,35
564,2158,0,-429,-4696,23,-86,-39,35
565,2159,0,-430,-4697,23,-86,-39,35
566,2160,0,-429,-4696,23,-86,-38,35
567,2160,1,-428,-4697,23,-86,-39,35
568,2159,1,-428,-4697,23,-86,-39,35
569,2159,1,-427,-4697,23,-86,-39,35
570,2159,1,-428,-4698,23,-86,-39,35
571,2159,0,-429,-4696,23,-86,-39,35
572,2159,1,-429,-4696,23,-86,-39,35
573,2160,0,-429,-4696,23,-86,-38,34
574,2159,2,-427,-4696,23,-86,-38,34
575,2159,0,-429,-4696,23,-86,-38,35
576,2160,0,-428,-4696,23,-87,-38,34
577,2161,0,-428,-4695,23,-86,-38,35
578,2160,2,-427,-4695,23,-86,-38,34
579,2159,2,-427,-4695,23,-86,-38,34
580,2158,1,-428,-4696,23,-86,-38,34
581,2157,1,-429,-4697,23,-86,-38,35
582,2158,1,-429,-4699,23,-86,-37,35
583,2159,1,-428,-4698,23,-86,-37,35
584,2160,1,-428,-4699,23,-87,-38,34
585,2159,1,-427,-4699,23,-87,-38,34
586,2157,1,-428,-4698,23,-87,-38,34
587,2156,0,-428,-4698,23,-87,-39,34
588,2157,1,-429,-4696,23,-87,-39,34
589,2157,2,-428,-4697,23,-87,-38,34
590,2156,2,-429,-4698,23,-87,-38,34
591,2157,2,-430,-4699,23,-86,-38,33
592,2157,1,-431,-4697,23,-87,-39,34
593,2156,2,-430,-4698,23,-87,-39,34
594,2156,3,-430,-4699,23,-87,-38,34
595,2156,2,-431,-4699,23,-87,-38,34
596,2156,2,-431,-4697,23,-87,-38,35
597,2156,2,-432,-4696,23,-86,-38,34
598,2157,2,-431,-4697,23,-87,-38,34
599,2156,3,-430,-4697,23,-87,-38,34
600,2157,3,-428,-4697,23,-87,-38,34
601,2158,3,-427,-4698,23,-87,-38,34
602,2159,2,-429,-4699,23,-87,-37,34
603,2159,2,-430,-4699,23,-87,-38,34
604,2160,1,-432,-4698,23,-87,-38,34
605,2159,1,-431,-4699,23,-86,-38,34
606,2157,1,-432,-4699,23,-86,-38,34
607,2158,1,-431,-4700,23,-85,-38,34
608,2158,1,-431,-4699,23,-86,-38,34
609,2157,1,-429,-4698,23,-86,-39,34
610,2158,2,-431,-4698,23,-87,-38,34
611,2158,1,-431,-4700,23,-87,-39,34
612,2158,2,-430,-4700,23,-86,-38,34
613,2159,1,-431,-4700,23,-87,-38,34
614,2159,1,-429,-4699,23,-87,-38,34
615,2160,0,-429,-4699,23,-86,-38,34
616,2159,0,-430,-4699,23,-86,-38,34
617,2159,0,-430,-4698,23,-86,-38,35
618,2159,0,-429,-4698,23,-87,-38,35
619,2159,0,-428,-4699,23,-87,-38,35
620,2159,1,-428,-4698,23,-87,-39,35
621,2160,0,-429,-4696,23,-87,-38,35
622,2160,1,-429,-4698,23,-86,-39,35
623,2160,1,-429,-4698,23,-86,-39,35
624,2160,1,-428,-4696,23,-86,-39,35
625,2160,0,-428,-4697,23,-86,-38,35
626,2160,-1,-428,-4698,23,-86,-38,34
627,2159,-1,-427,-4697,23,-86,-38,35
628,2159,-1,-428,-4697,23,-86,-38,34
629,2159,-1,-427,-4697,23,-86,-38,34
630,2159,0,-427,-4699,23,-86,-38,34
631,2159,1,-426,-4698,23,-87,-38,34
632,2159,0,-427,-4698,23,-87,-38,34
633,2158,0,-429,-4697,23,-87,-38,34
634,2157,-1,-427,-4697,23,-87,-39,34
635,2158,-1,-427,-4697,23,-87,-39,34
636,2158,0,-425,-4697,23,-86,-38,34
637,2159,0,-425,-4697,23,-87,-38,34
638,2158,0,-425,-4698,23,-86,-38,35
639,2158,1,-426,-4699,23,-86,-38,35
640,2159,1,-428,-4698,23,-87,-39,35
641,2159,0,-430,-4699,23,-87,-38,35
642,2160,0,-431,-4698,23,-87,-38,36
643,2160,2,-429,-4699,23,-87,-38,36
644,2159,2,-430,-4699,23,-87,-38,35
645,2159,3,-429,-4699,23,-87,-38,35
646,2158,2,-430,-4697,23,-87,-37,35
647,2158,2,-429,-4697,23,-87,-37,35
648,2158,2,-427,-4696,23,-87,-37,35
649,2158,2,-426,-4695,23,-87,-37,35
650,2158,1,-427,-4694,23,-86,-37,35
651,2158,2,-427,-4695,23,-86,-37,35
652,2159,2,-428,-4694,23,-87,-38,34
653,2160,2,-428,-4696,23,-88,-38,35
654,2160,3,-430,-4696,23,-87,-38,34
655,2159,1,-428,-4697,23,-87,-38,35
656,2158,2,-430,-4696,23,-87,-38,34
657,2158,2,-429,-4698,23,-87,-38,35
658,2158,2,-429,-4695,23,-87,-38,35
659,2157,1,-428,-4695,23,-87,-37,35
660,2158,1,-427,-4694,23,-86,-37,35
661,2158,0,-427,-4696,23,-86,-38,35
662,2158,1,-427,-4696,23,-87,-38,35
663,2160,0,-426,-4695,23,-87,-38,35
664,2160,2,-429,-4696,23,-87,-38,35
665,2160,2,-428,-4695,23,-87,-38,34
666,2160,2,-428,-4695,23,-87,-39,35
667,2160,2,-428,-4695,23,-87,-38,35
668,2159,2,-426,-4695,23,-88,-38,35
669,2160,1,-426,-4696,23,-87,-38,35
670,2159,3,-426,-4696,23,-88,-39,35
671,2159,4,-429,-4696,23,-87,-38,35
672,2159,3,-428,-4697,23,-87,-38,35
673,2160,2,-429,-4696,23,-87,-38,35
674,2159,1,-429,-4696,23,-87,-38,35
675,2158,0,-427,-4694,23,-86,-39,35
676,2158,1,-428,-4695,23,-86,-38,34
677,2157,2,-428,-4695,23,-86,-38,34
678,2159,2,-429,-4695,23,-86,-38,34
679,2160,1,-428,-4696,23,-85,-38,35
680,2159,1,-427,-4695,23,-86,-38,34
681,2160,2,-425,-4695,23,-86,-38,35
682,2159,1,-426,-4695,23,-86,-38,35
683,2159,2,-426,-4695,23,-86,-38,34
684,2159,2,-424,-4696,23,-86,-39,35
685,2158,1,-425,-4696,23,-87,-38,35
686,2160,2,-427,-4696,23,-87,-38,34
687,2159,0,-427,-4695,23,-86,-38,34
688,2159,1,-429,-4695,23,-87,-38,34
689,2159,2,-431,-4696,23,-87,-38,34
690,2160,2,-429,-4697,23,-87,-38,34
691,2159,2,-428,-4697,23,-87,-38,34
692,2160,2,-428,-4697,23,-86,-38,35
693,2159,2,-428,-4697,23,-87,-38,35
694,2158,2,-427,-4697,23,-87,-37,35
695,2158,1,-428,-4698,23,-87,-37,35
696,2158,1,-430,-4698,23,-87,-37,35
697,2157,1,-429,-4697,23,-87,-38,35
698,2158,2,-428,-4698,23,-87,-38,35
699,2158,2,-428,-4696,23,-86,-37,34
700,2158,3,-429,-4698,23,-86,-37,35
701,2157,1,-430,-4698,23,-86,-38,34
702,2157,2,-429,-4698,23,-86,-38,34
703,2159,2,-428,-4696,23,-86,-38,34
704,2158,2,-427,-4696,23,-86,-38,34
705,2158,2,-425,-4695,23,-86,-39,34
706,2159,3,-427,-4696,23,-86,-38,35
707,2160,1,-427,-4696,23,-86,-38,35
708,2160,1,-425,-4695,23,-86,-38,35
709,2159,2,-424,-4696,23,-86,-38,35
710,2159,0,-425,-4695,23,-87,-38,34
711,2159,0,-425,-4696,23,-87,-38,34
712,2160,-1,-425,-4697,23,-86,-38,34
713,2160,-2,-427,-4697,23,-86,-38,34
714,2160,-1,-428,-4697,23,-86,-38,33
715,2160,0,-430,-4697,23,-86,-38,34
716,2160,0,-430,-4696,23,-87,-38,34
717,2160,1,-431,-4696,23,-87,-38,34
718,2160,1,-429,-4697,23,-87,-37,34
719,2159,2,-430,-4697,23,-87,-37,34
720,2158,3,-430,-4696,23,-87,-38,34
721,2158,3,-428,-4696,23,-86,-37,34
722,2158,3,-429,-4696,23,-86,-37,34
723,2159,1,-428,-4694,23,-86,-38,34
724,2159,2,-430,-4693,23,-86,-37,34
725,2159,2,-432,-4693,23,-86,-37,34
726,2160,1,-430,-4691,23,-86,-37,35
727,2159,0,-430,-4693,23,-87,-37,35
728,2160,0,-430,-4692,23,-87,-38,35
729,2159,1,-430,-4695,23,-87,-38,34
730,2160,1,-430,-4696,23,-87,-39,35
731,2160,0,-431,-4696,23,-87,-38,35
732,2159,1,-429,-4697,23,-87,-38,34
733,2158,1,-428,-4695,23,-86,-38,34
734,2158,3,-427,-4695,23,-86,-38,34
735,2158,2,-427,-4696,23,-86,-38,34
736,2158,3,-427,-4694,23,-86,-38,34
737,2157,2,-428,-4695,23,-87,-38,34
738,2158,2,-427,-4694,23,-87,-39,35
739,2158,2,-428,-4695,23,-87,-39,34
740,2157,3,-427,-4694,23,-87,-39,34
741,2158,2,-428,-4694,23,-87,-39,34
742,2159,2,-428,-4694,23,-87,-39,35
743,2158,1,-428,-4694,23,-87,-39,34
744,2159,1,-427,-4693,23,-87,-39,35
745,2159,1,-427,-4694,23,-87,-39,35
746,2158,1,-429,-4693,23,-87,-38,35
747,2157,1,-429,-4694,23,-87,-38,35
748,2157,2,-427,-4694,23,-87,-37,35
749,2157,2,-426,-4697,23,-87,-37,35
750,2156,1,-427,-4697,23,-87,-38,35
751,2156,1,-429,-4695,23,-87,-38,34
752,2157,1,-429,-4694,23,-86,-38,35
753,2158,2,-429,-4695,23,-87,-38,35
754,2158,1,-429,-4695,23,-87,-37,35
755,2158,2,-430,-4694,23,-88,-38,35
756,2157,1,-429,-4695,23,-87,-38,34
757,2157,2,-430,-4695,23,-87,-37,34
758,2158,2,-430,-4695,23,-87,-37,34
759,2159,3,-429,-4694,23,-87,-38,34
760,2158,4,-429,-4696,23,-87,-38,34
761,2158,2,-427,-4697,23,-87,-38,34
762,2158,2,-427,-4697,23,-86,-38,34
763,2157,3,-427,-4695,23,-87,-38,34
764,2158,3,-426,-4694,23,-87,-38,34
765,2159,3,-427,-4694,23,-87,-37,34
766,2159,3,-426,-4696,23,-87,-38,34
767,2159,3,-424,-4696,23,-87,-39,34
768,2158,3,-425,-4694,23,-87,-39,35
769,2160,3,-426,-4695,23,-87,-39,35
770,2160,1,-426,-4693,23,-87,-39,35
771,2159,1,-426,-4693,23,-87,-38,34
772,2159,1,-427,-4694,23,-88,-38,34
773,2158,0,-429,-4693,23,-87,-38,35
774,2157,0,-429,-4694,23,-87,-38,34
775,2158,1,-430,-4696,23,-88,-38,35
776,2158,1,-430,-4697,23,-87,-38,35
777,2158,0,-429,-4695,23,-87,-37,35
778,2158,0,-428,-4695,23,-86,-38,35
779,2159,0,-430,-4696,23,-87,-39,34
780,2159,1,-430,-4696,23,-86,-39,35
781,2159,2,-429,-4696,23,-86,-39,35
782,2159,1,-429,-4695,23,-87,-39,35
783,2161,1,-432,-4695,23,-86,-39,35
784,2162,2,-430,-4694,23,-86,-38,35
785,2161,2,-431,-4694,23,-86,-38,35
786,2161,2,-430,-4694,23,-87,-38,35
787,2160,3,-428,-4694,23,-86,-38,34
788,2160,3,-428,-4695,23,-87,-38,34
789,2160,2,-428,-4693,23,-87,-39,34
790,2160,2,-426,-4691,23,-87,-39,34
791,2160,2,-426,-4691,23,-87,-38,34
792,2161,2,-426,-4692,23,-86,-38,34
793,2161,0,-428,-4691,23,-86,-38,35
794,2159,0,-429,-4692,23,-87,-38,34
795,2159,0,-430,-4692,23,-86,-38,35
796,2159,1,-430,-4692,23,-87,-38,34
797,2158,0,-428,-4694,23,-87,-38,34
798,2159,2,-428,-4695,23,-86,-38,34
799,2159,2,-428,-4694,23,-86,-37,35
800,2158,2,-429,-4696,23,-86,-38,34
801,2159,3,-431,-4695,23,-86,-38,35
802,2158,1,-432,-4695,23,-86,-37,35
803,2158,1,-431,-4694,23,-87,-38,35
804,2158,0,-431,-4693,23,-87,-38,35
805,2157,0,-429,-4693,23,-87,-38,35
806,2158,-1,-429,-4695,23,-87,-38,35
807,2158,-1,-429,-4694,23,-86,-38,34
808,2158,1,-428,-4694,23,-87,-38,34
809,2159,2,-427,-4692,23,-87,-38,34
810,2158,1,-428,-4692,23,-87,-38,34
811,2158,0,-426,-4692,23,-87,-38,34
812,2158,0,-426,-4692,23,-88,-37,34
813,2158,0,-429,-4693,23,-88,-38,34
814,2158,2,-430,-4693,23,-88,-38,34
815,2158,2,-431,-4692,23,-88,-39,34
816,2159,2,-430,-4692,23,-88,-38,35
817,2158,2,-430,-4692,23,-87,-39,35
818,2158,3,-428,-4692,23,-86,-39,35
819,2158,2,-428,-4693,23,-87,-39,35
820,2158,2,-431,-4694,23,-87,-38,35
821,2158,1,-430,-4692,23,-87,-38,35
822,2158,1,-430,-4692,23,-87,-39,35
823,2158,1,-428,-4693,23,-87,-38,35
824,2159,1,-427,-4694,23,-87,-39,35
825,2159,2,-428,-4691,23,-87,-39,35
826,2159,2,-427,-4690,23,-87,-39,35
827,2159,0,-427,-4692,23,-87,-39,35
828,2160,0,-426,-4691,23,-87,-39,35
829,2158,0,-425,-4694,23,-87,-39,36
830,2160,-1,-424,-4693,23,-87,-39,35
831,2160,0,-425,-4692,23,-87,-39,34
832,2160,0,-427,-4691,23,-87,-38,35
833,2160,0,-429,-4691,23,-87,-38,35
834,2158,0,-428,-4689,23,-87,-38,35
835,2159,0,-428,-4690,23,-87,-38,35
836,2158,0,-429,-4689,23,-87,-37,35
837,2159,1,-427,-4690,23,-87,-38,35
838,2158,0,-429,-4690,23,-87,-38,35
839,2158,0,-429,-4690,23,-87,-38,35
840,2158,1,-430,-4692,23,-87,-39,34
841,2159,2,-429,-4694,23,-86,-38,35
842,2159,1,-430,-4694,23,-87,-38,35
843,2159,2,-430,-4696,23,-87,-39,34
844,2159,1,-429,-4695,23,-86,-39,35
845,2159,1,-428,-4695,23,-86,-39,35
846,2158,1,-428,-4696,23,-85,-38,35
847,2159,1,-428,-4695,23,-86,-38,35
848,2160,1,-428,-4696,23,-86,-38,35
849,2160,1,-428,-4697,23,-87,-39,35
850,2159,1,-429,-4695,23,-87,-39,35
851,2160,1,-431,-4694,23,-87,-39,35
852,2159,1,-430,-4695,23,-87,-39,34
853,2159,1,-429,-4694,23,-88,-39,34
854,2159,2,-429,-4694,23,-88,-38,34
855,2158,2,-429,-4695,23,-88,-38,34
856,2159,1,-430,-4694,23,-88,-39,34
857,2158,1,-431,-4693,23,-88,-39,34
858,2159,2,-432,-4693,23,-87,-38,34
859,2158,1,-432,-4692,23,-87,-37,34
860,2159,1,-429,-4693,23,-87,-38,34
861,2159,1,-428,-4693,23,-87,-38,34
862,2158,2,-429,-4694,23,-87,-38,34
863,2159,2,-429,-4694,23,-87,-39,35
864,2158,2,-428,-4694,23,-87,-39,34
865,2157,0,-426,-4692,23,-87,-39,34
866,2158,0,-427,-4694,23,-87,-39,34
867,2158,1,-427,-4694,23,-87,-38,34
868,2159,2,-426,-4694,23,-87,-39,34
869,2161,2,-427,-4695,23,-87,-38,34
870,2160,2,-428,-4693,23,-87,-38,33
871,2161,1,-428,-4695,23,-87,-38,33
872,2161,0,-428,-4694,23,-87,-39,33
873,2160,0,-429,-4694,23,-86,-39,34
874,2160,0,-430,-4695,23,-86,-39,34
875,2159,0,-430,-4695,23,-86,-39,34
876,2158,0,-430,-4692,23,-86,-38,34
877,2160,0,-427,-4692,23,-86,-38,34
878,2159,1,-427,-4691,23,-86,-38,35
879,2158,1,-428,-4691,23,-86,-38,35
880,2159,-1,-428,-4689,23,-87,-39,35
881,2158,0,-427,-4690,23,-87,-39,35
882,2158,-1,-428,-4691,23,-87,-38,35
883,2159,0,-428,-4692,23,-87,-39,35
884,2160,0,-428,-4692,23,-87,-39,35
885,2160,1,-426,-4693,23,-87,-38,35
886,2160,1,-425,-4692,23,-87,-38,35
887,2161,1,-425,-4692,23,-86,-37,34
888,2160,2,-426,-4693,23,-86,-37,34
889,2160,2,-426,-4694,23,-86,-37,35
890,2161,2,-428,-4695,23,-86,-37,34
891,2159,1,-429,-4695,23,-87,-38,35
892,2159,1,-428,-4693,23,-87,-38,34
893,2158,2,-427,-4691,23,-87,-38,34
894,2159,2,-427,-4694,23,-88,-39,34
895,2160,2,-428,-4695,23,-87,-39,34
896,2160,2,-429,-4694,23,-87,-39,34
897,2161,2,-432,-4694,23,-87,-39,34
898,2161,2,-432,-4692,23,-87,-39,34
899,2161,1,-430,-4693,23,-87,-38,34
900,2161,1,-430,-4693,23,-87,-38,34
901,2160,0,-428,-4691,23,-87,-38,35
902,2161,-1,-427,-4692,23,-88,-38,35
903,2159,1,-427,-4692,23,-88,-39,35
904,2160,0,-427,-4692,23,-88,-39,36
905,2160,1,-427,-4693,23,-87,-39,36
906,2160,1,-426,-4694,23,-87,-39,36
907,2158,2,-429,-4693,23,-87,-39,36
908,2158,1,-428,-4693,23,-87,-38,36
909,2159,0,-429,-4694,23,-87,-39,36
910,2159,1,-430,-4694,23,-87,-40,36
911,2161,2,-429,-4693,23,-87,-39,35
912,2160,1,-430,-4692,23,-87,-39,35
913,2161,2,-429,-4692,23,-87,-38,35
914,2160,3,-427,-4693,23,-87,-38,34
915,2160,2,-427,-4693,23,-86,-38,34
916,2159,3,-429,-4694,23,-86,-37,34
917,2158,3,-428,-4694,23,-87,-38,34
918,2158,3,-427,-4694,23,-87,-38,34
919,2158,2,-426,-4693,23,-87,-38,34
920,2157,1,-425,-4692,23,-87,-38,35
921,2156,2,-426,-4692,23,-87,-38,35
922,2156,2,-427,-4693,23,-87,-38,34
923,2157,2,-428,-4692,23,-87,-39,34
924,2158,2,-429,-4690,23,-87,-39,34
925,2159,2,-430,-4691,23,-86,-38,34
926,2160,1,-428,-4690,23,-86,-38,35
927,2160,2,-429,-4691,23,-86,-39,35
928,2160,2,-429,-4692,23,-86,-38,35
929,2160,2,-428,-4694,23,-87,-38,34
930,2159,2,-429,-4695,23,-87,-38,34
931,2159,2,-428,-4695,23,-87,-38,34
932,2160,2,-427,-4693,23,-86,-38,34
933,2159,2,-427,-4694,23,-86,-38,34
934,2159,2,-428,-4693,23,-86,-38,35
935,2157,2,-426,-4691,23,-86,-38,35
936,2158,2,-426,-4690,23,-87,-38,35
937,2158,2,-428,-4689,23,-86,-38,35
938,2157,2,-426,-4689,23,-86,-38,35
939,2159,2,-426,-4688,23,-86,-38,35
940,2159,2,-426,-4688,23,-87,-38,35
941,2158,3,-427,-4689,23,-87,-38,35
942,2158,4,-427,-4690,23,-87,-38,35
943,2157,3,-427,-4690,23,-87,-38,35
944,2158,3,-428,-4692,23,-87,-37,35
945,2158,3,-428,-4690,23,-87,-37,35
946,2159,3,-427,-4689,23,-87,-38,35
947,2159,3,-426,-4691,23,-87,-38,34
948,2158,3,-427,-4690,23,-87,-38,34
949,2158,2,-428,-4691,23,-87,-38,35
950,2158,1,-428,-4691,23,-88,-38,35
951,2159,0,-429,-4690,23,-88,-38,34
952,2158,0,-427,-4690,23,-88,-37,34
953,2159,0,-427,-4690,23,-88,-38,34
954,2159,0,-426,-4689,23,-89,-38,35
955,2159,0,-427,-4689,23,-88,-38,34
956,2159,0,-427,-4689,23,-88,-38,35
957,2159,2,-427,-4692,23,-88,-39,35
958,2158,2,-426,-4692,23,-87,-40,35
959,2159,2,-426,-4692,23,-87,-40,35
960,2158,2,-428,-4693,23,-88,-39,35
961,2158,1,-429,-4692,23,-88,-39,34
962,2158,2,-428,-4691,23,-87,-39,35
963,2156,2,-428,-4691,23,-87,-38,35
964,2157,1,-429,-4693,23,-88,-38,34
965,2158,1,-430,-4692,23,-88,-38,34
966,2159,1,-428,-4691,23,-87,-38,34
967,2159,1,-429,-4691,23,-87,-38,34
968,2159,1,-430,-4689,23,-87,-38,34
969,2158,0,-431,-4689,23,-87,-38,34
970,2158,1,-430,-4687,23,-87,-38,34
971,2157,1,-430,-4689,23,-87,-38,35
972,2157,2,-430,-4688,23,-87,-38,34
973,2159,2,-431,-4688,23,-86,-38,34
974,2159,2,-431,-4687,23,-87,-39,34
975,2158,1,-429,-4690,23,-87,-39,34
976,2159,2,-430,-4689,23,-87,-38,33
977,2160,1,-430,-4689,23,-87,-38,33
978,2159,1,-430,-4689,23,-87,-38,34
979,2160,1,-430,-4690,23,-86,-38,34
980,2160,1,-429,-4689,23,-86,-38,35
981,2159,1,-428,-4690,23,-86,-39,35
982,2159,1,-428,-4691,23,-86,-39,35
983,2159,3,-425,-4691,23,-86,-38,35
984,2160,2,-426,-4690,23,-86,-38,35
985,2158,2,-430,-4690,23,-87,-38,35
986,2159,3,-430,-4691,23,-87,-38,35
987,2160,2,-430,-4690,23,-87,-39,35
988,2160,2,-430,-4689,23,-86,-39,35
989,2160,2,-430,-4688,23,-86,-38,35
990,2160,2,-430,-4689,23,-86,-39,35
991,2159,1,-431,-4689,23,-86,-38,35
992,2158,1,-431,-4688,23,-86,-38,35
993,2159,2,-430,-4687,23,-87,-38,35
994,2158,2,-429,-4687,23,-87,-39,36
995,2158,2,-430,-4691,23,-87,-39,35
996,2157,3,-430,-4691,23,-87,-39,35
997,2157,3,-431,-4691,23,-87,-39,35
998,2158,4,-433,-4690,23,-87,-39,35
