,acc_X,acc_Y,acc_Z,temp,tempC,gyr_X,gyr_Y,gyr_Z
0,4350,-2,-475,-4563,23,-86,-39,35
1,4352,0,-472,-4563,23,-87,-39,35
2,4353,3,-472,-4563,23,-87,-39,35
3,4353,0,-470,-4561,23,-87,-39,35
4,4354,1,-471,-4559,23,-87,-39,35
5,4355,1,-475,-4560,23,-87,-39,35
6,4353,-1,-474,-4559,23,-87,-40,34
7,4352,-2,-478,-4561,23,-87,-39,35
8,4352,-1,-479,-4560,23,-88,-39,35
9,4353,-2,-481,-4560,23,-88,-39,35
10,4354,-1,-480,-4561,23,-88,-40,35
11,4355,1,-479,-4560,23,-87,-39,34
12,4354,0,-479,-4560,23,-87,-39,35
13,4355,1,-478,-4558,23,-87,-39,35
14,4356,1,-475,-4560,23,-87,-39,35
15,4356,3,-472,-4561,23,-86,-38,35
16,4357,1,-469,-4561,23,-87,-38,35
17,4355,0,-474,-4562,23,-87,-38,35
18,4356,-1,-477,-4563,23,-87,-38,34
19,4358,-1,-479,-4563,23,-87,-39,35
20,4357,-1,-480,-4562,23,-87,-38,35
21,4355,-3,-480,-4563,23,-87,-39,35
22,4356,-3,-481,-4563,23,-87,-39,35
23,4354,0,-480,-4564,23,-87,-39,35
24,4353,-1,-479,-4563,23,-87,-39,35
25,4352,-3,-481,-4565,23,-87,-39,35
26,4354,-7,-486,-4564,23,-87,-39,35
27,4353,-5,-485,-4564,23,-87,-39,35
28,4352,-3,-485,-4562,23,-87,-39,35
29,4351,-3,-481,-4562,23,-87,-39,35
30,4352,-4,-481,-4561,23,-87,-39,35
31,4352,-2,-480,-4561,23,-88,-39,35
32,4353,0,-482,-4561,23,-87,-39,36
33,4355,0,-479,-4563,23,-87,-39,35
34,4356,0,-478,-4562,23,-87,-39,35
35,4355,-1,-480,-4562,23,-87,-39,35
36,4354,-2,-478,-4561,23,-87,-38,35
37,4355,-2,-479,-4561,23,-87,-38,35
38,4357,-2,-479,-4562,23,-88,-38,35
39,4357,-2,-479,-4562,23,-88,-39,35
40,4357,2,-479,-4561,23,-88,-38,35
41,4357,3,-480,-4560,23,-87,-39,35
42,4361,2,-478,-4561,23,-87,-39,35
43,4361,1,-474,-4559,23,-88,-40,35
44,4358,0,-475,-4560,23,-88,-39,35
45,4357,0,-475,-4560,23,-87,-40,35
46,4358,0,-478,-4562,23,-87,-40,35
47,4359,-1,-480,-4562,23,-87,-40,35
48,4360,-2,-484,-4561,23,-87,-39,35
49,4356,-2,-483,-4560,23,-87,-39,35
50,4356,-4,-483,-4562,23,-87,-39,35
51,4356,-3,-480,-4562,23,-87,-39,35
52,4355,-1,-484,-4561,23,-87,-39,35
53,4352,-2,-480,-4559,23,-87,-39,35
54,4352,-4,-479,-4557,23,-87,-39,35
55,4353,-4,-478,-4559,23,-87,-39,35
56,4354,-2,-478,-4558,23,-86,-39,35
57,4355,-3,-475,-4557,23,-86,-39,35
58,4353,-3,-477,-4556,23,-86,-39,35
59,4354,-4,-476,-4557,23,-87,-39,35
60,4356,-5,-474,-4558,23,-87,-39,35
61,4355,-4,-476,-4560,23,-87,-38,35
62,4355,-5,-477,-4561,23,-87,-38,35
63,4353,-4,-479,-4563,23,-87,-39,35
64,4352,-4,-481,-4564,23,-87,-39,35
65,4351,-5,-481,-4563,23,-87,-38,35
66,4353,-5,-481,-4563,23,-86,-39,35
67,4353,-3,-482,-4564,23,-87,-39,35
68,4353,-1,-480,-4563,23,-87,-39,35
69,4354,-2,-480,-4562,23,-86,-39,35
70,4354,-1,-478,-4562,23,-87,-39,35
71,4353,-2,-479,-4561,23,-87,-39,36
72,4353,-2,-474,-4563,23,-87,-39,36
73,4353,-3,-477,-4564,23,-87,-39,36
74,4353,-3,-477,-4565,23,-87,-39,36
75,4353,-5,-477,-4565,23,-87,-39,35
76,4352,-3,-480,-4563,23,-87,-39,35
77,4351,-6,-477,-4565,23,-87,-39,35
78,4352,-5,-475,-4564,23,-87,-39,35
79,4352,-1,-476,-4565,23,-87,-39,35
80,4349,-1,-477,-4566,23,-87,-40,35
81,4352,-1,-476,-4565,23,-87,-39,35
82,4354,0,-477,-4564,23,-87,-39,35
83,4354,0,-479,-4562,23,-87,-39,35
84,4355,1,-478,-4565,23,-87,-39,34
85,4357,1,-476,-4563,23,-88,-39,34
86,4355,0,-480,-4562,23,-87,-38,35
87,4354,-2,-477,-4561,23,-87,-39,34
88,4355,-2,-474,-4561,23,-87,-38,34
89,4352,-3,-472,-4559,23,-87,-39,34
90,4351,-1,-471,-4561,23,-86,-39,34
91,4351,0,-471,-4561,23,-86,-39,35
92,4352,2,-471,-4561,23,-86,-39,35
93,4351,3,-471,-4560,23,-87,-38,35
94,4351,1,-472,-4561,23,-87,-39,34
95,4349,0,-474,-4562,23,-86,-39,35
96,4348,1,-475,-4563,23,-87,-39,34
97,4347,1,-478,-4564,23,-87,-40,34
98,4349,1,-479,-4564,23,-87,-39,34
99,4351,-1,-483,-4563,23,-87,-39,34
100,4351,-1,-483,-4564,23,-87,-39,35
101,4351,-2,-483,-4566,23,-87,-39,35
102,4350,-2,-481,-4563,23,-87,-39,35
103,4351,-1,-478,-4561,23,-87,-38,35
104,4350,-2,-478,-4559,23,-87,-38,35
105,4350,-5,-474,-4559,23,-87,-38,35
106,4351,-5,-471,-4560,23,-87,-38,35
107,4351,-4,-473,-4559,23,-87,-38,35
108,4351,-5,-473,-4559,23,-87,-39,35
109,4351,-3,-474,-4561,23,-87,-39,35
110,4351,-3,-478,-4562,23,-87,-38,35
111,4353,-5,-477,-4564,23,-87,-38,36
112,4353,-3,-477,-4563,23,-87,-38,36
113,4355,-4,-479,-4562,23,-87,-39,36
114,4353,-4,-481,-4560,23,-87,-39,35
115,4351,-3,-483,-4561,23,-87,-39,35
116,4350,-4,-485,-4560,23,-87,-38,35
117,4351,-6,-484,-4557,23,-87,-38,35
118,4349,-4,-483,-4559,23,-87,-39,35
119,4350,-3,-483,-4559,23,-86,-38,35
120,4352,-5,-480,-4558,23,-87,-39,35
121,4351,-3,-482,-4559,23,-86,-38,35
122,4353,-4,-485,-4559,23,-87,-38,35
123,4352,-4,-484,-4560,23,-87,-38,35
124,4354,-4,-481,-4560,23,-87,-38,35
125,4354,-2,-480,-4559,23,-87,-39,35
126,4354,-3,-483,-4559,23,-87,-39,35
127,4354,-2,-477,-4559,23,-86,-38,34
128,4355,-4,-473,-4560,23,-86,-38,35
129,4352,-3,-471,-4561,23,-87,-38,35
130,4354,-3,-472,-4562,23,-86,-39,35
131,4354,-2,-472,-4561,23,-87,-38,35
132,4352,-2,-472,-4559,23,-87,-38,35
133,4353,-4,-475,-4560,23,-87,-38,35
134,4353,-4,-477,-4559,23,-87,-38,36
135,4352,-4,-478,-4559,23,-88,-38,36
136,4352,-5,-480,-4559,23,-88,-38,36
137,4352,-3,-483,-4560,23,-88,-38,35
138,4354,-2,-482,-4560,23,-87,-39,35
139,4354,-2,-484,-4562,23,-87,-38,36
140,4356,0,-487,-4561,23,-88,-38,35
141,4354,-4,-489,-4561,23,-88,-39,36
142,4353,-4,-488,-4561,23,-88,-39,35
143,4354,-2,-488,-4560,23,-87,-39,35
144,4354,-3,-484,-4561,23,-87,-39,35
145,4354,-4,-480,-4559,23,-88,-39,36
146,4354,-1,-482,-4560,23,-87,-39,35
147,4354,-1,-482,-4559,23,-87,-39,36
148,4353,0,-482,-4558,23,-87,-39,36
149,4356,-1,-488,-4560,23,-87,-39,36
150,4357,-2,-486,-4559,23,-87,-39,36
151,4354,-2,-482,-4560,23,-87,-39,36
152,4353,-3,-480,-4560,23,-87,-39,35
153,4353,-2,-480,-4560,23,-87,-40,35
154,4353,0,-484,-4560,23,-88,-39,35
155,4352,-1,-483,-4561,23,-87,-39,35
156,4353,-1,-483,-4560,23,-87,-39,35
157,4352,-3,-484,-4561,23,-87,-39,35
158,4354,-3,-484,-4559,23,-87,-39,35
159,4353,0,-482,-4560,23,-87,-39,35
160,4354,1,-476,-4561,23,-87,-39,35
161,4353,0,-477,-4562,23,-87,-39,35
162,4352,-1,-476,-4559,23,-87,-39,35
163,4352,-1,-480,-4559,23,-87,-39,35
164,4352,-1,-481,-4560,23,-87,-39,35
165,4353,-2,-481,-4560,23,-86,-39,35
166,4353,-4,-480,-4560,23,-86,-39,35
167,4352,-5,-480,-4561,23,-86,-39,35
168,4354,-3,-477,-4561,23,-87,-39,34
169,4354,-3,-480,-4561,23,-87,-39,34
170,4351,-4,-475,-4559,23,-87,-39,35
171,4350,-6,-475,-4561,23,-87,-39,35
172,4350,-5,-476,-4560,23,-87,-39,35
173,4349,-6,-479,-4561,23,-87,-39,35
174,4349,-5,-477,-4560,23,-87,-39,35
175,4351,-5,-475,-4559,23,-87,-39,35
176,4353,-6,-477,-4559,23,-87,-38,35
177,4353,-7,-477,-4559,23,-87,-39,36
178,4353,-5,-477,-4558,23,-86,-39,36
179,4352,-2,-476,-4559,23,-86,-38,35
180,4350,0,-478,-4558,23,-87,-39,36
181,4354,-2,-475,-4559,23,-87,-39,35
182,4356,-3,-475,-4560,23,-87,-38,35
183,4356,-3,-474,-4558,23,-87,-38,35
184,4353,-4,-476,-4557,23,-87,-38,35
185,4354,-3,-477,-4559,23,-87,-38,35
186,4355,-2,-479,-4560,23,-87,-38,36
187,4354,-2,-480,-4560,23,-87,-39,35
188,4352,-2,-480,-4560,23,-87,-39,35
189,4351,-1,-480,-4560,23,-87,-39,35
190,4353,-3,-481,-4559,23,-87,-39,35
191,4351,-5,-478,-4561,23,-87,-39,35
192,4353,-4,-476,-4562,23,-87,-38,35
193,4353,-3,-476,-4562,23,-87,-38,35
194,4353,-2,-475,-4562,23,-87,-39,35
195,4353,-3,-474,-4561,23,-87,-39,35
196,4354,-3,-475,-4561,23,-86,-39,35
197,4352,-2,-477,-4560,23,-87,-39,35
198,4351,-3,-479,-4560,23,-87,-39,35
199,4350,-4,-480,-4559,23,-87,-39,35
200,4350,-4,-480,-4559,23,-88,-39,35
201,4351,-5,-477,-4560,23,-88,-39,35
202,4350,-5,-480,-4560,23,-88,-39,35
203,4353,-3,-483,-4561,23,-88,-39,35
204,4355,-4,-481,-4559,23,-87,-39,35
205,4354,-5,-482,-4558,23,-87,-40,35
206,4353,-3,-484,-4558,23,-88,-40,35
207,4355,-2,-483,-4557,23,-87,-40,35
208,4355,-1,-486,-4556,23,-87,-40,35
209,4354,-1,-487,-4557,23,-87,-40,35
210,4353,2,-486,-4557,23,-87,-39,35
211,4352,1,-481,-4558,23,-88,-39,35
212,4352,1,-482,-4559,23,-88,-40,36
213,4353,2,-484,-4559,23,-88,-39,35
214,4353,2,-483,-4559,23,-88,-39,35
215,4353,1,-483,-4559,23,-87,-39,35
216,4352,-2,-481,-4558,23,-87,-39,35
217,4351,-1,-480,-4557,23,-87,-39,35
218,4350,-1,-479,-4556,23,-87,-39,35
219,4351,-1,-481,-4557,23,-87,-39,35
220,4352,1,-482,-4556,23,-87,-39,35
221,4354,1,-484,-4557,23,-87,-39,35
222,4353,1,-488,-4556,23,-87,-39,35
223,4352,1,-484,-4556,23,-87,-39,35
224,4351,1,-486,-4555,23,-87,-38,35
225,4350,-1,-485,-4556,23,-87,-38,35
226,4352,-2,-482,-4554,23,-87,-39,35
227,4355,-3,-485,-4554,23,-88,-39,34
228,4355,-1,-484,-4554,23,-88,-38,35
229,4356,-3,-485,-4554,23,-88,-38,35
230,4353,-5,-484,-4554,23,-88,-38,35
231,4352,-4,-487,-4554,23,-88,-38,35
232,4354,-2,-486,-4555,23,-88,-38,35
233,4352,-1,-481,-4555,23,-88,-38,35
234,4350,0,-479,-4557,23,-87,-38,36
235,4350,1,-480,-4558,23,-87,-38,36
236,4351,-3,-476,-4558,23,-87,-38,36
237,4350,-3,-477,-4558,23,-88,-38,36
238,4352,-2,-477,-4559,23,-87,-38,36
239,4353,-1,-476,-4558,23,-87,-38,36
240,4354,-1,-478,-4558,23,-87,-38,36
241,4353,-1,-472,-4559,23,-87,-38,35
242,4352,-1,-474,-4557,23,-87,-38,35
243,4354,-1,-478,-4559,23,-88,-39,35
244,4353,0,-481,-4559,23,-88,-39,35
245,4352,-2,-482,-4558,23,-88,-39,35
246,4354,-2,-482,-4559,23,-88,-39,35
247,4356,-1,-482,-4559,23,-87,-39,35
248,4354,0,-484,-4560,23,-87,-39,35
249,4352,0,-479,-4562,23,-87,-39,35
250,4350,2,-480,-4559,23,-87,-39,35
251,4352,2,-481,-4557,23,-87,-38,35
252,4351,0,-478,-4558,23,-87,-39,35
253,4351,-3,-477,-4555,23,-87,-38,35
254,4350,-3,-478,-4556,23,-87,-38,35
255,4350,-2,-481,-4555,23,-87,-38,35
256,4354,-1,-483,-4557,23,-87,-39,35
257,4353,-1,-477,-4556,23,-87,-39,35
258,4353,0,-476,-4555,23,-87,-38,36
259,4352,-1,-474,-4555,23,-87,-38,36
260,4354,-4,-474,-4556,23,-87,-39,35
261,4355,-4,-476,-4554,23,-87,-39,35
262,4355,-4,-478,-4555,23,-88,-39,35
263,4352,-4,-479,-4553,23,-88,-39,34
264,4352,-1,-478,-4554,23,-88,-39,35
265,4353,0,-478,-4555,23,-87,-39,35
266,4353,0,-477,-4553,23,-87,-39,35
267,4353,-2,-477,-4552,23,-87,-39,34
268,4351,-2,-480,-4553,23,-87,-38,34
269,4351,-3,-480,-4552,23,-87,-38,34
270,4352,-1,-479,-4552,23,-87,-38,34
271,4351,-1,-478,-4556,23,-86,-38,34
272,4352,-3,-479,-4556,23,-87,-39,34
273,4355,-6,-481,-4556,23,-87,-39,35
274,4355,-4,-482,-4556,23,-87,-39,34
275,4353,-4,-482,-4553,23,-87,-39,35
276,4353,-5,-479,-4553,23,-87,-39,35
277,4354,-5,-479,-4554,23,-87,-38,34
278,4354,-5,-478,-4554,23,-87,-38,35
279,4357,-2,-477,-4553,23,-87,-38,35
280,4356,-1,-475,-4554,23,-87,-39,35
281,4356,-1,-479,-4553,23,-87,-39,35
282,4354,0,-474,-4555,23,-87,-39,35
283,4354,0,-473,-4557,23,-87,-39,35
284,4352,0,-475,-4557,23,-87,-39,35
285,4352,1,-477,-4559,23,-87,-39,36
286,4353,3,-477,-4558,23,-87,-38,35
287,4355,0,-477,-4558,23,-87,-38,35
288,4355,0,-476,-4559,23,-87,-38,35
289,4357,-3,-478,-4559,23,-87,-38,35
290,4356,-4,-478,-4559,23,-87,-38,35
291,4353,-4,-478,-4558,23,-87,-38,35
292,4351,-5,-479,-4557,23,-87,-38,35
293,4351,-6,-482,-4557,23,-87,-38,35
294,4352,-4,-480,-4558,23,-87,-38,35
295,4353,-5,-479,-4558,23,-87,-38,35
296,4355,-4,-480,-4557,23,-87,-39,35
297,4355,-4,-480,-4557,23,-87,-38,35
298,4353,-2,-482,-4553,23,-87,-38,35
299,4353,-2,-479,-4554,23,-87,-38,35
300,4351,0,-479,-4556,23,-87,-38,35
301,4350,-1,-480,-4559,23,-87,-38,35
302,4351,-2,-481,-4559,23,-87,-38,35
303,4351,-3,-482,-4557,23,-87,-39,35
304,4351,0,-482,-4556,23,-87,-39,35
305,4352,-1,-478,-4555,23,-87,-39,34
306,4353,-1,-481,-4556,23,-87,-39,34
307,4353,-2,-481,-4554,23,-88,-39,34
308,4353,-5,-482,-4554,23,-88,-39,34
309,4352,-5,-481,-4555,23,-88,-39,35
310,4352,-5,-481,-4554,23,-87,-39,35
311,4352,-5,-479,-4556,23,-88,-39,35
312,4351,-4,-478,-4554,23,-88,-39,35
313,4351,-5,-480,-4555,23,-87,-38,34
314,4352,-5,-478,-4554,23,-87,-38,34
315,4350,-4,-478,-4556,23,-87,-38,34
316,4351,-7,-475,-4555,23,-87,-39,34
317,4351,-8,-475,-4557,23,-87,-39,34
318,4353,-6,-476,-4555,23,-87,-38,34
319,4351,-5,-477,-4554,23,-88,-38,34
320,4353,-4,-477,-4554,23,-87,-39,34
321,4355,-3,-475,-4556,23,-87,-39,35
322,4357,-5,-478,-4556,23,-86,-39,35
323,4356,-3,-478,-4554,23,-87,-39,35
324,4355,-2,-476,-4555,23,-87,-39,35
325,4354,-2,-478,-4557,23,-86,-39,35
326,4353,-1,-481,-4556,23,-87,-39,35
327,4354,-2,-477,-4556,23,-87,-39,35
328,4352,-1,-478,-4556,23,-86,-39,35
329,4354,-2,-477,-4557,23,-87,-39,36
330,4356,-1,-476,-4557,23,-86,-39,35
331,4356,-1,-478,-4555,23,-86,-39,35
332,4354,-3,-481,-4555,23,-86,-39,35
333,4352,-2,-482,-4556,23,-86,-39,35
334,4353,1,-478,-4557,23,-86,-39,35
335,4353,1,-476,-4558,23,-86,-38,35
336,4354,1,-476,-4559,23,-86,-39,35
337,4352,0,-482,-4558,23,-87,-39,35
338,4351,-1,-483,-4558,23,-87,-39,35
339,4351,-2,-480,-4560,23,-87,-39,35
340,4350,0,-481,-4560,23,-86,-39,36
341,4349,-2,-480,-4560,23,-87,-39,36
342,4353,-3,-477,-4561,23,-87,-39,35
343,4353,-1,-476,-4560,23,-87,-39,35
344,4355,-5,-478,-4560,23,-87,-38,36
345,4354,-6,-482,-4561,23,-87,-39,36
346,4353,-6,-484,-4561,23,-87,-39,36
347,4352,-5,-481,-4560,23,-87,-39,36
348,4350,-3,-483,-4560,23,-87,-39,36
349,4350,-6,-483,-4559,23,-87,-39,35
350,4351,-5,-480,-4559,23,-87,-39,35
351,4351,-4,-480,-4558,23,-87,-38,35
352,4349,-4,-485,-4559,23,-87,-39,35
353,4349,-5,-483,-4557,23,-87,-39,35
354,4348,-5,-481,-4557,23,-87,-39,35
355,4347,-4,-484,-4557,23,-87,-39,36
356,4350,-4,-484,-4557,23,-87,-38,36
357,4351,-4,-487,-4556,23,-87,-38,36
358,4352,-3,-484,-4556,23,-87,-38,36
359,4351,-4,-482,-4553,23,-87,-38,35
360,4351,-4,-481,-4553,23,-87,-38,35
361,4353,-3,-477,-4553,23,-87,-38,35
362,4353,-6,-475,-4554,23,-88,-39,35
363,4353,-5,-477,-4555,23,-88,-39,35
364,4356,-5,-476,-4556,23,-88,-39,35
365,4355,-3,-473,-4554,23,-87,-38,35
366,4357,-4,-476,-4552,23,-87,-38,35
367,4356,-4,-477,-4551,23,-87,-38,35
368,4356,-5,-479,-4554,23,-87,-38,35
369,4355,-5,-477,-4552,23,-87,-38,35
370,4355,-7,-480,-4553,23,-87,-38,35
371,4354,-6,-479,-4554,23,-87,-38,35
372,4354,-6,-480,-4554,23,-87,-38,35
373,4352,-5,-481,-4554,23,-87,-38,36
374,4353,-5,-479,-4555,23,-87,-38,36
375,4353,-3,-478,-4556,23,-87,-39,36
376,4354,-2,-477,-4557,23,-86,-38,36
377,4353,-1,-476,-4558,23,-86,-39,35
378,4355,0,-474,-4558,23,-86,-39,35
379,4352,2,-472,-4558,23,-86,-39,35
380,4354,1,-477,-4556,23,-86,-39,35
381,4353,0,-480,-4558,23,-87,-39,35
382,4352,2,-478,-4557,23,-87,-39,35
383,4354,-1,-482,-4557,23,-87,-40,35
384,4354,-1,-487,-4558,23,-87,-39,35
385,4356,-5,-485,-4559,23,-87,-39,34
386,4356,-1,-483,-4558,23,-87,-39,35
387,4356,-2,-480,-4556,23,-87,-39,35
388,4355,-2,-478,-4557,23,-87,-40,35
389,4354,-2,-480,-4559,23,-87,-39,35
390,4354,-5,-478,-4560,23,-87,-39,35
391,4354,-6,-479,-4560,23,-87,-39,35
392,4352,-5,-480,-4559,23,-87,-39,35
393,4352,-4,-481,-4558,23,-87,-38,35
394,4350,-5,-480,-4559,23,-88,-38,35
395,4352,-3,-485,-4559,23,-87,-38,35
396,4351,-4,-484,-4556,23,-87,-38,35
397,4353,-2,-481,-4557,23,-87,-38,35
398,4353,-4,-479,-4557,23,-87,-38,35
399,4355,-2,-481,-4556,23,-87,-38,35
400,4355,-4,-483,-4554,23,-87,-38,35
401,4356,-4,-480,-4554,23,-87,-39,34
402,4354,-7,-478,-4555,23,-88,-39,35
403,4355,-5,-476,-4556,23,-87,-40,35
404,4354,-5,-475,-4558,23,-87,-39,35
405,4350,-3,-482,-4557,23,-87,-39,34
406,4348,-3,-482,-4557,23,-87,-39,35
407,4346,-2,-484,-4557,23,-87,-39,35
408,4349,-1,-483,-4559,23,-87,-38,34
409,4350,1,-483,-4560,23,-87,-39,34
410,4350,-1,-483,-4560,23,-87,-39,34
411,4351,0,-483,-4559,23,-87,-38,34
412,4353,-3,-481,-4557,23,-87,-38,35
413,4351,-4,-479,-4558,23,-87,-38,34
414,4352,-5,-477,-4559,23,-87,-38,34
415,4351,-5,-480,-4559,23,-87,-39,35
416,4350,-6,-479,-4559,23,-87,-38,34
417,4351,-5,-475,-4559,23,-87,-39,35
418,4353,-6,-474,-4558,23,-87,-39,35
419,4351,-7,-476,-4557,23,-88,-38,35
420,4350,-4,-474,-4555,23,-88,-38,34
421,4351,-5,-476,-4556,23,-88,-39,34
422,4350,-4,-477,-4555,23,-87,-39,34
423,4351,-3,-478,-4555,23,-88,-39,35
424,4350,-5,-479,-4555,23,-88,-39,35
425,4350,-4,-479,-4555,23,-87,-39,35
426,4350,-3,-475,-4555,23,-87,-39,35
427,4354,-1,-476,-4555,23,-87,-39,36
428,4354,0,-475,-4555,23,-88,-38,36
429,4356,-1,-476,-4556,23,-87,-38,36
430,4358,-4,-476,-4555,23,-87,-38,35
431,4352,-4,-476,-4554,23,-87,-39,35
432,4353,-1,-478,-4554,23,-87,-39,35
433,4353,-1,-481,-4554,23,-87,-38,35
434,4354,0,-478,-4555,23,-87,-39,34
435,4352,-2,-481,-4557,23,-87,-38,35
436,4352,-1,-480,-4554,23,-87,-39,35
437,4355,-4,-478,-4554,23,-87,-39,35
438,4356,-3,-475,-4556,23,-87,-39,35
439,4356,-1,-476,-4555,23,-87,-39,35
440,4357,-3,-479,-4555,23,-87,-39,35
441,4355,-3,-478,-4554,23,-87,-39,35
442,4357,-3,-478,-4555,23,-87,-39,35
443,4356,-2,-478,-4555,23,-87,-40,35
444,4355,-3,-479,-4556,23,-87,-39,35
445,4354,-5,-478,-4556,23,-87,-39,35
446,4354,-2,-481,-4555,23,-87,-40,35
447,4352,-2,-476,-4555,23,-87,-39,35
448,4352,-1,-475,-4556,23,-87,-39,35
449,4349,-2,-476,-4556,23,-87,-38,35
450,4351,-2,-475,-4556,23,-87,-39,35
451,4350,-3,-475,-4553,23,-87,-38,35
452,4350,-1,-479,-4554,23,-87,-39,35
453,4349,-1,-477,-4556,23,-87,-39,36
454,4347,0,-478,-4554,23,-87,-39,36
455,4348,1,-482,-4554,23,-87,-38,36
456,4349,0,-484,-4554,23,-87,-38,36
457,4352,-1,-483,-4556,23,-87,-38,35
458,4353,0,-482,-4556,23,-88,-38,35
459,4352,1,-480,-4556,23,-87,-39,36
460,4355,1,-480,-4555,23,-87,-39,35
461,4353,-1,-480,-4553,23,-87,-39,35
462,4353,-1,-478,-4553,23,-87,-38,35
463,4352,-1,-481,-4551,23,-87,-38,35
464,4352,-3,-480,-4550,23,-87,-38,35
465,4353,-3,-482,-4552,23,-88,-39,35
466,4353,-5,-481,-4554,23,-88,-39,36
467,4352,-7,-479,-4555,23,-88,-39,35
468,4353,-6,-480,-4555,23,-88,-39,35
469,4354,-5,-486,-4556,23,-88,-40,35
470,4356,-5,-486,-4555,23,-88,-39,35
471,4353,-6,-484,-4555,23,-88,-39,35
472,4356,-5,-483,-4556,23,-87,-39,35
473,4357,-4,-483,-4555,23,-87,-38,35
474,4356,-7,-482,-4554,23,-87,-38,35
475,4355,-6,-482,-4555,23,-87,-38,35
476,4355,-8,-484,-4554,23,-87,-39,35
477,4355,-7,-483,-4555,23,-87,-39,35
478,4354,-5,-480,-4556,23,-87,-38,35
479,4352,-4,-484,-4556,23,-86,-39,35
480,4351,-3,-485,-4555,23,-87,-39,35
481,4352,-1,-487,-4554,23,-87,-39,35
482,4349,-2,-490,-4555,23,-87,-39,35
483,4351,-2,-487,-4556,23,-87,-39,34
484,4351,-2,-485,-4554,23,-87,-40,35
485,4353,-2,-484,-4552,23,-87,-39,35
486,4353,-2,-483,-4553,23,-87,-39,35
487,4354,-4,-488,-4551,23,-87,-39,35
488,4354,-3,-488,-4553,23,-87,-39,36
489,4354,-4,-480,-4553,23,-87,-39,36
490,4356,-1,-476,-4555,23,-87,-39,36
491,4355,-1,-477,-4555,23,-87,-39,35
492,4352,0,-478,-4554,23,-87,-39,36
493,4353,-3,-481,-4553,23,-87,-40,36
494,4353,-1,-483,-4554,23,-87,-40,36
495,4352,0,-480,-4555,23,-87,-39,36
496,4352,1,-481,-4553,23,-87,-39,36
497,4352,1,-480,-4554,23,-87,-38,36
498,4351,1,-481,-4553,23,-87,-38,36
499,4351,-1,-483,-4551,23,-87,-38,36
500,4353,-2,-480,-4552,23,-87,-39,36
501,4351,-2,-478,-4551,23,-88,-39,36
502,4350,0,-479,-4552,23,-88,-39,35
503,4351,1,-478,-4554,23,-87,-39,35
504,4350,0,-476,-4556,23,-87,-39,35
505,4352,2,-480,-4555,23,-87,-39,35
506,4354,1,-482,-4553,23,-87,-39,35
507,4353,1,-480,-4551,23,-87,-39,36
508,4350,0,-482,-4553,23,-87,-39,36
509,4352,2,-478,-4553,23,-87,-39,36
510,4352,1,-476,-4553,23,-87,-39,35
511,4352,1,-476,-4554,23,-87,-39,35
512,4353,-1,-477,-4554,23,-87,-39,35
513,4353,-3,-480,-4556,23,-87,-39,35
514,4351,-3,-479,-4557,23,-87,-39,35
515,4351,-3,-480,-4556,23,-87,-39,35
516,4354,-2,-481,-4554,23,-86,-39,35
517,4355,-2,-477,-4554,23,-87,-39,36
518,4353,-1,-475,-4555,23,-87,-39,35
519,4353,-1,-478,-4555,23,-87,-39,35
520,4353,-1,-477,-4554,23,-87,-39,35
521,4351,-1,-480,-4556,23,-87,-39,35
522,4352,2,-479,-4555,23,-87,-40,35
523,4351,1,-482,-4555,23,-87,-40,35
524,4351,1,-480,-4556,23,-87,-40,34
525,4350,2,-478,-4553,23,-87,-39,34
526,4347,1,-479,-4553,23,-87,-39,34
527,4349,-2,-478,-4553,23,-87,-39,34
528,4352,-4,-475,-4555,23,-88,-39,34
529,4351,-4,-473,-4556,23,-88,-39,34
530,4353,-4,-470,-4555,23,-88,-39,35
531,4350,-5,-472,-4555,23,-87,-39,35
532,4351,-7,-475,-4555,23,-87,-39,35
533,4351,-4,-474,-4557,23,-87,-39,35
534,4351,-4,-471,-4557,23,-86,-39,35
535,4351,-3,-474,-4556,23,-86,-39,35
536,4351,0,-475,-4556,23,-87,-39,35
537,4349,2,-473,-4555,23,-87,-40,35
538,4348,0,-470,-4555,23,-87,-40,35
539,4347,1,-472,-4554,23,-87,-40,34
540,4350,0,-472,-4555,23,-87,-39,35
541,4351,0,-472,-4556,23,-87,-38,35
542,4354,-2,-476,-4556,23,-87,-38,36
543,4351,-1,-476,-4555,23,-87,-38,36
544,4349,-3,-477,-4555,23,-87,-38,36
545,4351,-1,-477,-4555,23,-87,-38,35
546,4353,0,-473,-4556,23,-87,-39,35
547,4352,-2,-474,-4556,23,-87,-39,35
548,4353,-3,-472,-4557,23,-87,-39,34
549,4354,-2,-474,-4556,23,-87,-39,34
550,4352,0,-475,-4557,23,-87,-40,34
551,4353,3,-478,-4556,23,-87,-40,35
552,4351,-1,-477,-4555,23,-87,-40,35
553,4349,-3,-477,-4556,23,-87,-40,34
554,4352,-1,-480,-4557,23,-87,-40,34
555,4351,1,-478,-4558,23,-87,-40,34
556,4355,1,-476,-4558,23,-87,-39,34
557,4355,3,-473,-4557,23,-87,-39,34
558,4355,0,-472,-4556,23,-87,-39,34
559,4356,-1,-473,-4556,23,-86,-39,34
560,4354,1,-475,-4555,23,-86,-39,34
561,4355,0,-478,-4554,23,-86,-39,34
562,4356,2,-478,-4553,23,-86,-39,35
563,4355,2,-480,-4555,23,-87,-39,35
564,4355,2,-476,-4555,23,-87,-39,35
565,4353,1,-477,-4556,23,-87,-38,34
566,4353,-1,-477,-4557,23,-87,-38,34
567,4352,-5,-475,-4556,23,-87,-39,35
568,4350,-4,-477,-4556,23,-87,-39,34
569,4350,-5,-480,-4556,23,-87,-38,34
570,4351,-6,-479,-4556,23,-87,-39,35
571,4353,-3,-476,-4556,23,-87,-39,34
572,4354,-2,-478,-4557,23,-87,-39,35
573,4355,-4,-479,-4557,23,-87,-39,35
574,4352,-3,-478,-4558,23,-87,-39,35
575,4353,-3,-475,-4557,23,-87,-39,35
576,4352,-3,-478,-4558,23,-87,-39,35
577,4352,-3,-476,-4558,23,-87,-39,35
578,4352,-3,-474,-4555,23,-87,-39,35
579,4352,1,-475,-4554,23,-87,-39,36
580,4351,3,-473,-4552,23,-87,-39,35
581,4353,2,-473,-4551,23,-87,-39,35
582,4353,2,-475,-4551,23,-87,-39,35
583,4357,0,-476,-4552,23,-87,-39,35
584,4357,-2,-480,-4553,23,-87,-39,35
585,4356,-1,-483,-4554,23,-87,-39,35
586,4354,-2,-479,-4552,23,-87,-39,35
587,4352,-1,-479,-4551,23,-87,-39,34
588,4352,-2,-478,-4553,23,-87,-39,35
589,4352,0,-477,-4553,23,-87,-39,35
590,4351,0,-472,-4553,23,-87,-39,35
591,4353,-1,-472,-4553,23,-87,-39,35
592,4352,-2,-471,-4554,23,-88,-39,36
593,4350,-3,-476,-4552,23,-87,-39,35
594,4350,-3,-481,-4552,23,-87,-39,35
595,4349,-4,-486,-4551,23,-87,-38,36
596,4348,-4,-484,-4554,23,-87,-38,36
597,4347,-3,-483,-4555,23,-86,-39,36
598,4346,0,-481,-4554,23,-86,-39,36
599,4347,1,-483,-4555,23,-87,-38,35
600,4348,0,-477,-4552,23,-87,-38,35
601,4350,1,-474,-4552,23,-87,-38,36
602,4351,0,-473,-4553,23,-87,-39,36
603,4352,1,-474,-4553,23,-86,-38,36
604,4354,0,-477,-4553,23,-86,-38,36
605,4354,-2,-479,-4554,23,-87,-38,36
606,4354,0,-477,-4554,23,-87,-38,35
607,4355,0,-479,-4553,23,-87,-39,35
608,4351,0,-480,-4553,23,-87,-39,35
609,4354,-3,-481,-4554,23,-87,-39,35
610,4354,-5,-482,-4554,23,-87,-39,36
611,4351,-5,-481,-4553,23,-87,-39,35
612,4353,-4,-483,-4553,23,-87,-39,36
613,4354,-6,-482,-4552,23,-87,-39,36
614,4354,-6,-483,-4552,23,-87,-39,35
615,4352,-5,-485,-4553,23,-87,-39,36
616,4352,-7,-483,-4553,23,-88,-39,36
617,4355,-5,-483,-4555,23,-88,-39,35
618,4354,-5,-482,-4554,23,-88,-39,35
619,4354,-6,-485,-4554,23,-88,-39,35
620,4354,-4,-483,-4554,23,-88,-39,35
621,4354,-2,-480,-4554,23,-88,-39,35
622,4354,-4,-482,-4554,23,-87,-39,35
623,4355,-6,-480,-4555,23,-87,-39,34
624,4354,-5,-482,-4557,23,-86,-39,34
625,4353,-3,-483,-4558,23,-87,-39,35
626,4354,0,-482,-4557,23,-87,-39,35
627,4354,-1,-485,-4556,23,-87,-39,35
628,4354,-2,-483,-4557,23,-87,-39,35
629,4354,0,-484,-4555,23,-87,-40,35
630,4354,-2,-484,-4556,23,-87,-39,35
631,4357,-3,-483,-4556,23,-86,-39,35
632,4358,-2,-486,-4555,23,-87,-39,35
633,4358,-2,-485,-4556,23,-87,-39,34
634,4358,-2,-485,-4556,23,-86,-39,35
635,4356,-2,-482,-4556,23,-86,-39,35
636,4355,-4,-481,-4556,23,-86,-39,35
637,4352,-2,-484,-4557,23,-86,-39,35
638,4351,-1,-485,-4558,23,-87,-38,35
639,4350,0,-480,-4558,23,-87,-38,35
640,4353,-1,-480,-4558,23,-86,-39,35
641,4353,-1,-478,-4557,23,-87,-39,34
642,4353,-2,-479,-4557,23,-86,-39,34
643,4354,-2,-477,-4558,23,-86,-39,34
644,4350,-2,-479,-4557,23,-87,-39,34
645,4349,-1,-478,-4556,23,-87,-39,34
646,4349,0,-475,-4554,23,-87,-39,34
647,4347,-1,-478,-4554,23,-87,-39,34
648,4349,0,-476,-4554,23,-87,-38,34
649,4349,-1,-480,-4554,23,-87,-39,34
650,4349,-3,-480,-4553,23,-87,-39,34
651,4349,-1,-486,-4555,23,-87,-39,34
652,4351,0,-485,-4556,23,-87,-38,34
653,4350,-3,-483,-4556,23,-87,-39,35
654,4352,-2,-484,-4554,23,-87,-39,35
655,4353,-2,-482,-4554,23,-87,-39,35
656,4350,-1,-481,-4554,23,-87,-39,35
657,4350,-1,-484,-4555,23,-86,-39,35
658,4350,-3,-483,-4557,23,-86,-39,35
659,4348,-3,-482,-4558,23,-86,-39,35
660,4352,-5,-479,-4557,23,-86,-39,35
661,4352,-4,-478,-4556,23,-86,-39,35
662,4353,-1,-476,-4554,23,-87,-39,35
663,4355,1,-480,-4556,23,-87,-39,35
664,4353,-1,-485,-4555,23,-87,-39,35
665,4353,-4,-486,-4555,23,-86,-40,35
666,4356,-1,-487,-4555,23,-87,-39,35
667,4352,0,-482,-4554,23,-86,-39,36
668,4352,-1,-481,-4555,23,-86,-38,35
669,4352,-2,-481,-4557,23,-87,-39,35
670,4353,-3,-482,-4556,23,-87,-39,35
671,4354,-4,-483,-4555,23,-87,-39,35
672,4352,-3,-481,-4555,23,-87,-39,35
673,4353,0,-481,-4554,23,-87,-38,35
674,4351,0,-481,-4555,23,-87,-38,35
675,4354,1,-481,-4556,23,-87,-38,35
676,4354,0,-480,-4556,23,-87,-38,35
677,4352,1,-481,-4556,23,-87,-39,35
678,4354,0,-484,-4557,23,-87,-39,34
679,4353,1,-481,-4559,23,-87,-38,35
680,4351,-1,-481,-4559,23,-87,-39,35
681,4353,-1,-483,-4559,23,-88,-39,35
682,4351,-2,-484,-4558,23,-88,-39,35
683,4349,-3,-485,-4558,23,-87,-38,35
684,4348,-1,-484,-4557,23,-87,-38,35
685,4349,-3,-484,-4556,23,-88,-39,35
686,4352,-3,-481,-4556,23,-88,-39,35
687,4352,-4,-479,-4556,23,-88,-39,35
688,4351,-4,-479,-4555,23,-88,-39,35
689,4351,-2,-480,-4555,23,-88,-39,35
690,4350,-3,-477,-4555,23,-88,-40,35
691,4349,-2,-475,-4555,23,-87,-40,35
692,4352,-2,-478,-4556,23,-87,-39,35
693,4351,-1,-481,-4556,23,-87,-39,34
694,4352,-1,-481,-4553,23,-87,-39,35
695,4352,-4,-481,-4554,23,-87,-38,34
696,4351,-5,-481,-4553,23,-86,-39,35
697,4352,-4,-481,-4553,23,-87,-39,35
698,4350,-3,-479,-4554,23,-87,-39,34
699,4351,-2,-478,-4553,23,-87,-39,34
700,4350,-1,-481,-4554,23,-87,-39,35
701,4349,1,-481,-4552,23,-87,-39,35
702,4351,0,-483,-4554,23,-87,-39,35
703,4353,-4,-485,-4554,23,-87,-39,35
704,4353,-1,-485,-4555,23,-86,-39,34
705,4354,-1,-483,-4556,23,-87,-39,34
706,4352,-4,-482,-4556,23,-87,-39,34
707,4353,-4,-482,-4555,23,-87,-38,34
708,4352,-3,-481,-4555,23,-87,-39,35
709,4352,-2,-480,-4555,23,-87,-39,34
710,4351,-4,-475,-4556,23,-87,-39,34
711,4351,-5,-472,-4556,23,-87,-39,35
712,4354,-4,-475,-4555,23,-87,-39,35
713,4356,-3,-479,-4556,23,-87,-39,35
714,4356,-3,-476,-4555,23,-87,-39,35
715,4353,-2,-476,-4555,23,-87,-39,35
716,4352,-4,-479,-4556,23,-87,-39,35
717,4351,-5,-482,-4556,23,-87,-39,35
718,4353,-7,-487,-4557,23,-87,-39,35
719,4355,-9,-480,-4557,23,-87,-39,35
720,4355,-8,-482,-4556,23,-87,-39,35
721,4356,-6,-480,-4558,23,-87,-39,35
722,4356,-5,-483,-4558,23,-87,-38,35
723,4356,-6,-483,-4557,23,-87,-38,35
724,4358,-6,-482,-4556,23,-87,-39,35
725,4358,-6,-483,-4554,23,-87,-38,35
726,4356,-6,-483,-4556,23,-87,-39,35
727,4354,-7,-482,-4554,23,-86,-39,35
728,4352,-5,-484,-4558,23,-86,-38,35
729,4353,-5,-482,-4557,23,-86,-39,35
730,4353,-3,-483,-4556,23,-86,-39,35
731,4353,-3,-479,-4556,23,-86,-38,35
732,4352,-2,-482,-4552,23,-87,-38,35
733,4353,-1,-483,-4553,23,-87,-38,35
734,4355,1,-480,-4556,23,-87,-39,35
735,4353,0,-481,-4557,23,-87,-39,36
736,4352,-1,-482,-4556,23,-86,-39,35
737,4355,-2,-481,-4557,23,-86,-39,35
738,4357,0,-482,-4557,23,-87,-39,35
739,4358,1,-482,-4556,23,-87,-39,35
740,4358,-2,-485,-4557,23,-87,-39,35
741,4354,-3,-485,-4555,23,-87,-39,35
742,4356,-1,-486,-4554,23,-87,-39,35
743,4354,-2,-484,-4554,23,-87,-39,36
744,4354,-2,-483,-4555,23,-87,-39,36
745,4355,-2,-482,-4554,23,-87,-38,36
746,4353,-2,-477,-4555,23,-87,-39,35
747,4349,-1,-474,-4555,23,-87,-38,35
748,4349,-2,-474,-4554,23,-87,-38,35
749,4349,-2,-475,-4553,23,-88,-38,35
750,4350,-3,-473,-4552,23,-88,-38,35
751,4352,-2,-476,-4553,23,-88,-38,35
752,4351,0,-476,-4554,23,-88,-38,35
753,4351,0,-477,-4555,23,-87,-38,35
754,4354,0,-480,-4553,23,-87,-39,35
755,4353,0,-477,-4554,23,-87,-39,35
756,4353,3,-477,-4553,23,-88,-39,35
757,4355,4,-475,-4552,23,-88,-39,35
758,4354,2,-477,-4553,23,-88,-39,35
759,4354,1,-479,-4552,23,-88,-39,35
760,4352,0,-480,-4553,23,-87,-38,35
761,4354,0,-477,-4555,23,-87,-39,35
762,4354,-1,-480,-4556,23,-87,-39,36
763,4355,0,-477,-4555,23,-87,-39,35
764,4354,-2,-476,-4555,23,-87,-40,35
765,4352,-1,-477,-4556,23,-87,-40,35
766,4354,0,-480,-4555,23,-87,-39,35
767,4355,0,-477,-4554,23,-88,-39,35
768,4356,0,-477,-4556,23,-87,-39,34
769,4357,-2,-475,-4555,23,-87,-39,34
770,4360,-1,-474,-4556,23,-87,-39,35
771,4360,-2,-476,-4557,23,-87,-39,35
772,4357,-1,-477,-4557,23,-87,-39,35
773,4356,-2,-476,-4554,23,-87,-39,35
774,4354,-1,-479,-4555,23,-87,-39,35
775,4354,0,-479,-4556,23,-87,-39,35
776,4352,1,-475,-4555,23,-88,-39,35
777,4353,-1,-475,-4554,23,-87,-39,35
778,4352,-4,-475,-4553,23,-87,-39,35
779,4352,-6,-479,-4555,23,-86,-38,35
780,4353,-6,-479,-4557,23,-87,-38,36
781,4353,-4,-477,-4558,23,-87,-39,35
782,4354,-4,-479,-4559,23,-87,-38,36
783,4355,-5,-478,-4558,23,-87,-38,36
784,4357,-6,-480,-4556,23,-87,-38,35
785,4354,-5,-481,-4556,23,-87,-38,35
786,4354,-5,-480,-4557,23,-87,-38,35
787,4353,-2,-479,-4558,23,-88,-38,35
788,4353,-5,-479,-4558,23,-88,-39,35
789,4354,-3,-478,-4556,23,-88,-38,35
790,4355,-4,-473,-4557,23,-88,-39,34
791,4357,-5,-475,-4556,23,-87,-39,34
792,4357,-3,-476,-4556,23,-87,-38,34
793,4358,-1,-475,-4557,23,-87,-38,34
794,4357,-2,-474,-4558,23,-87,-39,35
795,4355,0,-480,-4556,23,-87,-39,35
796,4354,-2,-488,-4555,23,-88,-39,35
797,4353,-1,-488,-4558,23,-88,-38,35
798,4351,0,-483,-4556,23,-88,-39,35
799,4352,0,-487,-4557,23,-87,-39,35
800,4351,0,-487,-4556,23,-87,-39,35
801,4352,0,-486,-4557,23,-87,-39,35
802,4350,1,-488,-4558,23,-87,-39,36
803,4348,-1,-486,-4556,23,-87,-38,35
804,4350,-1,-482,-4555,23,-87,-39,35
805,4353,-1,-479,-4554,23,-86,-39,35
806,4350,0,-481,-4556,23,-87,-39,35
807,4349,0,-481,-4557,23,-87,-39,35
808,4350,-2,-486,-4555,23,-87,-39,35
809,4351,-4,-484,-4554,23,-87,-40,35
810,4350,-3,-480,-4553,23,-87,-39,35
811,4351,-4,-479,-4554,23,-87,-39,35
812,4354,-4,-482,-4554,23,-87,-40,35
813,4354,-1,-484,-4556,23,-87,-39,35
814,4355,1,-485,-4556,23,-87,-39,35
815,4354,1,-483,-4555,23,-87,-39,34
816,4350,3,-480,-4556,23,-87,-39,34
817,4350,2,-477,-4554,23,-88,-38,35
818,4350,0,-479,-4554,23,-88,-38,35
819,4350,-1,-480,-4555,23,-88,-38,35
820,4353,-1,-479,-4555,23,-88,-38,35
821,4352,0,-481,-4553,23,-88,-38,35
822,4352,-3,-485,-4554,23,-88,-38,34
823,4353,-2,-484,-4555,23,-87,-39,35
824,4352,-3,-483,-4557,23,-87,-39,35
825,4354,-2,-480,-4556,23,-87,-40,35
826,4356,-1,-478,-4556,23,-87,-39,35
827,4356,-2,-478,-4556,23,-87,-39,35
828,4355,-1,-479,-4555,23,-87,-38,35
829,4355,0,-482,-4553,23,-87,-39,35
830,4355,2,-486,-4554,23,-87,-39,35
831,4354,1,-484,-4554,23,-87,-38,35
832,4354,2,-479,-4554,23,-87,-38,35
833,4353,2,-482,-4553,23,-87,-39,35
834,4353,1,-483,-4553,23,-87,-38,35
835,4351,1,-483,-4554,23,-87,-39,35
836,4355,-1,-481,-4554,23,-87,-39,35
837,4354,-2,-481,-4553,23,-87,-39,35
838,4352,-2,-479,-4554,23,-87,-39,35
839,4355,-1,-479,-4554,23,-87,-39,35
840,4354,-1,-480,-4555,23,-87,-39,35
841,4351,-1,-480,-4556,23,-87,-38,34
842,4353,-1,-485,-4554,23,-87,-38,35
843,4353,-1,-483,-4555,23,-87,-38,35
844,4353,1,-483,-4557,23,-87,-39,35
845,4355,1,-483,-4557,23,-87,-39,35
846,4357,0,-484,-4556,23,-87,-39,35
847,4356,1,-482,-4557,23,-87,-39,35
848,4355,2,-484,-4556,23,-87,-39,35
849,4354,-1,-483,-4557,23,-87,-39,35
850,4353,-3,-483,-4557,23,-87,-39,34
851,4354,-2,-480,-4557,23,-87,-39,35
852,4352,-3,-481,-4558,23,-87,-38,35
853,4354,-2,-480,-4558,23,-87,-38,35
854,4353,-1,-480,-4556,23,-87,-38,36
855,4352,-2,-479,-4556,23,-87,-38,36
856,4352,-4,-480,-4556,23,-87,-39,35
857,4350,-4,-482,-4556,23,-87,-38,35
858,4348,-4,-481,-4556,23,-87,-38,35
859,4350,-5,-484,-4555,23,-87,-39,35
860,4350,-5,-486,-4554,23,-87,-39,35
861,4350,-3,-482,-4556,23,-87,-39,35
862,4350,-1,-479,-4556,23,-87,-39,35
863,4350,-3,-480,-4555,23,-87,-39,35
864,4348,-2,-479,-4556,23,-87,-39,35
865,4348,-4,-476,-4556,23,-88,-39,35
866,4347,-2,-477,-4556,23,-87,-39,35
867,4350,0,-479,-4558,23,-87,-39,35
868,4353,0,-478,-4556,23,-87,-39,35
869,4353,1,-479,-4556,23,-87,-39,35
870,4352,0,-481,-4556,23,-87,-39,35
871,4353,1,-478,-4556,23,-87,-39,35
872,4351,-1,-477,-4555,23,-87,-39,35
873,4352,-1,-476,-4555,23,-87,-39,35
874,4351,0,-477,-4554,23,-87,-39,36
875,4351,-1,-475,-4556,23,-87,-39,36
876,4353,-2,-474,-4555,23,-87,-39,35
877,4353,-1,-476,-4553,23,-87,-39,35
878,4354,0,-477,-4553,23,-87,-39,35
879,4354,1,-481,-4553,23,-86,-39,35
880,4356,-1,-481,-4552,23,-87,-40,35
881,4355,-2,-480,-4553,23,-86,-40,35
882,4354,-2,-480,-4553,23,-87,-39,35
883,4354,-3,-478,-4554,23,-86,-39,35
884,4357,-3,-474,-4552,23,-87,-40,35
885,4355,-5,-476,-4555,23,-87,-40,35
886,4355,-3,-477,-4555,23,-87,-40,35
887,4354,-3,-479,-4555,23,-87,-40,36
888,4354,-3,-480,-4555,23,-87,-39,36
889,4355,-3,-479,-4553,23,-87,-39,36
890,4353,-4,-482,-4554,23,-86,-40,36
891,4355,-7,-477,-4554,23,-87,-40,35
892,4355,-8,-478,-4554,23,-87,-40,35
893,4357,-5,-477,-4554,23,-87,-40,35
894,4356,-5,-477,-4555,23,-87,-39,36
895,4356,-3,-477,-4553,23,-87,-39,35
896,4355,-3,-479,-4552,23,-86,-40,36
897,4353,-3,-478,-4554,23,-86,-39,36
898,4352,-2,-480,-4554,23,-86,-39,36
899,4352,-3,-479,-4552,23,-86,-38,36
900,4353,-5,-476,-4553,23,-86,-38,35
901,4351,-6,-478,-4552,23,-86,-38,35
902,4351,-5,-479,-4552,23,-86,-38,35
903,4350,-5,-475,-4555,23,-86,-39,35
904,4350,-3,-476,-4554,23,-87,-38,35
905,4351,-1,-478,-4553,23,-87,-38,35
906,4350,0,-477,-4552,23,-87,-39,35
907,4350,-1,-483,-4551,23,-87,-39,35
908,4352,-4,-481,-4552,23,-87,-39,35
909,4351,-3,-485,-4551,23,-87,-39,35
910,4349,-1,-483,-4551,23,-86,-39,35
911,4350,0,-480,-4552,23,-87,-39,35
912,4350,1,-483,-4552,23,-87,-39,36
913,4351,1,-483,-4552,23,-87,-40,35
914,4353,0,-484,-4553,23,-87,-40,35
915,4352,0,-485,-4552,23,-87,-40,35
916,4355,-3,-483,-4552,23,-87,-39,35
917,4356,-6,-484,-4552,23,-87,-39,35
918,4355,-2,-486,-4551,23,-87,-39,35
919,4353,-1,-490,-4553,23,-87,-40,35
920,4352,1,-487,-4553,23,-87,-39,35
921,4352,3,-488,-4553,23,-86,-39,34
922,4355,3,-488,-4553,23,-86,-39,35
923,4356,2,-484,-4552,23,-87,-39,35
924,4356,0,-480,-4553,23,-87,-39,35
925,4353,1,-478,-4552,23,-87,-39,35
926,4354,-1,-478,-4552,23,-87,-39,35
927,4356,-1,-480,-4553,23,-87,-39,35
928,4357,-3,-482,-4555,23,-87,-39,35
929,4357,-2,-484,-4555,23,-86,-39,35
930,4356,-1,-480,-4556,23,-87,-39,35
931,4354,-5,-482,-4554,23,-87,-39,35
932,4355,-4,-478,-4553,23,-88,-38,36
933,4354,-3,-482,-4554,23,-87,-38,35
934,4353,-4,-480,-4555,23,-87,-39,35
935,4355,-5,-480,-4556,23,-87,-39,35
936,4356,-5,-482,-4557,23,-87,-39,34
937,4356,-3,-479,-4557,23,-87,-38,34
938,4353,-4,-477,-4555,23,-87,-38,34
939,4351,-4,-478,-4554,23,-87,-39,34
940,4353,-4,-479,-4552,23,-87,-39,34
941,4353,-5,-479,-4552,23,-87,-38,34
942,4353,-5,-476,-4554,23,-87,-38,35
943,4355,-5,-474,-4554,23,-86,-37,34
944,4352,-4,-475,-4555,23,-87,-38,34
945,4352,-4,-471,-4554,23,-86,-38,34
946,4353,-4,-478,-4554,23,-87,-39,35
947,4354,-5,-479,-4552,23,-87,-38,35
948,4355,-3,-483,-4554,23,-86,-39,35
949,4355,-1,-483,-4551,23,-86,-39,35
950,4353,-2,-480,-4551,23,-86,-39,35
951,4353,0,-479,-4551,23,-86,-39,35
952,4355,0,-478,-4551,23,-87,-39,35
953,4355,0,-477,-4552,23,-86,-39,35
954,4354,-2,-482,-4554,23,-86,-39,35
955,4352,-2,-481,-4555,23,-86,-39,35
956,4352,-2,-479,-4554,23,-87,-39,35
957,4353,-3,-479,-4554,23,-87,-39,35
958,4352,-1,-479,-4554,23,-87,-39,35
959,4350,-2,-481,-4554,23,-87,-39,35
960,4353,0,-482,-4553,23,-87,-39,35
961,4352,0,-481,-4554,23,-87,-39,35
962,4351,2,-482,-4557,23,-87,-39,35
963,4352,3,-482,-4556,23,-87,-38,35
964,4351,2,-479,-4556,23,-87,-38,36
965,4350,-1,-480,-4557,23,-87,-38,36
966,4349,-1,-480,-4556,23,-87,-39,35
967,4350,-1,-479,-4557,23,-87,-39,35
968,4353,-4,-480,-4557,23,-87,-39,36
969,4354,-1,-481,-4555,23,-87,-40,35
970,4354,-2,-482,-4554,23,-87,-40,36
971,4355,-3,-482,-4555,23,-87,-40,35
972,4354,-1,-481,-4556,23,-87,-39,35
973,4354,-2,-481,-4557,23,-87,-39,35
974,4355,-1,-477,-4558,23,-87,-39,35
975,4352,-1,-480,-4555,23,-87,-38,35
976,4352,0,-482,-4556,23,-87,-38,35
977,4353,1,-479,-4554,23,-86,-38,35
978,4351,1,-483,-4555,23,-86,-38,35
979,4354,-1,-487,-4553,23,-86,-39,35
980,4354,1,-485,-4553,23,-86,-39,35
981,4355,1,-483,-4553,23,-87,-39,35
982,4354,0,-485,-4553,23,-87,-39,35
983,4353,1,-482,-4553,23,-87,-39,35
984,4353,1,-481,-4554,23,-87,-39,35
985,4352,0,-480,-4553,23,-87,-39,36
986,4350,-1,-479,-4553,23,-87,-39,36
987,4352,-2,-475,-4554,23,-87,-38,35
988,4350,-5,-473,-4555,23,-87,-38,35
989,4351,-4,-472,-4556,23,-87,-37,35
990,4351,-3,-475,-4555,23,-87,-38,35
991,4350,-1,-482,-4555,23,-87,-38,35
992,4352,0,-484,-4555,23,-87,-39,35
993,4353,1,-484,-4556,23,-87,-39,35
994,4352,1,-481,-4556,23,-87,-39,35
995,4354,1,-480,-4557,23,-87,-39,35
996,4354,-2,-480,-4558,23,-87,-39,35
997,4357,-1,-485,-4554,23,-87,-38,36
998,4356,0,-484,-4554,23,-87,-39,36
