,acc_X,acc_Y,acc_Z,temp,tempC,gyr_X,gyr_Y,gyr_Z
0,17432,-10,-1904,-4588,23,-341,-159,141
1,17436,-18,-1894,-4587,23,-341,-158,141
2,17428,-14,-1884,-4585,23,-340,-159,141
3,17428,-24,-1890,-4585,23,-342,-159,143
4,17422,-30,-1890,-4584,23,-343,-160,141
5,17420,-22,-1896,-4583,23,-339,-161,141
6,17418,-22,-1906,-4584,23,-341,-161,137
7,17422,-18,-1900,-4582,23,-342,-161,136
8,17424,-34,-1904,-4581,23,-341,-160,137
9,17410,-22,-1888,-4581,23,-344,-159,137
10,17406,-16,-1896,-4580,23,-343,-157,137
11,17408,-12,-1896,-4582,23,-342,-157,138
12,17408,-14,-1890,-4581,23,-341,-156,139
13,17406,-8,-1896,-4583,23,-342,-157,138
14,17414,-2,-1886,-4583,23,-345,-156,139
15,17412,-2,-1882,-4584,23,-345,-156,137
16,17398,0,-1884,-4581,23,-346,-156,139
17,17402,0,-1886,-4580,23,-345,-158,139
18,17400,-8,-1886,-4579,23,-345,-157,138
19,17408,-8,-1900,-4578,23,-344,-157,137
20,17416,-4,-1900,-4580,23,-344,-156,139
21,17408,-4,-1908,-4581,23,-344,-155,137
22,17410,-10,-1916,-4581,23,-341,-155,139
23,17402,-20,-1914,-4583,23,-340,-153,139
24,17392,-22,-1918,-4582,23,-340,-155,138
25,17400,-32,-1902,-4582,23,-339,-155,140
26,17400,-36,-1900,-4582,23,-340,-156,139
27,17394,-30,-1920,-4583,23,-342,-158,138
28,17404,-32,-1916,-4582,23,-343,-157,138
29,17412,-20,-1918,-4581,23,-344,-155,138
30,17414,-12,-1910,-4581,23,-344,-158,140
31,17416,-6,-1904,-4582,23,-344,-159,140
32,17414,-2,-1884,-4582,23,-343,-157,139
33,17416,-4,-1888,-4582,23,-343,-156,139
34,17414,-4,-1882,-4581,23,-340,-157,140
35,17418,-4,-1886,-4582,23,-341,-156,142
36,17418,-6,-1886,-4584,23,-341,-156,141
37,17414,-8,-1878,-4584,23,-342,-157,140
38,17416,-16,-1864,-4583,23,-343,-157,140
39,17408,-18,-1864,-4582,23,-343,-155,141
40,17420,-36,-1868,-4582,23,-343,-155,140
41,17410,-36,-1888,-4582,23,-342,-157,140
42,17414,-32,-1892,-4581,23,-342,-157,142
43,17412,-34,-1906,-4581,23,-340,-156,140
44,17424,-26,-1912,-4580,23,-340,-157,142
45,17418,-26,-1926,-4581,23,-340,-156,142
46,17410,-26,-1918,-4581,23,-339,-153,141
47,17414,-16,-1918,-4579,23,-340,-154,141
48,17414,-16,-1912,-4580,23,-341,-153,139
49,17410,-20,-1900,-4582,23,-343,-151,141
50,17414,-26,-1900,-4582,23,-345,-153,139
51,17416,-30,-1898,-4581,23,-343,-153,137
52,17418,-38,-1900,-4580,23,-341,-154,139
53,17418,-32,-1910,-4582,23,-341,-155,140
54,17416,-22,-1912,-4581,23,-343,-154,141
55,17418,-18,-1882,-4582,23,-342,-155,140
56,17416,-22,-1890,-4580,23,-345,-155,142
57,17402,-26,-1884,-4580,23,-344,-158,142
58,17406,-30,-1896,-4582,23,-345,-159,141
59,17412,-24,-1886,-4583,23,-342,-159,141
60,17410,-22,-1902,-4584,23,-341,-160,140
61,17408,-20,-1890,-4583,23,-339,-158,139
62,17408,-26,-1902,-4582,23,-338,-157,136
63,17404,-24,-1894,-4582,23,-340,-157,138
64,17404,-24,-1894,-4582,23,-340,-155,138
65,17402,-28,-1900,-4583,23,-341,-159,138
66,17410,-22,-1900,-4583,23,-344,-157,139
67,17412,-16,-1914,-4585,23,-342,-157,138
68,17412,-12,-1916,-4584,23,-342,-156,139
69,17412,-16,-1918,-4584,23,-341,-159,138
70,17416,-20,-1912,-4583,23,-337,-158,136
71,17416,-10,-1918,-4582,23,-340,-158,137
72,17414,-8,-1920,-4583,23,-340,-160,139
73,17418,-8,-1920,-4582,23,-341,-159,138
74,17420,-8,-1918,-4584,23,-342,-159,140
75,17420,-18,-1918,-4583,23,-340,-159,140
76,17418,-12,-1914,-4584,23,-343,-155,141
77,17424,-16,-1918,-4584,23,-343,-155,142
78,17420,-20,-1902,-4584,23,-341,-157,141
79,17402,-12,-1886,-4583,23,-342,-155,143
80,17400,-14,-1900,-4585,23,-341,-158,143
81,17400,-12,-1892,-4586,23,-339,-157,142
82,17398,-6,-1886,-4587,23,-338,-157,140
83,17408,-8,-1888,-4585,23,-337,-155,139
84,17404,-16,-1892,-4585,23,-338,-157,138
85,17406,-16,-1904,-4585,23,-338,-157,138
86,17412,-16,-1918,-4585,23,-339,-157,139
87,17422,-22,-1914,-4586,23,-342,-160,140
88,17412,-14,-1924,-4585,23,-342,-160,139
89,17414,-16,-1912,-4583,23,-342,-159,139
90,17418,-16,-1912,-4582,23,-341,-157,141
91,17426,-8,-1904,-4582,23,-342,-155,142
92,17422,-2,-1902,-4582,23,-343,-156,141
93,17426,8,-1916,-4584,23,-343,-155,140
94,17436,4,-1924,-4582,23,-344,-157,139
95,17426,-10,-1908,-4584,23,-343,-158,140
96,17428,-14,-1920,-4584,23,-344,-156,141
97,17428,-10,-1924,-4584,23,-344,-155,141
98,17416,-20,-1910,-4583,23,-342,-153,141
99,17424,-14,-1916,-4585,23,-342,-152,143
100,17416,-14,-1904,-4586,23,-342,-153,145
101,17414,-18,-1914,-4584,23,-341,-154,143
102,17428,-10,-1900,-4585,23,-342,-155,141
103,17420,-14,-1910,-4584,23,-344,-157,142
104,17404,-20,-1914,-4584,23,-346,-156,139
105,17396,-18,-1918,-4583,23,-346,-154,139
106,17398,-28,-1900,-4582,23,-343,-152,141
107,17394,-28,-1898,-4583,23,-344,-151,139
108,17402,-30,-1886,-4582,23,-344,-154,141
109,17400,-22,-1892,-4583,23,-344,-156,142
110,17398,-4,-1888,-4582,23,-344,-158,140
111,17404,2,-1888,-4582,23,-344,-157,140
112,17412,-12,-1896,-4582,23,-342,-157,139
113,17414,-24,-1900,-4582,23,-344,-158,139
114,17422,-24,-1906,-4585,23,-346,-161,138
115,17420,-32,-1912,-4584,23,-344,-159,135
116,17430,-22,-1922,-4582,23,-345,-159,138
117,17424,-16,-1924,-4582,23,-345,-155,138
118,17424,-16,-1940,-4583,23,-343,-155,136
119,17416,-6,-1932,-4583,23,-343,-153,137
120,17412,-10,-1932,-4582,23,-342,-154,138
121,17408,-16,-1938,-4580,23,-343,-156,138
122,17412,-14,-1924,-4579,23,-343,-155,140
123,17416,-18,-1932,-4581,23,-344,-154,138
124,17422,-18,-1910,-4582,23,-343,-156,140
125,17424,-18,-1894,-4583,23,-345,-159,139
126,17420,-16,-1910,-4585,23,-344,-158,141
127,17420,-16,-1912,-4586,23,-344,-160,141
128,17416,-16,-1912,-4586,23,-345,-161,142
129,17418,-18,-1908,-4586,23,-344,-159,143
130,17412,-26,-1904,-4586,23,-343,-157,143
131,17414,-24,-1904,-4586,23,-343,-158,143
132,17410,-22,-1904,-4587,23,-342,-155,139
133,17398,-18,-1900,-4585,23,-341,-157,137
134,17394,-16,-1906,-4585,23,-342,-155,135
135,17394,-18,-1892,-4585,23,-343,-155,137
136,17404,-24,-1890,-4585,23,-341,-155,136
137,17412,-24,-1898,-4584,23,-341,-156,135
138,17408,-24,-1918,-4583,23,-343,-159,138
139,17414,-22,-1928,-4584,23,-344,-159,138
140,17414,-24,-1932,-4583,23,-342,-161,139
141,17410,-24,-1938,-4583,23,-343,-157,139
142,17406,-28,-1938,-4583,23,-342,-158,136
143,17404,-30,-1924,-4584,23,-344,-156,136
144,17414,-26,-1908,-4584,23,-343,-159,136
145,17418,-20,-1916,-4584,23,-341,-156,137
146,17410,-20,-1918,-4585,23,-342,-156,140
147,17410,-20,-1912,-4583,23,-341,-154,138
148,17410,-22,-1922,-4583,23,-341,-157,141
149,17414,-18,-1912,-4584,23,-342,-152,142
150,17414,-20,-1904,-4585,23,-341,-151,140
151,17408,-16,-1892,-4585,23,-338,-152,141
152,17410,-12,-1880,-4586,23,-339,-152,142
153,17402,-16,-1882,-4585,23,-340,-151,141
154,17406,-24,-1872,-4583,23,-341,-155,141
155,17404,-26,-1874,-4582,23,-343,-156,140
156,17410,-28,-1882,-4583,23,-345,-157,139
157,17414,-20,-1872,-4586,23,-344,-159,139
158,17414,-26,-1884,-4587,23,-342,-161,140
159,17416,-26,-1890,-4586,23,-343,-158,140
160,17420,-16,-1900,-4586,23,-343,-156,138
161,17424,-20,-1888,-4587,23,-341,-157,136
162,17420,-14,-1882,-4584,23,-342,-159,137
163,17410,-26,-1890,-4585,23,-341,-158,136
164,17402,-22,-1894,-4583,23,-342,-160,138
165,17398,-22,-1904,-4586,23,-341,-159,134
166,17396,-18,-1910,-4584,23,-341,-158,134
167,17410,-14,-1900,-4584,23,-342,-158,134
168,17404,-16,-1912,-4582,23,-340,-157,133
169,17410,-24,-1930,-4582,23,-342,-156,133
170,17412,-16,-1934,-4583,23,-342,-155,135
171,17412,-24,-1934,-4584,23,-341,-156,136
172,17410,-16,-1904,-4585,23,-345,-157,137
173,17402,-12,-1898,-4585,23,-342,-158,136
174,17404,0,-1894,-4585,23,-340,-159,138
175,17410,2,-1892,-4585,23,-340,-157,138
176,17422,4,-1902,-4587,23,-340,-154,138
177,17418,-6,-1908,-4588,23,-341,-154,137
178,17424,-10,-1914,-4587,23,-341,-155,141
179,17416,-18,-1926,-4588,23,-343,-156,142
180,17428,-16,-1916,-4587,23,-342,-155,143
181,17424,-18,-1914,-4587,23,-344,-153,142
182,17424,-20,-1900,-4587,23,-344,-152,143
183,17412,-28,-1902,-4585,23,-342,-155,142
184,17418,-18,-1908,-4583,23,-345,-154,143
185,17410,-14,-1900,-4584,23,-344,-152,143
186,17400,-16,-1886,-4584,23,-344,-154,142
187,17406,-24,-1880,-4583,23,-342,-157,142
188,17412,-20,-1890,-4584,23,-342,-157,140
189,17400,-8,-1896,-4584,23,-344,-157,141
190,17406,-12,-1902,-4584,23,-341,-159,141
191,17408,-22,-1908,-4586,23,-340,-158,142
192,17404,-34,-1898,-4586,23,-342,-157,141
193,17406,-30,-1894,-4586,23,-340,-157,142
194,17404,-16,-1894,-4587,23,-342,-156,143
195,17400,-18,-1896,-4587,23,-341,-155,144
196,17408,-16,-1894,-4585,23,-339,-154,145
197,17408,-14,-1892,-4585,23,-340,-154,143
198,17406,-20,-1898,-4587,23,-341,-151,140
199,17408,-14,-1906,-4586,23,-342,-151,142
200,17404,-16,-1900,-4587,23,-340,-152,143
201,17402,-8,-1890,-4587,23,-343,-153,143
202,17398,-10,-1900,-4586,23,-341,-152,144
203,17402,-16,-1910,-4584,23,-343,-153,144
204,17404,-18,-1902,-4584,23,-342,-152,145
205,17400,-10,-1894,-4584,23,-341,-154,145
206,17402,-16,-1886,-4585,23,-339,-155,143
207,17410,-16,-1882,-4585,23,-341,-156,141
208,17414,-18,-1878,-4583,23,-341,-157,141
209,17412,-22,-1882,-4585,23,-341,-156,140
210,17406,-20,-1890,-4583,23,-340,-155,140
211,17414,-20,-1894,-4583,23,-342,-159,140
212,17406,-22,-1902,-4583,23,-341,-160,138
213,17402,-22,-1898,-4583,23,-342,-161,139
214,17396,-24,-1890,-4584,23,-342,-158,138
215,17406,-26,-1898,-4582,23,-341,-157,137
216,17418,-16,-1902,-4583,23,-343,-159,138
217,17420,-12,-1918,-4583,23,-341,-162,137
218,17412,-12,-1922,-4584,23,-343,-162,136
219,17404,-14,-1920,-4583,23,-345,-163,138
220,17402,-4,-1918,-4583,23,-344,-162,138
221,17404,-16,-1914,-4583,23,-343,-160,140
222,17402,-18,-1918,-4580,23,-341,-160,137
223,17398,-12,-1918,-4580,23,-342,-159,136
224,17400,-18,-1924,-4579,23,-344,-157,135
225,17390,-20,-1926,-4581,23,-346,-153,136
226,17400,-12,-1920,-4581,23,-343,-153,136
227,17398,-12,-1906,-4581,23,-343,-153,136
228,17400,-18,-1916,-4583,23,-344,-154,139
229,17392,-26,-1898,-4583,23,-344,-153,138
230,17402,-22,-1886,-4583,23,-342,-155,139
231,17398,-16,-1892,-4583,23,-342,-157,138
232,17396,-16,-1904,-4582,23,-340,-157,139
233,17396,-6,-1896,-4584,23,-342,-157,138
234,17414,-4,-1918,-4585,23,-340,-155,138
235,17414,0,-1914,-4585,23,-340,-154,138
236,17410,-10,-1922,-4586,23,-342,-152,139
237,17414,-14,-1902,-4586,23,-341,-155,138
238,17418,-22,-1910,-4585,23,-341,-154,139
239,17416,-14,-1906,-4585,23,-340,-156,140
240,17420,-12,-1914,-4584,23,-340,-155,142
241,17418,-8,-1916,-4585,23,-342,-154,141
242,17428,-8,-1904,-4586,23,-342,-155,140
243,17422,-6,-1904,-4584,23,-345,-155,141
244,17416,-10,-1888,-4583,23,-344,-156,142
245,17414,-10,-1884,-4583,23,-344,-156,140
246,17426,-8,-1874,-4585,23,-344,-157,138
247,17414,-6,-1888,-4586,23,-343,-157,140
248,17420,-2,-1912,-4585,23,-342,-155,136
249,17424,-12,-1908,-4585,23,-341,-155,137
250,17426,-18,-1910,-4586,23,-344,-153,138
251,17424,-20,-1908,-4583,23,-345,-156,140
252,17418,-18,-1902,-4583,23,-344,-159,141
253,17420,-22,-1906,-4583,23,-344,-155,141
254,17416,-30,-1920,-4585,23,-344,-156,142
255,17412,-34,-1924,-4584,23,-342,-156,142
256,17418,-34,-1916,-4584,23,-342,-155,142
257,17412,-26,-1920,-4584,23,-341,-154,142
258,17400,-26,-1908,-4583,23,-340,-157,143
259,17408,-26,-1914,-4583,23,-343,-157,141
260,17410,-24,-1922,-4582,23,-344,-159,142
261,17410,-20,-1926,-4583,23,-343,-158,143
262,17414,-24,-1920,-4583,23,-342,-157,142
263,17424,-24,-1906,-4582,23,-341,-156,140
264,17432,-30,-1908,-4582,23,-341,-157,141
265,17434,-30,-1906,-4581,23,-343,-157,142
266,17434,-18,-1908,-4583,23,-341,-157,143
267,17426,-22,-1906,-4584,23,-338,-157,142
268,17422,-16,-1904,-4584,23,-338,-157,142
269,17416,-20,-1900,-4584,23,-339,-161,142
270,17406,-30,-1896,-4583,23,-342,-157,142
271,17406,-32,-1900,-4584,23,-339,-158,140
272,17406,-32,-1902,-4585,23,-341,-155,138
273,17406,-32,-1912,-4585,23,-339,-157,139
274,17412,-26,-1926,-4586,23,-341,-155,141
275,17420,-24,-1926,-4586,23,-342,-156,140
276,17414,-28,-1922,-4585,23,-341,-155,142
277,17406,-34,-1924,-4586,23,-341,-153,140
278,17416,-28,-1914,-4585,23,-341,-153,141
279,17416,-26,-1912,-4584,23,-341,-153,139
280,17412,-16,-1900,-4582,23,-342,-153,138
281,17420,-12,-1884,-4583,23,-343,-154,136
282,17426,-8,-1886,-4583,23,-343,-155,137
283,17418,0,-1910,-4584,23,-346,-154,137
284,17420,6,-1900,-4584,23,-346,-155,136
285,17414,4,-1904,-4586,23,-344,-154,139
286,17412,-12,-1902,-4585,23,-343,-154,139
287,17404,-10,-1902,-4583,23,-344,-154,137
288,17406,-4,-1912,-4582,23,-342,-153,139
289,17402,-8,-1912,-4584,23,-341,-155,139
290,17408,-8,-1918,-4586,23,-342,-155,140
291,17406,-6,-1934,-4586,23,-342,-152,141
292,17412,-2,-1938,-4584,23,-343,-155,142
293,17410,-6,-1922,-4583,23,-343,-157,141
294,17402,-10,-1916,-4583,23,-343,-157,141
295,17400,-12,-1916,-4585,23,-341,-155,142
296,17408,-10,-1920,-4586,23,-339,-156,143
297,17416,-8,-1896,-4585,23,-340,-154,144
298,17424,-16,-1886,-4582,23,-341,-153,142
299,17422,-28,-1888,-4581,23,-342,-153,144
300,17424,-26,-1904,-4583,23,-342,-152,141
301,17418,-30,-1910,-4582,23,-343,-151,142
302,17410,-24,-1904,-4584,23,-341,-153,144
303,17412,-24,-1902,-4584,23,-341,-153,142
304,17404,-20,-1894,-4583,23,-339,-154,142
305,17412,-14,-1900,-4582,23,-339,-154,142
306,17412,-20,-1890,-4582,23,-341,-155,142
307,17404,-20,-1892,-4584,23,-342,-155,142
308,17402,-12,-1900,-4584,23,-341,-154,141
309,17398,-10,-1904,-4582,23,-339,-153,140
310,17406,-4,-1904,-4583,23,-339,-157,140
311,17416,-4,-1912,-4584,23,-341,-155,140
312,17422,-8,-1908,-4585,23,-342,-156,141
313,17424,-14,-1908,-4584,23,-342,-155,141
314,17416,-8,-1920,-4582,23,-341,-152,142
315,17416,-28,-1920,-4585,23,-341,-151,144
316,17420,-22,-1904,-4585,23,-343,-154,143
317,17414,-30,-1904,-4585,23,-344,-155,145
318,17408,-26,-1902,-4586,23,-341,-157,143
319,17418,-26,-1902,-4584,23,-343,-155,141
320,17418,-20,-1906,-4583,23,-343,-156,139
321,17414,-20,-1910,-4583,23,-344,-158,139
322,17412,-18,-1890,-4583,23,-342,-156,139
323,17416,-14,-1882,-4585,23,-342,-157,136
324,17416,-14,-1880,-4585,23,-342,-156,137
325,17412,-20,-1874,-4585,23,-342,-155,136
326,17412,-22,-1880,-4586,23,-343,-157,136
327,17406,-4,-1898,-4587,23,-345,-153,138
328,17408,-4,-1900,-4586,23,-344,-155,138
329,17398,-10,-1894,-4586,23,-344,-156,138
330,17408,-16,-1896,-4586,23,-344,-156,139
331,17412,-14,-1910,-4586,23,-342,-155,138
332,17410,-22,-1920,-4586,23,-342,-156,140
333,17400,-26,-1908,-4586,23,-341,-158,140
334,17398,-24,-1898,-4584,23,-341,-159,138
335,17392,-26,-1902,-4583,23,-341,-157,136
336,17396,-22,-1894,-4582,23,-343,-156,137
337,17408,-28,-1892,-4584,23,-346,-155,139
338,17418,-16,-1898,-4583,23,-345,-155,139
339,17406,-10,-1904,-4586,23,-344,-157,141
340,17398,-8,-1898,-4586,23,-343,-157,140
341,17404,-12,-1886,-4586,23,-343,-157,140
342,17398,-14,-1882,-4586,23,-343,-155,137
343,17392,-10,-1892,-4586,23,-343,-151,139
344,17394,-18,-1894,-4586,23,-341,-151,139
345,17394,-6,-1888,-4588,23,-343,-154,138
346,17408,-18,-1912,-4586,23,-342,-155,138
347,17406,-18,-1916,-4586,23,-341,-155,139
348,17398,-20,-1912,-4587,23,-343,-155,137
349,17394,-18,-1914,-4585,23,-341,-156,139
350,17396,-30,-1906,-4585,23,-342,-154,139
351,17394,-30,-1908,-4583,23,-343,-154,141
352,17394,-22,-1912,-4583,23,-343,-155,139
353,17404,-22,-1930,-4585,23,-343,-155,142
354,17406,-14,-1928,-4585,23,-344,-155,143
355,17402,-14,-1914,-4584,23,-343,-157,144
356,17406,-10,-1906,-4585,23,-343,-154,143
357,17404,-12,-1886,-4585,23,-345,-155,143
358,17406,-8,-1892,-4583,23,-344,-156,141
359,17400,-6,-1900,-4582,23,-345,-156,139
360,17400,-8,-1896,-4582,23,-345,-157,137
361,17400,-16,-1898,-4584,23,-344,-155,138
362,17404,-16,-1898,-4584,23,-345,-155,137
363,17408,-14,-1916,-4584,23,-345,-156,138
364,17418,-12,-1910,-4584,23,-343,-154,141
365,17430,-18,-1908,-4584,23,-343,-155,140
366,17422,-22,-1918,-4584,23,-344,-155,140
367,17422,-24,-1904,-4583,23,-342,-158,139
368,17422,-18,-1922,-4582,23,-343,-160,139
369,17422,-8,-1914,-4585,23,-343,-157,139
370,17410,-12,-1924,-4584,23,-339,-158,140
371,17410,-14,-1912,-4585,23,-339,-154,140
372,17412,-18,-1886,-4584,23,-341,-157,140
373,17418,-10,-1886,-4586,23,-342,-156,138
374,17420,-8,-1896,-4585,23,-341,-155,139
375,17424,-14,-1908,-4584,23,-341,-154,140
376,17422,-26,-1908,-4585,23,-344,-155,137
377,17414,-24,-1910,-4586,23,-344,-157,136
378,17422,-34,-1914,-4586,23,-345,-155,136
379,17416,-26,-1900,-4588,23,-343,-156,137
380,17408,-32,-1898,-4589,23,-341,-154,137
381,17418,-20,-1900,-4586,23,-340,-153,137
382,17412,-12,-1906,-4588,23,-340,-152,137
383,17414,-8,-1910,-4586,23,-342,-154,137
384,17418,-18,-1910,-4586,23,-341,-156,138
385,17414,-16,-1914,-4585,23,-343,-155,137
386,17408,-12,-1916,-4586,23,-343,-154,139
387,17388,-4,-1918,-4586,23,-343,-155,141
388,17388,4,-1906,-4586,23,-339,-155,139
389,17400,6,-1912,-4586,23,-342,-156,140
390,17402,-2,-1908,-4586,23,-342,-156,139
391,17402,-10,-1922,-4585,23,-340,-153,141
392,17400,-18,-1922,-4584,23,-338,-152,141
393,17402,-28,-1922,-4585,23,-341,-152,140
394,17396,-26,-1928,-4584,23,-341,-153,140
395,17406,-20,-1914,-4584,23,-340,-154,139
396,17402,-24,-1914,-4582,23,-342,-157,139
397,17402,-14,-1920,-4582,23,-342,-156,140
398,17400,-16,-1920,-4583,23,-342,-155,138
399,17408,-20,-1930,-4583,23,-343,-155,138
400,17410,-8,-1934,-4582,23,-342,-154,140
401,17408,-10,-1920,-4583,23,-342,-153,140
402,17408,-12,-1912,-4585,23,-341,-151,140
403,17418,-20,-1896,-4585,23,-342,-154,139
404,17412,-24,-1900,-4585,23,-340,-157,141
405,17412,-14,-1890,-4584,23,-341,-157,141
406,17418,-8,-1894,-4585,23,-341,-156,142
407,17414,-8,-1886,-4584,23,-342,-158,142
408,17418,-8,-1900,-4584,23,-342,-157,141
409,17418,-12,-1910,-4585,23,-345,-158,140
410,17424,-14,-1894,-4585,23,-343,-158,142
411,17424,-12,-1896,-4584,23,-342,-158,141
412,17418,-12,-1892,-4586,23,-342,-157,138
413,17418,-18,-1892,-4586,23,-343,-159,139
414,17428,-16,-1880,-4587,23,-344,-159,140
415,17422,-14,-1876,-4586,23,-344,-157,140
416,17420,-10,-1886,-4587,23,-343,-155,140
417,17414,-6,-1904,-4586,23,-340,-155,139
418,17420,-6,-1906,-4584,23,-339,-155,137
419,17422,-14,-1900,-4585,23,-342,-156,137
420,17414,-8,-1912,-4585,23,-340,-156,139
421,17418,-14,-1904,-4586,23,-341,-157,141
422,17422,-4,-1892,-4587,23,-340,-155,143
423,17414,-10,-1880,-4588,23,-340,-156,142
424,17406,-12,-1876,-4586,23,-340,-156,142
425,17410,-4,-1878,-4587,23,-342,-156,141
426,17416,-10,-1902,-4587,23,-346,-153,140
427,17410,-12,-1908,-4586,23,-347,-152,142
428,17418,-14,-1908,-4586,23,-343,-152,144
429,17420,-18,-1892,-4586,23,-342,-151,145
430,17410,-20,-1896,-4586,23,-345,-154,144
431,17412,-28,-1888,-4585,23,-343,-152,143
432,17422,-36,-1896,-4585,23,-344,-152,142
433,17420,-38,-1882,-4583,23,-343,-155,143
434,17428,-46,-1910,-4583,23,-344,-153,142
435,17420,-46,-1910,-4584,23,-346,-152,140
436,17420,-46,-1908,-4585,23,-345,-152,142
437,17424,-34,-1912,-4584,23,-345,-153,139
438,17416,-30,-1894,-4584,23,-345,-152,138
439,17412,-32,-1890,-4584,23,-345,-152,138
440,17412,-28,-1898,-4583,23,-346,-155,138
441,17408,-26,-1890,-4585,23,-347,-152,138
442,17406,-26,-1880,-4585,23,-347,-153,136
443,17388,-32,-1876,-4583,23,-346,-155,136
444,17402,-28,-1868,-4583,23,-346,-154,139
445,17410,-20,-1874,-4584,23,-345,-153,139
446,17408,-22,-1872,-4585,23,-344,-154,137
447,17408,-16,-1900,-4586,23,-342,-155,140
448,17408,-14,-1920,-4584,23,-341,-155,140
449,17402,-14,-1912,-4585,23,-342,-155,140
450,17404,-18,-1920,-4587,23,-343,-156,140
451,17404,-22,-1916,-4587,23,-342,-155,138
452,17402,-16,-1918,-4588,23,-343,-155,138
453,17404,-20,-1918,-4588,23,-343,-157,138
454,17414,-18,-1908,-4587,23,-343,-155,137
455,17418,-10,-1896,-4587,23,-342,-155,135
456,17426,-10,-1890,-4586,23,-344,-154,136
457,17422,-2,-1890,-4586,23,-344,-153,136
458,17418,-4,-1888,-4587,23,-345,-151,137
459,17420,-10,-1874,-4587,23,-345,-153,138
460,17410,-2,-1884,-4587,23,-343,-150,139
461,17406,-6,-1888,-4586,23,-342,-150,139
462,17400,-8,-1908,-4585,23,-341,-150,137
463,17408,-18,-1912,-4585,23,-342,-153,136
464,17408,-20,-1910,-4582,23,-341,-153,138
465,17408,-14,-1910,-4582,23,-343,-154,139
466,17420,-18,-1898,-4583,23,-342,-152,138
467,17422,-22,-1896,-4585,23,-345,-150,138
468,17420,-20,-1892,-4586,23,-344,-151,142
469,17420,-26,-1906,-4587,23,-342,-150,140
470,17418,-24,-1896,-4587,23,-343,-150,139
471,17426,-24,-1908,-4585,23,-343,-151,140
472,17418,-20,-1918,-4585,23,-340,-152,140
473,17412,-18,-1906,-4584,23,-339,-154,140
474,17416,-20,-1902,-4585,23,-339,-156,139
475,17418,-16,-1890,-4585,23,-339,-156,140
476,17426,-12,-1902,-4585,23,-339,-154,141
477,17426,-20,-1904,-4588,23,-340,-153,138
478,17422,-12,-1914,-4585,23,-341,-151,137
479,17416,-18,-1918,-4584,23,-343,-154,136
480,17424,-14,-1904,-4583,23,-340,-153,138
481,17420,-14,-1886,-4585,23,-339,-153,140
482,17424,-16,-1890,-4585,23,-338,-153,140
483,17416,-10,-1896,-4587,23,-339,-154,142
484,17410,-8,-1886,-4585,23,-342,-153,142
485,17410,0,-1882,-4585,23,-340,-154,141
486,17402,-8,-1892,-4586,23,-341,-157,140
487,17408,0,-1888,-4587,23,-342,-156,139
488,17404,-2,-1898,-4587,23,-345,-155,138
489,17412,-4,-1912,-4588,23,-345,-155,137
490,17414,-6,-1916,-4589,23,-345,-155,137
491,17404,-14,-1920,-4588,23,-346,-153,140
492,17398,-6,-1938,-4588,23,-343,-153,141
493,17402,-8,-1932,-4589,23,-343,-153,140
494,17406,-12,-1916,-4587,23,-343,-152,141
495,17418,-14,-1898,-4587,23,-344,-154,140
496,17412,-14,-1908,-4585,23,-342,-154,140
497,17410,-16,-1908,-4584,23,-342,-151,141
498,17416,-16,-1900,-4584,23,-343,-153,140
499,17412,-22,-1914,-4585,23,-343,-150,141
500,17406,-16,-1930,-4584,23,-343,-153,142
501,17394,-24,-1940,-4583,23,-343,-151,142
502,17404,-18,-1932,-4583,23,-344,-153,141
503,17400,-6,-1924,-4582,23,-344,-154,141
504,17398,-6,-1918,-4582,23,-341,-155,143
505,17402,-12,-1918,-4585,23,-342,-155,141
506,17408,-2,-1928,-4583,23,-339,-156,142
507,17410,-6,-1916,-4582,23,-339,-154,139
508,17418,-12,-1922,-4583,23,-337,-157,139
509,17420,-10,-1926,-4583,23,-339,-154,140
510,17428,-14,-1920,-4584,23,-341,-153,139
511,17426,-10,-1912,-4584,23,-342,-154,138
512,17414,-16,-1924,-4582,23,-340,-155,139
513,17418,-8,-1928,-4582,23,-341,-158,139
514,17418,-12,-1920,-4584,23,-341,-157,141
515,17422,-12,-1922,-4582,23,-343,-156,141
516,17416,-6,-1918,-4583,23,-344,-158,142
517,17420,-14,-1880,-4582,23,-343,-158,142
518,17418,-18,-1884,-4581,23,-343,-156,141
519,17414,-20,-1882,-4580,23,-342,-158,142
520,17422,-16,-1886,-4582,23,-342,-158,142
521,17418,-12,-1888,-4583,23,-340,-157,143
522,17416,-14,-1902,-4584,23,-341,-157,142
523,17410,-14,-1904,-4585,23,-340,-157,142
524,17404,-18,-1910,-4584,23,-342,-156,140
525,17412,-20,-1908,-4586,23,-342,-157,140
526,17420,-18,-1910,-4585,23,-343,-158,143
527,17424,-18,-1910,-4585,23,-344,-156,140
528,17418,-30,-1918,-4586,23,-342,-158,139
529,17410,-28,-1906,-4586,23,-343,-158,138
530,17408,-26,-1894,-4585,23,-344,-158,136
531,17408,-32,-1898,-4583,23,-347,-158,138
532,17422,-26,-1898,-4583,23,-345,-158,138
533,17418,-24,-1906,-4584,23,-345,-155,138
534,17410,-22,-1914,-4586,23,-346,-155,139
535,17420,-22,-1904,-4584,23,-345,-156,141
536,17414,-16,-1904,-4584,23,-343,-156,142
537,17408,-18,-1900,-4581,23,-341,-155,142
538,17410,-18,-1910,-4582,23,-342,-152,141
539,17416,-20,-1926,-4581,23,-344,-156,141
540,17422,-20,-1900,-4582,23,-344,-156,142
541,17416,-12,-1910,-4583,23,-343,-154,141
542,17418,-16,-1914,-4579,23,-343,-155,142
543,17424,-14,-1930,-4582,23,-344,-152,141
544,17426,-20,-1920,-4583,23,-347,-153,140
545,17418,-24,-1928,-4585,23,-347,-154,141
546,17406,-24,-1922,-4583,23,-347,-154,142
547,17410,-20,-1920,-4581,23,-344,-154,141
548,17414,-18,-1916,-4582,23,-344,-152,139
549,17410,-12,-1914,-4583,23,-344,-153,140
550,17404,-12,-1916,-4581,23,-345,-153,139
551,17412,-12,-1914,-4581,23,-345,-152,141
552,17402,-12,-1920,-4583,23,-348,-150,142
553,17396,-14,-1910,-4582,23,-348,-151,143
554,17396,-20,-1906,-4583,23,-349,-150,144
555,17394,-18,-1900,-4583,23,-348,-153,144
556,17382,-24,-1888,-4584,23,-346,-155,142
557,17394,-22,-1882,-4584,23,-346,-156,140
558,17402,-20,-1880,-4582,23,-345,-153,141
559,17404,-22,-1896,-4581,23,-344,-153,139
560,17402,-26,-1896,-4580,23,-339,-157,137
561,17404,-22,-1902,-4581,23,-341,-154,139
562,17412,-16,-1894,-4582,23,-344,-156,141
563,17412,-14,-1880,-4584,23,-342,-156,139
564,17408,-10,-1866,-4583,23,-342,-158,137
565,17412,-18,-1886,-4583,23,-342,-155,140
566,17410,-12,-1890,-4583,23,-340,-156,138
567,17410,-16,-1912,-4581,23,-340,-155,140
568,17406,-16,-1924,-4581,23,-341,-158,138
569,17410,-10,-1930,-4582,23,-342,-158,138
570,17404,-4,-1934,-4581,23,-341,-158,137
571,17402,-12,-1916,-4581,23,-342,-158,138
572,17408,-12,-1914,-4581,23,-343,-158,137
573,17410,-20,-1916,-4583,23,-344,-157,138
574,17412,-20,-1914,-4583,23,-344,-158,139
575,17414,-20,-1914,-4585,23,-342,-157,142
576,17400,-12,-1908,-4584,23,-342,-158,142
577,17406,-8,-1914,-4583,23,-341,-155,142
578,17410,-14,-1908,-4583,23,-341,-156,141
579,17410,-14,-1910,-4582,23,-342,-155,141
580,17408,-8,-1918,-4584,23,-343,-155,142
581,17410,-10,-1912,-4584,23,-343,-156,140
582,17412,-20,-1910,-4584,23,-342,-156,142
583,17412,-24,-1904,-4586,23,-341,-155,141
584,17418,-20,-1906,-4586,23,-340,-156,141
585,17414,-16,-1914,-4584,23,-340,-156,142
586,17410,-26,-1898,-4584,23,-339,-156,143
587,17410,-22,-1892,-4585,23,-340,-154,144
588,17410,-18,-1898,-4583,23,-341,-153,142
589,17416,-14,-1888,-4584,23,-339,-153,142
590,17414,-24,-1894,-4583,23,-339,-152,140
591,17420,-22,-1902,-4584,23,-341,-153,140
592,17410,-24,-1916,-4585,23,-341,-155,140
593,17408,-24,-1900,-4584,23,-343,-155,141
594,17406,-10,-1906,-4584,23,-343,-154,140
595,17402,-12,-1894,-4584,23,-344,-154,141
596,17404,-20,-1888,-4585,23,-342,-154,141
597,17408,-14,-1892,-4585,23,-343,-155,141
598,17402,-26,-1894,-4585,23,-344,-153,141
599,17408,-20,-1908,-4584,23,-343,-154,141
600,17410,-12,-1920,-4584,23,-343,-157,141
601,17412,-18,-1936,-4584,23,-344,-157,140
602,17418,-24,-1934,-4586,23,-345,-156,141
603,17426,-16,-1930,-4586,23,-345,-154,142
604,17420,-18,-1924,-4588,23,-345,-154,141
605,17416,-12,-1920,-4587,23,-345,-155,142
606,17422,-14,-1912,-4586,23,-343,-154,142
607,17418,-8,-1908,-4586,23,-341,-154,143
608,17416,-14,-1912,-4586,23,-341,-153,143
609,17416,-16,-1910,-4586,23,-344,-152,143
610,17426,-18,-1900,-4586,23,-344,-154,142
611,17428,-22,-1902,-4587,23,-344,-154,142
612,17420,-24,-1908,-4586,23,-344,-154,139
613,17424,-18,-1898,-4585,23,-346,-153,139
614,17414,-16,-1892,-4585,23,-344,-155,139
615,17414,-30,-1898,-4586,23,-344,-155,139
616,17410,-16,-1892,-4588,23,-344,-155,139
617,17418,-2,-1896,-4588,23,-344,-156,138
618,17410,-2,-1894,-4588,23,-343,-157,136
619,17412,-2,-1890,-4589,23,-342,-156,139
620,17406,0,-1896,-4588,23,-341,-157,138
621,17414,-2,-1908,-4587,23,-341,-156,138
622,17404,-10,-1896,-4586,23,-340,-155,138
623,17414,-16,-1902,-4586,23,-340,-155,136
624,17408,-12,-1900,-4585,23,-340,-157,139
625,17406,-6,-1898,-4586,23,-341,-158,139
626,17408,-22,-1890,-4585,23,-343,-158,139
627,17402,-24,-1880,-4586,23,-345,-160,140
628,17408,-22,-1894,-4583,23,-344,-160,141
629,17406,-14,-1904,-4582,23,-342,-156,140
630,17396,-14,-1898,-4582,23,-341,-155,140
631,17394,-26,-1890,-4581,23,-341,-155,139
632,17402,-26,-1896,-4582,23,-340,-157,138
633,17406,-28,-1906,-4583,23,-342,-156,138
634,17408,-30,-1900,-4583,23,-343,-154,140
635,17408,-24,-1898,-4581,23,-342,-156,141
636,17416,-26,-1906,-4582,23,-341,-152,140
637,17428,-28,-1902,-4583,23,-340,-153,140
638,17414,-32,-1912,-4584,23,-341,-157,138
639,17418,-34,-1898,-4584,23,-339,-157,137
640,17418,-32,-1904,-4586,23,-340,-157,137
641,17414,-30,-1898,-4586,23,-340,-156,138
642,17414,-24,-1894,-4584,23,-340,-156,141
643,17414,-28,-1910,-4587,23,-344,-155,142
644,17412,-20,-1916,-4585,23,-344,-158,140
645,17410,-18,-1910,-4585,23,-344,-157,139
646,17414,-16,-1916,-4585,23,-342,-156,138
647,17408,-16,-1916,-4587,23,-343,-157,139
648,17414,-10,-1916,-4588,23,-344,-156,139
649,17408,-12,-1908,-4589,23,-344,-157,139
650,17412,-10,-1910,-4588,23,-344,-158,140
651,17422,-8,-1918,-4588,23,-346,-157,140
652,17416,-2,-1920,-4588,23,-346,-156,139
653,17412,-10,-1910,-4588,23,-346,-155,139
654,17412,-12,-1908,-4587,23,-344,-155,138
655,17410,-18,-1912,-4587,23,-343,-154,137
656,17416,-20,-1920,-4587,23,-343,-158,138
657,17404,-16,-1926,-4589,23,-344,-154,139
658,17406,-8,-1928,-4588,23,-344,-155,142
659,17412,-12,-1926,-4587,23,-345,-152,143
660,17412,-18,-1924,-4586,23,-346,-156,142
661,17414,-14,-1932,-4583,23,-345,-156,141
662,17420,-20,-1926,-4582,23,-343,-156,142
663,17422,-10,-1912,-4583,23,-346,-156,142
664,17420,-18,-1908,-4584,23,-346,-157,141
665,17420,-8,-1906,-4584,23,-346,-158,139
666,17408,2,-1912,-4585,23,-345,-158,138
667,17404,-4,-1910,-4585,23,-347,-157,142
668,17404,-12,-1924,-4587,23,-345,-159,140
669,17404,-20,-1918,-4587,23,-344,-159,142
670,17410,-22,-1908,-4583,23,-345,-157,141
671,17410,-18,-1922,-4582,23,-344,-157,141
672,17408,-10,-1922,-4583,23,-343,-156,143
673,17406,-16,-1916,-4583,23,-344,-155,143
674,17406,-18,-1910,-4584,23,-346,-156,142
675,17400,-12,-1898,-4583,23,-344,-156,140
676,17404,-4,-1910,-4583,23,-344,-157,140
677,17400,0,-1904,-4584,23,-344,-156,139
678,17404,-2,-1906,-4585,23,-342,-155,137
679,17412,-4,-1918,-4584,23,-342,-153,137
680,17410,-12,-1918,-4584,23,-341,-154,139
681,17414,-16,-1920,-4583,23,-343,-159,139
682,17414,-10,-1904,-4585,23,-342,-157,139
683,17414,-8,-1898,-4585,23,-344,-159,137
684,17416,-6,-1896,-4582,23,-344,-158,135
685,17404,-6,-1892,-4583,23,-343,-158,135
686,17394,-6,-1894,-4584,23,-344,-159,137
687,17392,-10,-1898,-4583,23,-343,-160,138
688,17400,-10,-1900,-4584,23,-343,-159,137
689,17410,-18,-1900,-4585,23,-342,-160,137
690,17418,-12,-1890,-4583,23,-340,-159,137
691,17422,-8,-1894,-4583,23,-342,-157,138
692,17418,-6,-1880,-4584,23,-343,-153,137
693,17418,-12,-1894,-4583,23,-345,-153,138
694,17420,-10,-1908,-4584,23,-345,-152,138
695,17424,-4,-1906,-4583,23,-344,-153,138
696,17424,-2,-1896,-4582,23,-342,-152,137
697,17424,-2,-1888,-4584,23,-342,-153,140
698,17428,-8,-1892,-4584,23,-342,-154,142
699,17418,-12,-1898,-4584,23,-341,-154,142
700,17412,-22,-1908,-4583,23,-342,-153,141
701,17410,-14,-1888,-4583,23,-344,-154,141
702,17420,-10,-1878,-4583,23,-343,-155,139
703,17416,-10,-1882,-4581,23,-343,-154,142
704,17406,-12,-1874,-4579,23,-343,-156,142
705,17400,-16,-1886,-4578,23,-341,-155,141
706,17400,-10,-1902,-4580,23,-341,-154,142
707,17402,-12,-1898,-4582,23,-339,-158,143
708,17410,-6,-1908,-4585,23,-340,-157,142
709,17408,-10,-1904,-4585,23,-341,-155,143
710,17404,-12,-1896,-4585,23,-340,-156,142
711,17400,-14,-1920,-4584,23,-339,-156,142
712,17400,-16,-1922,-4584,23,-341,-156,142
713,17394,-14,-1908,-4585,23,-342,-157,141
714,17414,-8,-1906,-4584,23,-342,-157,139
715,17404,-6,-1906,-4583,23,-343,-157,140
716,17396,-10,-1912,-4584,23,-341,-159,142
717,17402,-12,-1896,-4584,23,-341,-159,142
718,17402,-14,-1892,-4584,23,-341,-160,141
719,17400,-16,-1910,-4584,23,-342,-160,142
720,17402,-18,-1900,-4583,23,-343,-158,142
721,17404,-12,-1892,-4583,23,-344,-157,143
722,17400,-16,-1914,-4583,23,-346,-157,140
723,17400,-18,-1908,-4583,23,-345,-155,141
724,17406,-18,-1910,-4585,23,-345,-156,143
725,17408,-18,-1912,-4586,23,-346,-155,142
726,17400,-14,-1898,-4586,23,-344,-154,143
727,17406,-12,-1906,-4587,23,-342,-155,141
728,17400,-16,-1910,-4586,23,-341,-155,138
729,17406,-22,-1908,-4586,23,-341,-155,139
730,17410,-20,-1908,-4585,23,-340,-155,140
731,17414,-20,-1908,-4585,23,-339,-155,138
732,17420,-16,-1902,-4585,23,-338,-155,140
733,17418,-16,-1902,-4585,23,-339,-154,140
734,17412,-14,-1894,-4585,23,-340,-154,139
735,17414,-12,-1906,-4584,23,-341,-154,139
736,17420,-10,-1902,-4584,23,-341,-152,140
737,17416,-12,-1902,-4584,23,-344,-151,140
738,17412,-20,-1896,-4584,23,-346,-153,139
739,17406,-18,-1900,-4584,23,-345,-154,140
740,17408,-6,-1902,-4583,23,-342,-156,141
741,17414,-4,-1916,-4582,23,-345,-155,142
742,17416,-12,-1916,-4581,23,-342,-155,141
743,17418,-14,-1916,-4581,23,-345,-157,142
744,17414,-10,-1906,-4584,23,-344,-154,139
745,17406,-12,-1912,-4584,23,-346,-154,140
746,17410,-4,-1922,-4584,23,-347,-152,141
747,17406,-2,-1920,-4585,23,-348,-148,141
748,17408,0,-1906,-4584,23,-345,-150,145
749,17420,-10,-1912,-4586,23,-344,-152,143
750,17410,-2,-1926,-4584,23,-344,-153,141
751,17408,6,-1936,-4584,23,-345,-154,141
752,17392,10,-1936,-4584,23,-343,-154,143
753,17394,12,-1926,-4585,23,-345,-156,143
754,17390,6,-1914,-4583,23,-345,-156,144
755,17400,0,-1916,-4585,23,-343,-156,144
756,17398,-10,-1918,-4585,23,-342,-154,143
757,17410,-16,-1916,-4582,23,-342,-155,143
758,17408,-16,-1910,-4582,23,-342,-155,142
759,17420,-24,-1910,-4583,23,-343,-157,140
760,17416,-24,-1898,-4584,23,-343,-155,140
761,17410,-22,-1894,-4583,23,-344,-156,141
762,17408,-12,-1912,-4584,23,-343,-154,140
763,17402,-14,-1920,-4586,23,-344,-156,141
764,17406,-10,-1918,-4585,23,-340,-155,141
765,17402,-16,-1922,-4586,23,-341,-157,139
766,17408,-10,-1916,-4587,23,-340,-158,138
767,17410,0,-1918,-4587,23,-343,-155,138
768,17412,-4,-1906,-4589,23,-343,-155,140
769,17408,4,-1896,-4589,23,-345,-156,140
770,17408,-4,-1894,-4588,23,-344,-155,139
771,17412,-4,-1910,-4587,23,-345,-153,141
772,17404,0,-1900,-4584,23,-345,-154,141
773,17402,2,-1876,-4584,23,-341,-154,141
774,17404,-4,-1882,-4583,23,-339,-153,140
775,17416,-6,-1876,-4583,23,-340,-152,139
776,17414,4,-1888,-4580,23,-342,-154,138
777,17422,-2,-1886,-4579,23,-339,-157,139
778,17420,-4,-1900,-4580,23,-339,-155,139
779,17420,-4,-1914,-4581,23,-340,-155,140
780,17420,-12,-1926,-4581,23,-340,-154,141
781,17412,-12,-1920,-4583,23,-340,-154,141
782,17420,-14,-1918,-4581,23,-339,-154,141
783,17414,-14,-1908,-4581,23,-339,-155,138
784,17418,-8,-1910,-4581,23,-341,-155,139
785,17406,-10,-1906,-4581,23,-342,-156,139
786,17414,-4,-1896,-4582,23,-342,-157,138
787,17420,-14,-1888,-4581,23,-343,-154,140
788,17428,-24,-1888,-4580,23,-341,-154,139
789,17414,-22,-1888,-4581,23,-337,-156,139
790,17406,-18,-1890,-4582,23,-338,-157,140
791,17406,-20,-1882,-4582,23,-340,-156,142
792,17402,-30,-1884,-4581,23,-340,-156,141
793,17404,-30,-1890,-4582,23,-342,-155,139
794,17406,-34,-1868,-4581,23,-342,-155,140
795,17408,-26,-1898,-4580,23,-342,-156,137
796,17406,-34,-1906,-4580,23,-340,-158,140
797,17406,-32,-1906,-4580,23,-342,-156,141
798,17408,-16,-1904,-4581,23,-341,-156,142
799,17408,-8,-1904,-4580,23,-341,-156,143
800,17408,-4,-1904,-4579,23,-342,-158,142
801,17406,-4,-1896,-4581,23,-342,-155,142
802,17402,-6,-1896,-4582,23,-341,-155,140
803,17410,-10,-1894,-4583,23,-345,-155,139
804,17422,-14,-1886,-4581,23,-344,-152,140
805,17420,-10,-1884,-4581,23,-342,-153,140
806,17426,-14,-1890,-4581,23,-339,-152,142
807,17426,-16,-1876,-4582,23,-341,-154,142
808,17422,-16,-1888,-4582,23,-342,-153,141
809,17418,-8,-1888,-4581,23,-344,-154,141
810,17400,-4,-1898,-4581,23,-343,-155,141
811,17402,-8,-1904,-4583,23,-344,-156,138
812,17406,-16,-1910,-4582,23,-346,-154,137
813,17400,-12,-1910,-4580,23,-344,-157,137
814,17406,-14,-1916,-4580,23,-344,-155,138
815,17410,-16,-1916,-4580,23,-343,-153,140
816,17412,-22,-1908,-4580,23,-342,-152,141
817,17410,-20,-1904,-4579,23,-343,-153,141
818,17410,-18,-1910,-4581,23,-342,-157,143
819,17408,-12,-1906,-4581,23,-344,-156,145
820,17406,-14,-1916,-4580,23,-344,-157,144
821,17408,-14,-1902,-4580,23,-344,-158,144
822,17410,-8,-1892,-4581,23,-343,-158,143
823,17406,-14,-1892,-4582,23,-343,-156,144
824,17414,-20,-1896,-4580,23,-342,-156,144
825,17408,-16,-1898,-4580,23,-342,-158,143
826,17412,-20,-1890,-4580,23,-339,-157,142
827,17416,-18,-1896,-4581,23,-339,-157,144
828,17422,-18,-1896,-4581,23,-339,-158,142
829,17416,-14,-1890,-4580,23,-338,-158,143
830,17418,-12,-1890,-4580,23,-340,-158,142
831,17424,-6,-1898,-4581,23,-338,-157,140
832,17410,-12,-1902,-4581,23,-340,-155,140
833,17416,-10,-1910,-4582,23,-339,-156,141
834,17416,-16,-1916,-4582,23,-341,-157,141
835,17418,-18,-1900,-4582,23,-343,-158,141
836,17420,-14,-1908,-4582,23,-342,-160,140
837,17412,-16,-1914,-4581,23,-344,-158,141
838,17418,-14,-1900,-4580,23,-346,-158,141
839,17420,-16,-1908,-4580,23,-347,-157,142
840,17414,-16,-1906,-4581,23,-346,-157,139
841,17412,-22,-1888,-4582,23,-344,-155,137
842,17408,-20,-1876,-4582,23,-343,-155,138
843,17416,-14,-1882,-4582,23,-343,-152,138
844,17412,-14,-1878,-4581,23,-344,-152,138
845,17412,-10,-1880,-4580,23,-343,-149,141
846,17402,-18,-1900,-4581,23,-342,-150,142
847,17406,-20,-1898,-4581,23,-342,-150,140
848,17416,-20,-1896,-4581,23,-344,-152,139
849,17412,-24,-1892,-4583,23,-344,-153,137
850,17414,-34,-1894,-4584,23,-343,-156,138
851,17420,-26,-1904,-4582,23,-343,-157,138
852,17424,-26,-1888,-4583,23,-344,-159,139
853,17424,-20,-1888,-4581,23,-344,-157,137
854,17418,-16,-1896,-4579,23,-345,-157,138
855,17428,-12,-1902,-4581,23,-345,-157,138
856,17422,-6,-1908,-4581,23,-345,-155,139
857,17418,-8,-1902,-4581,23,-345,-154,139
858,17408,-10,-1904,-4580,23,-343,-156,139
859,17404,-18,-1904,-4583,23,-345,-153,138
860,17404,-6,-1910,-4582,23,-344,-154,139
861,17400,-6,-1906,-4583,23,-344,-153,141
862,17402,-8,-1892,-4584,23,-346,-152,140
863,17412,-10,-1880,-4585,23,-342,-155,139
864,17412,-14,-1892,-4586,23,-342,-154,139
865,17410,-10,-1912,-4585,23,-343,-156,139
866,17410,-20,-1906,-4586,23,-341,-154,141
867,17416,-4,-1912,-4585,23,-342,-157,139
868,17416,-6,-1910,-4582,23,-341,-157,140
869,17418,-14,-1924,-4580,23,-343,-157,138
870,17422,-8,-1904,-4582,23,-346,-157,140
871,17408,-10,-1902,-4581,23,-344,-156,139
872,17406,-4,-1908,-4580,23,-342,-154,138
873,17418,-2,-1916,-4581,23,-342,-155,141
874,17412,-2,-1912,-4581,23,-342,-153,139
875,17410,2,-1906,-4581,23,-342,-152,141
876,17416,-2,-1908,-4582,23,-344,-152,141
877,17422,-16,-1900,-4582,23,-343,-155,140
878,17418,-10,-1896,-4581,23,-343,-156,140
879,17416,-16,-1892,-4581,23,-342,-157,139
880,17406,-8,-1898,-4581,23,-343,-153,139
881,17404,-10,-1882,-4581,23,-343,-152,140
882,17416,-8,-1880,-4582,23,-340,-154,140
883,17412,-8,-1888,-4581,23,-341,-155,140
884,17410,-12,-1888,-4582,23,-342,-154,138
885,17416,-16,-1896,-4583,23,-343,-152,140
886,17418,-12,-1906,-4582,23,-341,-154,140
887,17412,-10,-1900,-4582,23,-340,-155,139
888,17420,-8,-1918,-4581,23,-340,-156,141
889,17414,0,-1910,-4580,23,-340,-154,141
890,17412,-10,-1910,-4576,23,-341,-152,142
891,17420,-22,-1920,-4576,23,-343,-154,142
892,17410,-18,-1912,-4577,23,-343,-155,140
893,17398,-20,-1900,-4578,23,-343,-155,141
894,17390,-14,-1892,-4578,23,-342,-155,142
895,17392,-10,-1884,-4578,23,-343,-154,140
896,17406,-14,-1892,-4579,23,-344,-155,138
897,17416,-16,-1878,-4580,23,-346,-155,137
898,17418,-18,-1868,-4580,23,-345,-155,137
899,17414,-18,-1890,-4581,23,-344,-155,139
900,17418,-8,-1896,-4581,23,-344,-155,139
901,17418,-6,-1896,-4581,23,-341,-156,137
902,17416,-8,-1900,-4579,23,-342,-157,137
903,17422,-8,-1902,-4579,23,-343,-156,139
904,17418,-14,-1906,-4581,23,-345,-155,139
905,17412,-22,-1912,-4581,23,-343,-156,139
906,17408,-22,-1928,-4581,23,-341,-156,141
907,17400,-24,-1914,-4582,23,-341,-155,141
908,17406,-24,-1924,-4582,23,-339,-154,140
909,17414,-20,-1928,-4582,23,-339,-156,141
910,17406,-22,-1918,-4582,23,-339,-156,142
911,17402,-24,-1918,-4582,23,-339,-159,142
912,17404,-24,-1918,-4581,23,-341,-159,141
913,17416,-22,-1924,-4580,23,-342,-158,141
914,17418,-16,-1908,-4581,23,-342,-157,141
915,17416,-20,-1900,-4581,23,-340,-156,142
916,17412,-16,-1902,-4583,23,-341,-154,142
917,17406,-22,-1906,-4584,23,-341,-154,139
918,17404,-24,-1896,-4584,23,-342,-154,140
919,17400,-22,-1902,-4584,23,-344,-152,142
920,17402,-28,-1900,-4581,23,-344,-154,141
921,17402,-30,-1898,-4581,23,-343,-155,141
922,17398,-26,-1884,-4580,23,-343,-156,141
923,17392,-12,-1882,-4580,23,-342,-157,141
924,17396,-14,-1886,-4580,23,-342,-154,142
925,17402,-14,-1898,-4579,23,-345,-153,142
926,17396,-18,-1914,-4580,23,-344,-151,141
927,17396,-22,-1904,-4581,23,-344,-151,139
928,17408,-28,-1898,-4582,23,-346,-150,140
929,17402,-24,-1898,-4582,23,-343,-151,140
930,17402,-26,-1896,-4582,23,-344,-149,141
931,17408,-24,-1890,-4582,23,-344,-154,139
932,17412,-22,-1896,-4582,23,-344,-154,140
933,17416,-14,-1896,-4583,23,-344,-156,138
934,17420,-10,-1890,-4582,23,-343,-158,141
935,17412,-6,-1908,-4582,23,-341,-159,139
936,17404,-2,-1908,-4582,23,-341,-157,140
937,17402,-14,-1910,-4582,23,-341,-156,140
938,17414,-2,-1898,-4580,23,-341,-157,140
939,17410,-8,-1894,-4578,23,-342,-157,142
940,17410,0,-1900,-4578,23,-340,-159,143
941,17414,-6,-1918,-4580,23,-342,-158,142
942,17410,-6,-1924,-4580,23,-342,-158,143
943,17410,-12,-1934,-4579,23,-342,-158,143
944,17404,-18,-1924,-4581,23,-345,-155,143
945,17410,-20,-1924,-4583,23,-343,-154,142
946,17408,-26,-1936,-4583,23,-342,-150,143
947,17400,-24,-1938,-4584,23,-344,-150,141
948,17412,-26,-1920,-4583,23,-344,-152,140
949,17406,-24,-1900,-4583,23,-344,-153,140
950,17406,-22,-1890,-4582,23,-344,-155,141
951,17408,-26,-1882,-4582,23,-343,-157,141
952,17408,-20,-1884,-4581,23,-344,-158,141
953,17406,-20,-1892,-4582,23,-343,-157,141
954,17418,-22,-1892,-4583,23,-343,-156,141
955,17416,-18,-1906,-4581,23,-346,-155,140
956,17422,-16,-1914,-4581,23,-346,-157,141
957,17420,0,-1910,-4583,23,-345,-155,142
958,17428,-6,-1904,-4583,23,-345,-158,142
959,17422,-8,-1914,-4585,23,-345,-155,143
960,17408,-12,-1922,-4584,23,-344,-155,141
961,17416,-6,-1928,-4584,23,-344,-157,142
962,17416,-2,-1920,-4585,23,-342,-158,142
963,17414,2,-1924,-4586,23,-339,-156,143
964,17412,-6,-1926,-4586,23,-340,-156,143
965,17404,-6,-1916,-4587,23,-344,-156,145
966,17400,-14,-1916,-4585,23,-344,-154,141
967,17398,-12,-1908,-4584,23,-343,-153,143
968,17398,-12,-1894,-4586,23,-342,-153,142
969,17394,-6,-1892,-4586,23,-343,-154,142
970,17402,-16,-1878,-4585,23,-344,-156,141
971,17412,-18,-1890,-4585,23,-341,-156,141
972,17412,-8,-1896,-4583,23,-343,-155,140
973,17416,-20,-1894,-4582,23,-344,-155,139
974,17422,-22,-1884,-4584,23,-343,-155,138
975,17422,-22,-1886,-4583,23,-342,-153,137
976,17418,-32,-1904,-4584,23,-342,-154,139
977,17418,-22,-1910,-4583,23,-343,-154,141
978,17412,-22,-1902,-4584,23,-342,-153,139
979,17416,-22,-1902,-4583,23,-343,-151,138
980,17418,-22,-1890,-4583,23,-342,-153,139
981,17428,-18,-1872,-4584,23,-341,-154,141
982,17420,-26,-1888,-4585,23,-339,-157,139
983,17416,-24,-1890,-4583,23,-337,-153,139
984,17420,-26,-1886,-4583,23,-338,-154,138
985,17420,-18,-1888,-4583,23,-338,-153,138
986,17420,-18,-1888,-4582,23,-339,-155,140
987,17418,-14,-1890,-4582,23,-340,-154,139
988,17408,-12,-1896,-4581,23,-342,-152,140
989,17400,-18,-1888,-4582,23,-344,-152,139
990,17408,-16,-1888,-4582,23,-343,-154,139
991,17412,-14,-1896,-4580,23,-344,-152,141
992,17404,-8,-1900,-4579,23,-344,-152,142
993,17392,-6,-1898,-4579,23,-343,-151,141
994,17396,-8,-1906,-4580,23,-341,-153,139
995,17388,-14,-1896,-4580,23,-342,-151,139
996,17384,-16,-1898,-4580,23,-341,-153,140
997,17394,-12,-1902,-4582,23,-343,-152,139
998,17396,-16,-1902,-4581,23,-344,-153,140
