,acc_X,acc_Y,acc_Z,temp,tempC,gyr_X,gyr_Y,gyr_Z
0,2179,-3,-159,-4761,22,-44,-20,18
1,2181,-3,-159,-4762,22,-43,-20,17
2,2177,-3,-153,-4764,22,-43,-20,17
3,2177,0,-156,-4760,22,-43,-20,17
4,2174,3,-157,-4764,22,-43,-20,17
5,2177,0,-155,-4761,22,-43,-19,18
6,2177,-1,-159,-4764,22,-43,-20,18
7,2182,-1,-160,-4761,22,-44,-20,18
8,2183,-2,-159,-4761,22,-43,-20,17
9,2180,1,-158,-4764,22,-43,-20,18
10,2179,-1,-157,-4760,22,-43,-19,18
11,2183,1,-161,-4763,22,-43,-19,17
12,2179,0,-159,-4764,22,-44,-20,18
13,2180,0,-161,-4760,22,-43,-19,18
14,2181,0,-161,-4757,23,-44,-19,18
15,2180,0,-161,-4760,22,-43,-19,18
16,2178,-3,-163,-4761,22,-44,-20,18
17,2179,0,-169,-4761,22,-43,-19,18
18,2177,-1,-160,-4761,22,-43,-20,18
19,2178,1,-161,-4760,22,-43,-20,17
20,2180,4,-156,-4759,23,-43,-19,17
21,2182,1,-157,-4760,22,-43,-20,18
22,2178,-2,-163,-4762,22,-42,-19,17
23,2176,-3,-153,-4762,22,-43,-19,17
24,2180,-3,-162,-4762,22,-43,-19,17
25,2181,-3,-157,-4761,22,-43,-20,17
26,2176,0,-155,-4757,23,-44,-21,17
27,2176,-1,-160,-4758,23,-43,-20,17
28,2174,2,-158,-4758,23,-43,-20,18
29,2177,-2,-163,-4758,23,-43,-20,17
30,2181,0,-156,-4758,23,-43,-19,17
31,2177,0,-162,-4763,22,-43,-20,17
32,2179,2,-156,-4761,22,-43,-20,17
33,2180,0,-156,-4759,23,-44,-20,17
34,2181,-3,-156,-4760,22,-43,-20,18
35,2177,0,-160,-4758,23,-43,-20,18
36,2176,-1,-161,-4760,22,-43,-20,18
37,2178,-1,-166,-4760,22,-43,-20,18
38,2177,1,-167,-4758,23,-43,-19,17
39,2180,0,-156,-4754,23,-43,-19,18
40,2180,-1,-163,-4759,23,-43,-20,17
41,2177,0,-161,-4758,23,-43,-19,17
42,2178,1,-160,-4761,22,-43,-19,18
43,2178,2,-164,-4757,23,-43,-19,17
44,2178,2,-157,-4754,23,-43,-20,17
45,2179,-2,-163,-4757,23,-44,-20,17
46,2181,-1,-161,-4758,23,-43,-19,17
47,2178,4,-169,-4762,22,-43,-19,18
48,2183,1,-164,-4760,22,-43,-19,17
49,2185,1,-160,-4755,23,-43,-19,17
50,2182,-1,-160,-4759,23,-43,-19,17
51,2182,4,-163,-4759,23,-43,-19,17
52,2181,1,-159,-4757,23,-43,-19,18
53,2175,2,-162,-4757,23,-43,-20,17
54,2177,-2,-160,-4757,23,-44,-20,17
55,2178,-2,-161,-4763,22,-44,-20,17
56,2178,-5,-157,-4760,22,-43,-20,17
57,2177,-2,-163,-4754,23,-44,-19,17
58,2179,-1,-159,-4756,23,-43,-20,17
59,2178,-2,-163,-4755,23,-43,-20,17
60,2181,4,-160,-4755,23,-44,-19,17
61,2180,1,-163,-4755,23,-43,-20,17
62,2177,3,-160,-4754,23,-43,-20,17
63,2180,1,-160,-4753,23,-43,-19,17
64,2178,-1,-161,-4756,23,-43,-19,17
65,2179,1,-155,-4754,23,-43,-20,18
66,2178,-2,-158,-4757,23,-43,-20,17
67,2181,2,-157,-4749,23,-43,-19,17
68,2180,0,-157,-4751,23,-43,-20,17
69,2177,-2,-157,-4753,23,-44,-20,17
70,2175,-1,-155,-4760,22,-44,-19,18
71,2176,-4,-156,-4756,23,-43,-20,18
72,2177,0,-166,-4749,23,-43,-19,17
73,2177,-3,-159,-4757,23,-43,-19,17
74,2179,-5,-159,-4752,23,-42,-20,17
75,2180,-4,-161,-4757,23,-43,-19,17
76,2184,-2,-162,-4754,23,-43,-20,18
77,2185,-1,-161,-4757,23,-43,-19,17
78,2180,-1,-158,-4761,22,-44,-20,17
79,2182,2,-162,-4758,23,-44,-20,17
80,2181,0,-162,-4758,23,-43,-20,17
81,2180,0,-160,-4757,23,-43,-20,17
82,2178,1,-165,-4753,23,-44,-19,17
83,2177,-1,-161,-4754,23,-43,-20,17
84,2178,5,-160,-4752,23,-44,-20,17
85,2180,2,-163,-4755,23,-43,-19,17
86,2183,-2,-166,-4755,23,-43,-19,17
87,2180,-1,-159,-4757,23,-43,-19,17
88,2180,1,-163,-4757,23,-43,-19,18
89,2180,-1,-158,-4756,23,-42,-20,18
90,2178,1,-159,-4752,23,-43,-20,18
91,2179,-1,-158,-4754,23,-43,-20,17
92,2180,-3,-160,-4755,23,-43,-20,17
93,2179,2,-157,-4750,23,-43,-19,17
94,2181,1,-162,-4757,23,-43,-20,17
95,2178,1,-159,-4753,23,-43,-19,18
96,2175,-3,-158,-4754,23,-43,-19,17
97,2175,-1,-157,-4758,23,-43,-20,18
98,2178,1,-160,-4757,23,-43,-19,17
99,2174,1,-162,-4754,23,-43,-20,17
100,2178,0,-157,-4756,23,-43,-20,18
101,2176,-1,-158,-4755,23,-43,-20,18
102,2174,-1,-158,-4757,23,-43,-20,17
103,2176,-3,-160,-4755,23,-43,-19,17
104,2174,2,-156,-4755,23,-43,-20,17
105,2175,-1,-160,-4753,23,-43,-20,17
106,2180,4,-162,-4749,23,-42,-19,17
107,2177,3,-161,-4752,23,-42,-20,17
108,2178,1,-162,-4751,23,-43,-20,17
109,2176,0,-162,-4751,23,-43,-21,18
110,2176,-1,-159,-4751,23,-43,-20,17
111,2175,1,-157,-4754,23,-43,-19,17
112,2176,-1,-163,-4754,23,-42,-20,17
113,2175,0,-163,-4757,23,-43,-20,17
114,2174,-4,-164,-4756,23,-44,-19,18
115,2176,0,-158,-4759,23,-44,-19,18
116,2180,2,-159,-4752,23,-44,-20,19
117,2178,3,-158,-4754,23,-43,-19,17
118,2184,0,-161,-4753,23,-43,-20,17
119,2182,-1,-162,-4751,23,-43,-18,17
120,2179,1,-163,-4752,23,-44,-19,17
121,2176,4,-158,-4756,23,-44,-19,17
122,2178,2,-161,-4754,23,-44,-19,17
123,2175,4,-163,-4759,23,-44,-20,17
124,2177,0,-162,-4757,23,-43,-19,17
125,2180,-1,-160,-4755,23,-44,-20,17
126,2175,1,-162,-4756,23,-44,-19,17
127,2173,-1,-158,-4758,23,-44,-19,18
128,2181,0,-164,-4751,23,-44,-20,17
129,2180,-1,-153,-4753,23,-43,-20,17
130,2179,2,-155,-4755,23,-43,-20,17
131,2178,-2,-161,-4754,23,-43,-20,17
132,2180,-1,-158,-4758,23,-43,-19,18
133,2180,-3,-159,-4754,23,-44,-20,17
134,2182,-1,-162,-4754,23,-43,-19,18
135,2177,-3,-160,-4759,23,-43,-20,17
136,2181,-4,-157,-4760,22,-44,-20,18
137,2179,-1,-160,-4761,22,-44,-19,17
138,2178,0,-162,-4754,23,-43,-19,17
139,2176,0,-162,-4753,23,-44,-20,18
140,2177,2,-166,-4749,23,-44,-19,17
141,2177,3,-161,-4750,23,-43,-20,17
142,2178,2,-162,-4753,23,-43,-20,17
143,2178,5,-162,-4751,23,-43,-19,18
144,2179,4,-165,-4749,23,-44,-19,18
145,2178,1,-163,-4746,23,-43,-19,17
146,2178,0,-161,-4754,23,-44,-19,17
147,2176,1,-160,-4751,23,-43,-19,17
148,2176,-3,-164,-4752,23,-43,-20,17
149,2178,-4,-157,-4751,23,-44,-20,17
150,2182,0,-155,-4750,23,-43,-20,17
151,2180,0,-157,-4752,23,-43,-20,18
152,2176,-4,-158,-4755,23,-43,-20,18
153,2177,1,-159,-4753,23,-43,-19,17
154,2177,-2,-165,-4753,23,-43,-20,17
155,2180,2,-158,-4750,23,-43,-20,17
156,2181,2,-156,-4751,23,-44,-20,17
157,2179,-1,-160,-4747,23,-43,-20,17
158,2180,-3,-161,-4746,23,-42,-19,17
159,2178,1,-161,-4748,23,-42,-19,17
160,2175,2,-157,-4748,23,-43,-19,18
161,2177,3,-160,-4744,23,-43,-19,18
162,2176,1,-161,-4751,23,-43,-19,18
163,2179,-3,-161,-4751,23,-43,-19,17
164,2180,-3,-160,-4754,23,-43,-20,18
165,2180,-4,-157,-4754,23,-43,-20,18
166,2181,-2,-161,-4753,23,-43,-19,18
167,2180,-2,-159,-4755,23,-43,-19,18
168,2176,2,-163,-4754,23,-43,-20,17
169,2181,-2,-163,-4743,23,-43,-21,17
170,2179,-3,-162,-4749,23,-43,-19,18
171,2178,-3,-159,-4751,23,-43,-19,17
172,2177,-5,-160,-4749,23,-43,-19,17
173,2176,-1,-159,-4753,23,-43,-21,17
174,2182,2,-160,-4750,23,-43,-20,18
175,2179,-1,-161,-4753,23,-44,-20,17
176,2181,1,-159,-4752,23,-44,-19,18
177,2182,0,-164,-4749,23,-44,-18,18
178,2180,1,-157,-4750,23,-44,-19,17
179,2176,-2,-153,-4751,23,-43,-19,17
180,2179,-7,-152,-4750,23,-43,-20,17
181,2177,-2,-158,-4745,23,-43,-19,17
182,2178,-4,-161,-4756,23,-43,-19,18
183,2182,-1,-163,-4754,23,-43,-19,18
184,2178,-1,-157,-4747,23,-43,-20,18
185,2177,1,-158,-4746,23,-43,-19,17
186,2179,-3,-160,-4746,23,-43,-19,17
187,2176,1,-161,-4749,23,-44,-19,17
188,2175,0,-160,-4750,23,-44,-20,17
189,2176,-1,-158,-4749,23,-44,-19,17
190,2176,-5,-157,-4751,23,-44,-20,18
191,2174,1,-156,-4747,23,-44,-19,18
192,2177,-1,-165,-4746,23,-43,-20,17
193,2179,1,-162,-4744,23,-43,-19,17
194,2174,-1,-159,-4748,23,-43,-19,18
195,2180,-3,-160,-4749,23,-43,-20,18
196,2178,-1,-155,-4747,23,-43,-19,18
197,2176,0,-162,-4753,23,-43,-19,18
198,2176,-1,-167,-4754,23,-43,-19,17
199,2178,1,-161,-4752,23,-43,-19,17
200,2178,-2,-160,-4749,23,-43,-19,17
201,2180,0,-160,-4746,23,-44,-20,18
202,2178,3,-160,-4748,23,-44,-19,17
203,2178,-2,-158,-4747,23,-43,-19,17
204,2182,1,-159,-4748,23,-43,-20,17
205,2179,-5,-162,-4748,23,-43,-19,18
206,2178,-3,-158,-4750,23,-44,-20,16
207,2178,-2,-161,-4746,23,-44,-19,17
208,2181,2,-156,-4750,23,-43,-20,17
209,2178,2,-157,-4749,23,-43,-20,17
210,2175,2,-157,-4751,23,-44,-19,17
211,2175,0,-160,-4751,23,-43,-19,17
212,2175,-1,-165,-4749,23,-43,-18,17
213,2180,-2,-164,-4754,23,-44,-18,17
214,2179,-1,-159,-4753,23,-44,-19,17
215,2181,2,-157,-4749,23,-44,-18,18
216,2179,2,-161,-4751,23,-44,-19,17
217,2176,6,-162,-4752,23,-44,-20,17
218,2180,-2,-164,-4748,23,-44,-20,17
219,2176,-1,-163,-4747,23,-43,-19,17
220,2179,-4,-163,-4755,23,-43,-19,18
221,2180,-1,-160,-4751,23,-43,-19,18
222,2178,0,-154,-4749,23,-43,-19,18
223,2179,1,-155,-4749,23,-44,-19,18
224,2179,-1,-161,-4750,23,-42,-19,17
225,2180,1,-161,-4749,23,-43,-19,18
226,2181,-2,-161,-4751,23,-43,-19,17
227,2180,-3,-161,-4744,23,-43,-18,17
228,2181,-4,-161,-4747,23,-43,-20,17
229,2183,0,-163,-4749,23,-43,-19,17
230,2177,-3,-163,-4745,23,-43,-19,17
231,2178,1,-163,-4747,23,-43,-19,17
232,2177,0,-158,-4749,23,-44,-19,17
233,2180,0,-160,-4746,23,-44,-19,17
234,2178,0,-161,-4749,23,-43,-20,17
235,2180,-1,-156,-4747,23,-43,-20,18
236,2178,-2,-155,-4745,23,-43,-20,17
237,2178,0,-158,-4748,23,-43,-19,17
238,2175,1,-155,-4750,23,-43,-20,17
239,2177,4,-158,-4752,23,-44,-20,16
240,2174,0,-157,-4753,23,-43,-19,17
241,2175,-4,-155,-4752,23,-43,-20,18
242,2175,-3,-160,-4749,23,-43,-20,18
243,2177,-2,-164,-4746,23,-43,-19,18
244,2174,2,-160,-4743,23,-43,-19,18
245,2173,-1,-165,-4750,23,-43,-19,18
246,2178,4,-160,-4745,23,-43,-19,18
247,2179,-2,-165,-4749,23,-43,-19,17
248,2178,1,-165,-4752,23,-43,-19,18
249,2180,0,-166,-4747,23,-43,-20,17
250,2180,0,-161,-4750,23,-43,-19,18
251,2180,2,-162,-4747,23,-43,-19,17
252,2177,2,-167,-4754,23,-43,-19,17
253,2178,-1,-159,-4747,23,-43,-19,17
254,2178,-3,-155,-4749,23,-43,-19,18
255,2179,-5,-154,-4748,23,-43,-19,18
256,2177,-3,-160,-4748,23,-43,-19,17
257,2177,-3,-161,-4747,23,-43,-19,17
258,2178,-2,-159,-4745,23,-43,-20,17
259,2178,2,-161,-4742,23,-43,-20,17
260,2181,2,-160,-4744,23,-44,-20,17
261,2177,2,-160,-4749,23,-44,-20,17
262,2178,1,-164,-4743,23,-44,-20,17
263,2182,2,-161,-4749,23,-43,-19,17
264,2177,0,-158,-4755,23,-43,-20,17
265,2178,-3,-163,-4748,23,-42,-20,17
266,2179,0,-161,-4748,23,-43,-20,17
267,2176,1,-161,-4747,23,-43,-20,17
268,2179,1,-159,-4749,23,-44,-20,17
269,2179,-1,-157,-4744,23,-43,-20,18
270,2176,-2,-163,-4747,23,-44,-19,17
271,2176,-3,-165,-4745,23,-43,-19,18
272,2178,-3,-157,-4745,23,-43,-19,18
273,2182,0,-160,-4747,23,-42,-19,17
274,2180,-1,-158,-4749,23,-43,-19,17
275,2180,1,-160,-4747,23,-44,-20,17
276,2178,1,-161,-4745,23,-43,-20,17
277,2179,1,-156,-4743,23,-43,-20,17
278,2183,-1,-164,-4747,23,-43,-20,16
279,2182,0,-157,-4749,23,-43,-19,17
280,2179,0,-160,-4744,23,-43,-20,17
281,2181,1,-158,-4747,23,-44,-19,17
282,2184,-3,-161,-4747,23,-44,-19,17
283,2184,0,-159,-4747,23,-43,-20,17
284,2182,-2,-160,-4745,23,-44,-19,16
285,2177,0,-160,-4742,23,-43,-19,17
286,2176,-2,-157,-4743,23,-43,-19,17
287,2178,-1,-161,-4746,23,-43,-19,18
288,2181,-6,-158,-4746,23,-43,-19,18
289,2180,-3,-164,-4744,23,-43,-19,17
290,2180,2,-162,-4744,23,-43,-19,17
291,2179,-2,-164,-4748,23,-44,-20,18
292,2177,0,-163,-4744,23,-43,-20,18
293,2178,2,-158,-4742,23,-44,-20,18
294,2178,1,-154,-4745,23,-43,-20,18
295,2178,-2,-161,-4741,23,-43,-20,17
296,2177,1,-162,-4743,23,-43,-19,17
297,2177,-1,-162,-4743,23,-43,-20,17
298,2179,0,-165,-4745,23,-44,-20,17
299,2179,-2,-161,-4746,23,-43,-18,17
300,2180,-1,-154,-4745,23,-43,-18,17
301,2182,-4,-152,-4745,23,-43,-19,17
302,2179,-1,-154,-4742,23,-44,-19,18
303,2178,-1,-163,-4745,23,-43,-19,18
304,2181,-2,-164,-4749,23,-43,-20,18
305,2183,0,-155,-4748,23,-43,-19,18
306,2182,3,-160,-4748,23,-43,-20,18
307,2182,0,-162,-4748,23,-43,-20,17
308,2176,-1,-163,-4746,23,-43,-19,17
309,2181,-1,-162,-4744,23,-43,-20,17
310,2178,3,-162,-4748,23,-43,-20,18
311,2179,4,-160,-4745,23,-43,-20,17
312,2178,2,-163,-4743,23,-43,-20,17
313,2179,-1,-160,-4741,23,-43,-19,18
314,2176,1,-159,-4747,23,-44,-19,17
315,2174,0,-165,-4746,23,-44,-19,17
316,2176,-1,-160,-4742,23,-44,-20,16
317,2181,3,-166,-4748,23,-43,-20,18
318,2179,-2,-166,-4751,23,-44,-19,18
319,2178,0,-160,-4745,23,-43,-20,17
320,2182,0,-160,-4739,23,-44,-20,17
321,2180,-2,-157,-4741,23,-44,-20,17
322,2177,0,-156,-4739,23,-43,-20,18
323,2175,-1,-163,-4743,23,-43,-20,17
324,2176,-1,-165,-4746,23,-42,-20,17
325,2176,0,-159,-4743,23,-43,-20,17
326,2179,0,-160,-4744,23,-43,-20,17
327,2177,-3,-163,-4744,23,-43,-20,17
328,2178,1,-161,-4744,23,-43,-19,17
329,2180,-1,-159,-4740,23,-44,-19,17
330,2180,2,-166,-4741,23,-43,-19,17
331,2179,0,-161,-4748,23,-43,-20,18
332,2178,-1,-162,-4745,23,-43,-20,18
333,2179,-3,-160,-4746,23,-43,-20,17
334,2183,2,-158,-4742,23,-44,-20,17
335,2181,3,-160,-4740,23,-43,-20,17
336,2180,1,-158,-4739,23,-43,-20,17
337,2177,2,-160,-4750,23,-43,-20,18
338,2180,-2,-158,-4747,23,-43,-20,17
339,2179,0,-157,-4746,23,-43,-19,17
340,2175,-3,-156,-4745,23,-43,-20,17
341,2179,-4,-153,-4740,23,-43,-20,17
342,2177,1,-156,-4743,23,-43,-19,17
343,2183,1,-162,-4745,23,-44,-19,17
344,2182,1,-157,-4745,23,-43,-20,17
345,2179,-2,-162,-4747,23,-43,-19,18
346,2180,0,-161,-4746,23,-44,-19,18
347,2173,4,-158,-4744,23,-44,-19,18
348,2176,2,-163,-4742,23,-43,-19,18
349,2174,2,-161,-4744,23,-43,-19,17
350,2175,-1,-163,-4742,23,-43,-19,17
351,2179,-1,-162,-4742,23,-43,-20,18
352,2179,-2,-161,-4741,23,-43,-20,17
353,2179,-1,-160,-4743,23,-43,-20,17
354,2177,-1,-164,-4740,23,-42,-20,17
355,2179,-2,-166,-4744,23,-43,-19,17
356,2179,0,-158,-4743,23,-43,-20,17
357,2177,-2,-160,-4743,23,-44,-20,17
358,2176,-3,-162,-4748,23,-44,-20,17
359,2176,-4,-165,-4747,23,-43,-20,18
360,2182,-1,-160,-4748,23,-43,-20,18
361,2183,-3,-160,-4746,23,-44,-19,17
362,2178,-1,-166,-4742,23,-43,-20,17
363,2177,0,-167,-4744,23,-43,-20,17
364,2179,0,-159,-4748,23,-44,-20,16
365,2177,-1,-153,-4747,23,-43,-20,17
366,2176,-2,-157,-4744,23,-44,-20,18
367,2181,-2,-161,-4749,23,-44,-20,17
368,2180,-2,-162,-4749,23,-44,-20,17
369,2183,-2,-158,-4742,23,-43,-20,18
370,2178,-1,-157,-4750,23,-44,-20,18
371,2183,-2,-155,-4751,23,-44,-19,18
372,2182,-3,-159,-4747,23,-44,-20,18
373,2177,-1,-152,-4750,23,-44,-20,18
374,2180,-1,-152,-4747,23,-43,-20,17
375,2181,-2,-158,-4745,23,-44,-19,18
376,2178,-2,-156,-4744,23,-44,-19,17
377,2176,4,-157,-4748,23,-44,-19,17
378,2179,2,-156,-4749,23,-44,-19,18
379,2182,1,-154,-4745,23,-44,-19,18
380,2180,-2,-160,-4744,23,-44,-20,17
381,2182,-2,-157,-4742,23,-44,-20,17
382,2179,0,-160,-4746,23,-44,-20,17
383,2177,-2,-158,-4748,23,-43,-20,17
384,2178,-4,-159,-4744,23,-44,-19,17
385,2179,-3,-158,-4744,23,-44,-19,17
386,2182,-3,-158,-4741,23,-43,-20,17
387,2177,1,-153,-4743,23,-44,-21,17
388,2178,1,-162,-4743,23,-43,-19,17
389,2179,-4,-158,-4742,23,-43,-19,17
390,2177,-2,-159,-4743,23,-43,-20,17
391,2176,0,-157,-4739,23,-43,-20,17
392,2180,1,-162,-4741,23,-42,-20,16
393,2178,0,-159,-4745,23,-43,-19,17
394,2175,0,-162,-4738,23,-43,-19,16
395,2172,3,-162,-4738,23,-43,-20,16
396,2179,2,-159,-4745,23,-44,-19,17
397,2176,1,-159,-4741,23,-43,-19,17
398,2175,0,-162,-4744,23,-43,-19,17
399,2176,-3,-164,-4745,23,-43,-20,17
400,2176,-1,-156,-4745,23,-43,-20,17
401,2175,-2,-157,-4744,23,-43,-20,18
402,2173,-4,-158,-4745,23,-43,-20,18
403,2177,-1,-160,-4745,23,-43,-20,17
404,2179,1,-161,-4736,23,-43,-20,18
405,2181,2,-162,-4743,23,-43,-20,17
406,2176,-2,-160,-4746,23,-43,-20,17
407,2176,-3,-161,-4743,23,-44,-19,17
408,2178,-2,-163,-4745,23,-44,-19,17
409,2178,1,-160,-4744,23,-43,-19,17
410,2179,0,-161,-4748,23,-44,-20,17
411,2177,-2,-161,-4745,23,-43,-20,17
412,2181,-2,-155,-4740,23,-44,-20,18
413,2180,-2,-164,-4744,23,-43,-20,17
414,2180,-2,-164,-4748,23,-44,-20,17
415,2181,-2,-160,-4742,23,-43,-19,17
416,2180,-5,-154,-4742,23,-43,-19,17
417,2178,2,-156,-4743,23,-43,-19,17
418,2178,0,-162,-4744,23,-43,-20,17
419,2177,-1,-162,-4744,23,-44,-20,18
420,2179,-5,-162,-4745,23,-44,-19,17
421,2179,-3,-161,-4746,23,-43,-20,17
422,2178,-5,-159,-4745,23,-44,-20,17
423,2178,-4,-154,-4750,23,-43,-20,18
424,2177,-1,-157,-4753,23,-43,-20,17
425,2177,-1,-161,-4747,23,-43,-20,17
426,2175,2,-165,-4747,23,-43,-19,17
427,2177,0,-166,-4749,23,-43,-19,18
428,2174,-2,-158,-4747,23,-43,-19,18
429,2181,-1,-162,-4742,23,-43,-20,18
430,2179,-2,-162,-4738,23,-44,-19,18
431,2180,-3,-161,-4741,23,-44,-19,17
432,2180,-1,-160,-4735,23,-43,-19,17
433,2178,-2,-158,-4744,23,-43,-19,17
434,2175,-2,-160,-4746,23,-44,-19,16
435,2178,0,-157,-4746,23,-44,-20,17
436,2179,-3,-157,-4741,23,-43,-20,17
437,2175,-4,-159,-4740,23,-43,-19,17
438,2176,-1,-159,-4742,23,-43,-19,18
439,2177,-1,-159,-4741,23,-43,-19,18
440,2178,-1,-160,-4742,23,-43,-19,17
441,2176,-3,-156,-4746,23,-43,-20,17
442,2180,-4,-156,-4743,23,-43,-19,17
443,2179,-1,-159,-4746,23,-43,-21,18
444,2176,1,-160,-4741,23,-43,-20,17
445,2177,2,-158,-4743,23,-43,-19,18
446,2177,0,-159,-4733,23,-43,-19,18
447,2182,1,-161,-4733,23,-43,-19,17
448,2177,-1,-157,-4738,23,-44,-20,17
449,2177,2,-160,-4742,23,-44,-20,16
450,2174,-1,-156,-4742,23,-43,-20,17
451,2178,3,-162,-4738,23,-43,-20,17
452,2179,3,-166,-4737,23,-43,-19,17
453,2178,2,-166,-4740,23,-44,-19,18
454,2176,-2,-161,-4743,23,-44,-19,18
455,2177,-2,-162,-4747,23,-44,-19,18
456,2177,-2,-157,-4746,23,-43,-19,18
457,2177,-3,-160,-4741,23,-44,-19,18
458,2175,-1,-159,-4740,23,-43,-20,18
459,2179,1,-158,-4742,23,-44,-20,17
460,2179,1,-162,-4741,23,-44,-20,17
461,2180,1,-158,-4747,23,-43,-20,17
462,2178,0,-156,-4745,23,-43,-19,18
463,2176,-3,-155,-4744,23,-43,-20,18
464,2177,-2,-153,-4741,23,-43,-20,17
465,2177,1,-155,-4739,23,-43,-20,18
466,2177,-1,-155,-4742,23,-43,-19,18
467,2179,1,-156,-4741,23,-43,-20,17
468,2180,1,-158,-4744,23,-43,-20,17
469,2176,1,-163,-4742,23,-43,-20,17
470,2176,-1,-162,-4742,23,-43,-20,17
471,2174,-2,-162,-4744,23,-43,-20,17
472,2176,2,-164,-4747,23,-42,-20,17
473,2181,2,-161,-4744,23,-43,-20,18
474,2176,0,-172,-4745,23,-43,-19,18
475,2177,0,-163,-4742,23,-44,-20,17
476,2177,-5,-163,-4738,23,-44,-20,17
477,2178,1,-160,-4742,23,-43,-19,17
478,2177,-2,-162,-4745,23,-43,-19,17
479,2177,-3,-161,-4745,23,-44,-19,17
480,2178,2,-164,-4744,23,-44,-19,18
481,2176,-1,-163,-4745,23,-44,-19,18
482,2179,1,-157,-4745,23,-43,-20,17
483,2178,4,-161,-4741,23,-43,-20,18
484,2177,2,-163,-4739,23,-43,-20,18
485,2181,1,-160,-4743,23,-43,-19,18
486,2181,0,-155,-4746,23,-43,-20,18
487,2183,0,-159,-4743,23,-43,-19,18
488,2179,1,-165,-4748,23,-43,-20,17
489,2178,2,-160,-4746,23,-43,-20,17
490,2178,1,-158,-4744,23,-44,-19,17
491,2175,2,-160,-4742,23,-43,-19,18
492,2175,-1,-160,-4739,23,-43,-19,17
493,2180,0,-167,-4738,23,-44,-20,17
494,2177,-3,-167,-4741,23,-44,-20,16
495,2177,-2,-158,-4743,23,-43,-20,17
496,2176,0,-164,-4739,23,-43,-19,17
497,2171,-1,-165,-4745,23,-43,-20,17
498,2176,0,-163,-4748,23,-43,-21,17
499,2177,-3,-158,-4748,23,-43,-20,17
500,2175,-1,-161,-4746,23,-43,-20,17
501,2176,-1,-160,-4742,23,-43,-19,17
502,2178,3,-158,-4744,23,-43,-20,17
503,2178,1,-167,-4745,23,-43,-20,17
504,2181,2,-164,-4744,23,-43,-20,17
505,2181,2,-163,-4739,23,-44,-19,17
506,2180,-1,-162,-4743,23,-43,-19,18
507,2178,-2,-159,-4743,23,-43,-18,18
508,2180,-2,-164,-4745,23,-43,-19,17
509,2178,1,-156,-4741,23,-43,-19,18
510,2177,3,-158,-4743,23,-44,-20,18
511,2176,0,-159,-4741,23,-43,-20,18
512,2177,-2,-159,-4742,23,-43,-20,18
513,2178,-4,-159,-4742,23,-43,-19,17
514,2177,-3,-160,-4740,23,-43,-19,17
515,2177,-4,-160,-4741,23,-43,-19,17
516,2177,-5,-163,-4742,23,-44,-19,17
517,2178,-4,-165,-4742,23,-43,-19,18
518,2177,1,-163,-4741,23,-42,-19,18
519,2180,0,-160,-4741,23,-43,-19,18
520,2179,-2,-162,-4742,23,-43,-19,17
521,2180,3,-165,-4738,23,-44,-19,18
522,2177,-1,-165,-4745,23,-44,-20,18
523,2182,-3,-162,-4744,23,-44,-20,18
524,2180,-1,-158,-4741,23,-44,-20,18
525,2181,-3,-158,-4739,23,-43,-19,17
526,2181,-5,-165,-4740,23,-44,-20,17
527,2182,-2,-158,-4737,23,-43,-20,18
528,2181,3,-156,-4735,23,-43,-20,18
529,2178,1,-160,-4734,23,-43,-19,18
530,2180,-1,-158,-4744,23,-43,-19,17
531,2178,0,-158,-4750,23,-44,-19,17
532,2180,-1,-160,-4740,23,-44,-18,17
533,2180,0,-161,-4741,23,-44,-20,17
534,2180,-1,-161,-4741,23,-43,-19,17
535,2182,-2,-162,-4738,23,-43,-19,17
536,2174,2,-160,-4739,23,-43,-20,18
537,2179,1,-161,-4742,23,-43,-19,17
538,2181,3,-163,-4745,23,-43,-19,17
539,2178,1,-163,-4740,23,-43,-19,17
540,2180,-3,-165,-4738,23,-44,-20,18
541,2181,-2,-157,-4735,23,-44,-19,17
542,2180,-1,-157,-4736,23,-44,-19,18
543,2176,0,-157,-4739,23,-43,-18,17
544,2176,0,-152,-4747,23,-43,-19,17
545,2176,1,-159,-4747,23,-44,-20,17
546,2179,2,-167,-4748,23,-44,-20,17
547,2179,1,-161,-4742,23,-44,-20,17
548,2178,-1,-158,-4743,23,-43,-19,17
549,2176,1,-157,-4740,23,-43,-20,17
550,2177,1,-153,-4739,23,-43,-20,17
551,2180,2,-154,-4742,23,-43,-20,17
552,2176,1,-155,-4739,23,-43,-19,17
553,2177,-1,-157,-4736,23,-44,-19,18
554,2184,-2,-156,-4742,23,-44,-19,18
555,2183,1,-157,-4750,23,-44,-19,17
556,2179,-4,-156,-4744,23,-44,-19,17
557,2177,0,-157,-4744,23,-44,-19,18
558,2179,-2,-162,-4744,23,-44,-20,17
559,2178,1,-159,-4746,23,-43,-19,17
560,2181,-3,-159,-4746,23,-44,-19,17
561,2180,-2,-156,-4743,23,-43,-21,17
562,2179,-2,-159,-4742,23,-43,-20,17
563,2176,-4,-153,-4743,23,-43,-21,18
564,2179,-5,-159,-4743,23,-43,-21,17
565,2176,-3,-156,-4746,23,-43,-20,17
566,2180,0,-159,-4741,23,-44,-20,18
567,2179,-2,-161,-4745,23,-43,-20,17
568,2181,0,-166,-4743,23,-43,-19,18
569,2180,1,-161,-4742,23,-43,-19,17
570,2180,1,-163,-4737,23,-43,-19,18
571,2181,-1,-164,-4738,23,-43,-19,17
572,2176,0,-163,-4742,23,-43,-20,17
573,2174,1,-160,-4739,23,-43,-20,17
574,2174,-2,-163,-4748,23,-43,-19,17
575,2176,-1,-163,-4743,23,-44,-19,17
576,2177,3,-157,-4742,23,-44,-19,16
577,2181,1,-156,-4744,23,-43,-19,17
578,2182,2,-157,-4742,23,-43,-19,17
579,2181,0,-155,-4743,23,-44,-19,17
580,2180,-1,-156,-4740,23,-44,-19,17
581,2176,2,-163,-4743,23,-44,-20,17
582,2177,2,-159,-4745,23,-44,-20,17
583,2177,1,-162,-4740,23,-44,-20,17
584,2178,1,-157,-4747,23,-43,-20,17
585,2179,-1,-155,-4744,23,-43,-20,16
586,2178,3,-161,-4738,23,-43,-20,16
587,2177,0,-155,-4736,23,-43,-20,17
588,2178,1,-159,-4737,23,-43,-20,17
589,2179,2,-159,-4735,23,-44,-21,17
590,2180,0,-159,-4742,23,-43,-21,18
591,2180,-2,-165,-4744,23,-43,-20,17
592,2178,0,-161,-4741,23,-44,-20,17
593,2178,-2,-162,-4749,23,-44,-19,17
594,2180,-3,-163,-4747,23,-43,-20,18
595,2177,-2,-161,-4743,23,-43,-20,17
596,2177,0,-160,-4741,23,-43,-19,17
597,2178,1,-157,-4740,23,-43,-19,17
598,2177,-2,-159,-4737,23,-43,-20,17
599,2180,-4,-154,-4748,23,-43,-20,17
600,2177,-2,-157,-4744,23,-43,-20,17
601,2176,-6,-160,-4741,23,-43,-19,17
602,2175,-3,-160,-4743,23,-43,-19,17
603,2177,1,-165,-4742,23,-44,-19,17
604,2176,-1,-159,-4739,23,-44,-19,17
605,2176,-2,-161,-4736,23,-43,-20,17
606,2175,-1,-162,-4737,23,-43,-20,18
607,2176,-2,-166,-4737,23,-44,-20,18
608,2179,-2,-164,-4739,23,-43,-20,17
609,2180,-2,-159,-4740,23,-43,-20,17
610,2182,-2,-160,-4740,23,-44,-19,17
611,2178,-4,-159,-4742,23,-44,-20,18
612,2178,-3,-163,-4740,23,-44,-21,17
613,2180,0,-165,-4741,23,-43,-20,17
614,2181,0,-168,-4740,23,-43,-19,17
615,2178,-3,-165,-4743,23,-43,-19,18
616,2180,1,-164,-4742,23,-43,-19,17
617,2181,0,-165,-4742,23,-44,-19,17
618,2180,-1,-163,-4744,23,-43,-20,18
619,2176,2,-162,-4741,23,-44,-20,18
620,2177,4,-164,-4740,23,-43,-20,18
621,2176,-1,-165,-4745,23,-43,-19,17
622,2175,3,-160,-4748,23,-43,-20,17
623,2176,0,-165,-4747,23,-43,-20,17
624,2173,-4,-163,-4747,23,-44,-20,18
625,2174,-4,-160,-4741,23,-43,-20,18
626,2176,-3,-159,-4743,23,-44,-20,18
627,2180,-4,-159,-4741,23,-44,-19,18
628,2180,-1,-158,-4741,23,-44,-19,18
629,2178,-1,-162,-4742,23,-44,-19,17
630,2176,-1,-159,-4740,23,-43,-19,17
631,2175,0,-162,-4739,23,-43,-20,17
632,2179,3,-159,-4733,23,-43,-19,17
633,2181,-1,-153,-4734,23,-43,-19,18
634,2179,-3,-157,-4737,23,-43,-20,18
635,2177,-1,-159,-4740,23,-43,-20,17
636,2178,3,-164,-4738,23,-44,-20,17
637,2177,-3,-158,-4735,23,-43,-19,17
638,2179,-3,-157,-4738,23,-43,-20,17
639,2179,-6,-161,-4740,23,-44,-19,17
640,2180,0,-164,-4745,23,-44,-19,17
641,2178,1,-160,-4747,23,-43,-20,18
642,2183,1,-156,-4742,23,-44,-20,18
643,2179,-2,-158,-4745,23,-43,-20,18
644,2179,-2,-161,-4741,23,-43,-20,18
645,2181,-2,-160,-4749,23,-44,-20,17
646,2181,-1,-158,-4743,23,-43,-19,18
647,2180,-1,-157,-4737,23,-43,-19,17
648,2179,0,-162,-4737,23,-43,-19,17
649,2180,0,-164,-4737,23,-43,-20,17
650,2176,-2,-159,-4737,23,-43,-21,17
651,2178,0,-162,-4742,23,-43,-20,18
652,2177,1,-161,-4745,23,-43,-19,18
653,2180,-2,-161,-4738,23,-44,-19,18
654,2179,2,-163,-4742,23,-44,-19,17
655,2180,1,-162,-4740,23,-44,-19,17
656,2181,-1,-159,-4741,23,-43,-19,18
657,2177,-3,-161,-4737,23,-43,-19,18
658,2181,-5,-159,-4742,23,-43,-20,18
659,2176,-6,-158,-4743,23,-44,-19,17
660,2179,0,-165,-4741,23,-44,-19,17
661,2180,-3,-166,-4741,23,-43,-19,17
662,2180,-3,-164,-4742,23,-43,-19,17
663,2180,-3,-164,-4748,23,-43,-19,17
664,2180,0,-163,-4745,23,-43,-20,17
665,2181,-3,-165,-4743,23,-43,-20,18
666,2179,-5,-163,-4740,23,-43,-19,17
667,2182,-1,-159,-4739,23,-42,-19,18
668,2179,-4,-161,-4738,23,-43,-20,18
669,2180,-2,-160,-4735,23,-43,-20,18
670,2179,-4,-159,-4737,23,-44,-20,17
671,2180,-4,-157,-4738,23,-43,-19,17
672,2181,-2,-160,-4739,23,-43,-20,17
673,2182,-1,-163,-4736,23,-43,-20,17
674,2181,-5,-161,-4737,23,-43,-19,17
675,2180,-2,-157,-4741,23,-43,-19,17
676,2181,-1,-154,-4739,23,-43,-20,18
677,2181,0,-160,-4747,23,-43,-20,17
678,2177,-2,-165,-4747,23,-43,-20,17
679,2178,0,-162,-4739,23,-43,-19,17
680,2178,-1,-164,-4745,23,-43,-20,18
681,2180,1,-162,-4745,23,-43,-20,17
682,2180,5,-158,-4740,23,-43,-20,17
683,2179,2,-162,-4739,23,-44,-19,17
684,2179,1,-160,-4739,23,-43,-19,17
685,2171,4,-159,-4740,23,-44,-19,17
686,2176,1,-160,-4742,23,-44,-19,17
687,2175,-1,-158,-4742,23,-44,-19,17
688,2177,0,-161,-4742,23,-43,-20,17
689,2179,2,-158,-4740,23,-43,-20,17
690,2172,1,-159,-4735,23,-43,-20,18
691,2176,-2,-164,-4736,23,-43,-20,17
692,2179,-3,-160,-4737,23,-43,-20,17
693,2177,-2,-160,-4738,23,-43,-20,17
694,2176,-3,-162,-4738,23,-43,-20,17
695,2178,-2,-157,-4740,23,-43,-19,18
696,2179,2,-159,-4743,23,-44,-19,18
697,2175,6,-156,-4744,23,-43,-19,18
698,2179,2,-155,-4748,23,-43,-19,18
699,2176,-1,-156,-4746,23,-43,-19,17
700,2173,-1,-157,-4739,23,-42,-20,17
701,2178,2,-162,-4742,23,-43,-19,17
702,2179,3,-159,-4740,23,-44,-19,17
703,2179,2,-157,-4742,23,-43,-19,17
704,2178,-4,-160,-4738,23,-44,-19,17
705,2180,-2,-161,-4744,23,-43,-20,17
706,2181,-1,-158,-4742,23,-43,-19,18
707,2182,-2,-159,-4739,23,-43,-19,17
708,2178,1,-161,-4740,23,-43,-19,17
709,2182,-4,-168,-4737,23,-43,-19,17
710,2185,-3,-165,-4738,23,-43,-19,18
711,2180,-2,-163,-4741,23,-43,-19,17
712,2178,-3,-162,-4740,23,-44,-19,18
713,2178,-1,-162,-4744,23,-43,-20,17
714,2181,1,-164,-4741,23,-43,-19,17
715,2179,1,-162,-4743,23,-43,-19,17
716,2178,5,-156,-4742,23,-43,-19,17
717,2175,-2,-162,-4737,23,-43,-20,17
718,2175,1,-166,-4740,23,-43,-19,17
719,2179,-1,-162,-4738,23,-43,-19,18
720,2178,-3,-156,-4740,23,-43,-19,17
721,2181,-3,-160,-4739,23,-43,-19,17
722,2180,1,-165,-4738,23,-44,-19,17
723,2177,1,-164,-4745,23,-44,-20,17
724,2179,-2,-161,-4742,23,-43,-19,17
725,2180,-2,-163,-4742,23,-43,-19,17
726,2178,1,-160,-4743,23,-43,-19,17
727,2175,0,-158,-4744,23,-43,-20,18
728,2179,0,-159,-4744,23,-43,-20,18
729,2177,0,-152,-4744,23,-44,-20,18
730,2177,-2,-157,-4743,23,-44,-20,18
731,2179,-1,-155,-4743,23,-44,-20,18
732,2177,0,-161,-4741,23,-44,-20,18
733,2180,0,-158,-4743,23,-43,-20,17
734,2180,3,-159,-4742,23,-43,-20,18
735,2179,1,-156,-4745,23,-44,-19,17
736,2179,-1,-157,-4744,23,-44,-20,17
737,2178,-2,-158,-4743,23,-43,-20,17
738,2175,-2,-163,-4744,23,-43,-20,17
739,2183,1,-160,-4739,23,-43,-19,18
740,2180,0,-161,-4737,23,-44,-20,18
741,2178,-4,-157,-4737,23,-44,-20,17
742,2180,-2,-157,-4738,23,-43,-20,17
743,2178,-2,-159,-4741,23,-43,-19,18
744,2177,0,-160,-4738,23,-43,-20,17
745,2176,1,-162,-4736,23,-43,-20,17
746,2175,5,-164,-4740,23,-43,-20,17
747,2177,1,-155,-4747,23,-43,-20,17
748,2178,0,-158,-4749,23,-43,-19,17
749,2177,0,-162,-4742,23,-43,-19,17
750,2177,1,-168,-4739,23,-43,-20,18
751,2175,-3,-163,-4738,23,-44,-20,17
752,2176,-4,-161,-4740,23,-43,-19,18
753,2177,-3,-162,-4742,23,-43,-20,17
754,2181,-2,-162,-4740,23,-44,-19,17
755,2180,0,-162,-4737,23,-44,-19,16
756,2177,3,-158,-4738,23,-43,-20,16
757,2179,-2,-164,-4742,23,-44,-19,17
758,2177,0,-161,-4741,23,-43,-20,18
759,2176,3,-162,-4741,23,-43,-19,17
760,2176,6,-158,-4742,23,-43,-19,18
761,2177,1,-161,-4742,23,-43,-19,18
762,2177,-1,-158,-4742,23,-43,-20,18
763,2178,0,-155,-4737,23,-44,-20,18
764,2175,0,-158,-4739,23,-44,-19,18
765,2176,3,-161,-4737,23,-43,-19,18
766,2181,-1,-158,-4734,23,-43,-19,17
767,2179,-3,-160,-4742,23,-43,-19,17
768,2180,-2,-157,-4738,23,-43,-19,18
769,2179,-2,-157,-4740,23,-43,-20,18
770,2178,0,-155,-4741,23,-43,-20,18
771,2179,1,-160,-4740,23,-43,-20,17
772,2180,2,-165,-4740,23,-43,-20,18
773,2180,2,-160,-4740,23,-43,-20,17
774,2178,0,-163,-4746,23,-44,-20,17
775,2178,-4,-161,-4743,23,-44,-19,18
776,2179,2,-162,-4739,23,-43,-19,18
777,2179,-1,-166,-4742,23,-43,-19,18
778,2179,-1,-163,-4740,23,-43,-19,18
779,2178,-2,-163,-4737,23,-43,-19,18
780,2176,-2,-163,-4743,23,-42,-19,18
781,2176,-4,-164,-4749,23,-43,-19,18
782,2177,-5,-164,-4753,23,-43,-19,18
783,2178,-2,-165,-4747,23,-43,-19,17
784,2178,-3,-162,-4742,23,-44,-19,18
785,2177,-4,-159,-4740,23,-43,-20,16
786,2177,0,-160,-4744,23,-43,-19,17
787,2179,3,-162,-4741,23,-43,-20,17
788,2177,1,-157,-4740,23,-42,-20,18
789,2179,-4,-161,-4743,23,-43,-19,17
790,2180,-1,-160,-4744,23,-42,-19,17
791,2179,0,-156,-4741,23,-42,-19,18
792,2178,2,-161,-4743,23,-43,-19,17
793,2179,0,-161,-4743,23,-44,-20,17
794,2176,1,-159,-4744,23,-44,-19,16
795,2176,3,-160,-4742,23,-43,-19,17
796,2180,1,-163,-4744,23,-43,-19,17
797,2177,1,-162,-4739,23,-43,-20,17
798,2177,-1,-160,-4735,23,-44,-19,17
799,2179,0,-163,-4739,23,-44,-20,17
800,2180,1,-163,-4736,23,-42,-20,17
801,2178,1,-161,-4744,23,-44,-20,16
802,2175,-1,-159,-4739,23,-43,-20,17
803,2179,0,-157,-4739,23,-43,-19,17
804,2179,1,-159,-4745,23,-44,-20,17
805,2178,0,-159,-4744,23,-43,-20,17
806,2178,1,-161,-4742,23,-43,-20,18
807,2180,4,-161,-4744,23,-43,-20,17
808,2180,3,-157,-4743,23,-43,-19,17
809,2179,0,-154,-4743,23,-43,-19,18
810,2177,3,-160,-4739,23,-43,-20,17
811,2180,-2,-162,-4734,23,-43,-20,17
812,2178,-3,-156,-4736,23,-43,-19,17
813,2178,-1,-157,-4736,23,-43,-20,18
814,2178,-1,-162,-4741,23,-43,-20,17
815,2178,1,-161,-4738,23,-43,-20,16
816,2179,0,-162,-4739,23,-42,-20,17
817,2179,-1,-161,-4744,23,-43,-20,17
818,2180,0,-159,-4738,23,-44,-21,17
819,2175,1,-163,-4744,23,-43,-20,17
820,2179,-2,-166,-4742,23,-43,-21,17
821,2180,0,-162,-4742,23,-43,-20,17
822,2179,-1,-165,-4743,23,-43,-20,17
823,2180,-4,-165,-4739,23,-43,-20,17
824,2176,-3,-163,-4740,23,-43,-20,18
825,2176,-1,-159,-4740,23,-43,-19,18
826,2177,-1,-158,-4740,23,-43,-19,18
827,2180,1,-160,-4741,23,-43,-19,17
828,2181,-2,-160,-4740,23,-43,-19,17
829,2181,3,-158,-4738,23,-43,-19,17
830,2181,-1,-158,-4743,23,-44,-20,18
831,2179,-3,-165,-4744,23,-43,-20,17
832,2178,1,-168,-4747,23,-43,-20,16
833,2177,-1,-152,-4737,23,-43,-20,17
834,2179,-3,-158,-4737,23,-43,-20,16
835,2178,0,-161,-4741,23,-43,-20,17
836,2177,-5,-161,-4739,23,-44,-20,17
837,2175,-5,-164,-4734,23,-44,-20,18
838,2175,-1,-163,-4732,23,-43,-20,17
839,2177,-1,-161,-4734,23,-43,-19,17
840,2177,1,-168,-4735,23,-44,-20,17
841,2181,2,-163,-4735,23,-43,-20,17
842,2177,-1,-157,-4735,23,-43,-19,17
843,2180,2,-155,-4735,23,-43,-19,17
844,2182,2,-158,-4737,23,-43,-19,17
845,2180,0,-160,-4738,23,-44,-19,17
846,2179,-1,-161,-4742,23,-44,-20,18
847,2180,2,-160,-4739,23,-43,-20,17
848,2178,0,-163,-4739,23,-44,-20,17
849,2178,1,-157,-4739,23,-43,-20,18
850,2176,0,-158,-4733,23,-43,-19,17
851,2174,-3,-154,-4736,23,-43,-20,18
852,2180,-1,-156,-4741,23,-43,-19,18
853,2179,1,-156,-4742,23,-43,-21,18
854,2181,-4,-160,-4739,23,-43,-19,17
855,2180,-4,-165,-4741,23,-44,-19,17
856,2180,-4,-161,-4741,23,-44,-19,17
857,2177,0,-158,-4740,23,-43,-20,17
858,2179,2,-158,-4740,23,-44,-20,17
859,2175,4,-157,-4746,23,-43,-19,16
860,2178,0,-160,-4744,23,-43,-20,17
861,2175,0,-157,-4739,23,-44,-20,16
862,2174,-2,-157,-4738,23,-43,-19,17
863,2177,-3,-158,-4741,23,-44,-19,17
864,2178,-1,-156,-4742,23,-43,-19,17
865,2175,-1,-161,-4741,23,-43,-20,17
866,2176,1,-157,-4741,23,-43,-20,17
867,2179,0,-165,-4741,23,-43,-20,17
868,2175,-2,-166,-4740,23,-43,-20,17
869,2181,1,-164,-4740,23,-43,-20,17
870,2182,3,-157,-4736,23,-44,-19,18
871,2179,0,-155,-4735,23,-43,-19,18
872,2181,3,-155,-4739,23,-43,-20,17
873,2178,-2,-155,-4741,23,-43,-20,17
874,2178,1,-160,-4740,23,-43,-20,17
875,2177,-2,-157,-4737,23,-43,-19,17
876,2178,2,-161,-4736,23,-42,-20,17
877,2176,2,-157,-4739,23,-43,-19,17
878,2178,1,-157,-4742,23,-43,-20,17
879,2175,0,-160,-4736,23,-43,-19,17
880,2177,-1,-161,-4741,23,-43,-19,17
881,2177,-3,-162,-4744,23,-43,-20,17
882,2174,-1,-167,-4740,23,-44,-20,17
883,2177,2,-164,-4736,23,-43,-20,17
884,2178,0,-153,-4740,23,-43,-20,17
885,2177,1,-157,-4735,23,-44,-20,17
886,2181,-3,-158,-4738,23,-43,-19,17
887,2178,-1,-156,-4739,23,-43,-19,17
888,2176,2,-153,-4735,23,-43,-20,18
889,2174,-1,-158,-4737,23,-43,-20,17
890,2175,-3,-164,-4742,23,-43,-19,18
891,2179,-2,-157,-4739,23,-43,-19,17
892,2179,-1,-162,-4740,23,-43,-19,17
893,2179,-3,-162,-4739,23,-44,-19,18
894,2178,0,-155,-4736,23,-44,-20,17
895,2179,-3,-154,-4740,23,-44,-19,18
896,2178,-1,-155,-4744,23,-44,-20,18
897,2177,0,-160,-4744,23,-43,-19,18
898,2182,1,-162,-4744,23,-43,-20,17
899,2178,1,-162,-4742,23,-44,-19,18
900,2181,3,-159,-4741,23,-44,-20,18
901,2181,-1,-160,-4742,23,-44,-20,18
902,2178,-2,-161,-4739,23,-43,-19,18
903,2179,-2,-158,-4732,23,-43,-19,17
904,2177,-2,-160,-4735,23,-44,-20,17
905,2176,-2,-163,-4743,23,-43,-19,16
906,2178,-2,-158,-4744,23,-43,-20,17
907,2179,-1,-162,-4740,23,-43,-20,18
908,2181,1,-161,-4736,23,-43,-19,18
909,2177,0,-162,-4737,23,-43,-19,18
910,2180,-2,-164,-4732,23,-44,-19,18
911,2180,-3,-162,-4729,23,-44,-19,17
912,2180,1,-161,-4736,23,-43,-19,17
913,2178,-1,-161,-4740,23,-43,-20,18
914,2183,-1,-163,-4739,23,-43,-19,18
915,2181,-3,-161,-4738,23,-43,-19,17
916,2180,-3,-164,-4739,23,-44,-19,17
917,2180,-3,-166,-4738,23,-43,-19,17
918,2179,1,-158,-4734,23,-43,-20,17
919,2183,1,-165,-4736,23,-43,-20,18
920,2179,0,-164,-4738,23,-42,-20,18
921,2182,-1,-167,-4737,23,-43,-20,18
922,2181,-1,-167,-4734,23,-43,-21,18
923,2179,1,-160,-4734,23,-43,-20,17
924,2179,-3,-161,-4736,23,-43,-20,17
925,2176,-3,-156,-4737,23,-43,-19,17
926,2176,0,-163,-4739,23,-43,-20,17
927,2179,3,-159,-4741,23,-43,-20,17
928,2179,1,-166,-4740,23,-43,-20,17
929,2182,-1,-163,-4738,23,-43,-19,17
930,2180,-3,-166,-4735,23,-44,-20,18
931,2178,0,-165,-4731,23,-43,-19,17
932,2182,1,-160,-4740,23,-43,-19,18
933,2182,0,-165,-4735,23,-43,-20,17
934,2177,-1,-161,-4741,23,-43,-19,18
935,2178,0,-160,-4743,23,-43,-20,18
936,2179,-3,-165,-4747,23,-43,-20,18
937,2175,0,-164,-4743,23,-43,-18,17
938,2173,-3,-160,-4743,23,-43,-19,18
939,2178,-4,-162,-4738,23,-43,-20,18
940,2181,-5,-156,-4739,23,-43,-19,17
941,2182,-1,-157,-4741,23,-43,-20,17
942,2180,-2,-160,-4741,23,-44,-20,17
943,2178,-2,-157,-4741,23,-43,-19,17
944,2178,-1,-152,-4738,23,-44,-19,18
945,2177,-1,-156,-4739,23,-43,-18,17
946,2172,-2,-163,-4739,23,-44,-20,18
947,2179,-1,-159,-4735,23,-43,-19,18
948,2181,-2,-159,-4740,23,-43,-19,17
949,2180,-4,-161,-4738,23,-43,-19,18
950,2179,-3,-162,-4736,23,-44,-19,17
951,2178,-1,-161,-4739,23,-43,-20,17
952,2181,0,-157,-4741,23,-44,-20,17
953,2179,-1,-159,-4742,23,-43,-20,17
954,2179,-1,-162,-4741,23,-43,-20,17
955,2180,-3,-160,-4738,23,-44,-20,17
956,2176,-2,-161,-4733,23,-43,-19,18
957,2178,0,-159,-4740,23,-43,-19,17
958,2176,-1,-160,-4739,23,-43,-19,18
959,2180,2,-159,-4739,23,-43,-19,17
960,2177,0,-158,-4734,23,-43,-19,17
961,2181,0,-162,-4737,23,-43,-19,18
962,2176,0,-166,-4736,23,-43,-20,18
963,2177,0,-167,-4739,23,-43,-20,18
964,2181,2,-161,-4743,23,-43,-20,17
965,2179,0,-157,-4741,23,-43,-20,17
966,2176,0,-163,-4740,23,-43,-20,18
967,2177,-1,-157,-4743,23,-44,-19,17
968,2178,0,-159,-4738,23,-43,-19,17
969,2182,2,-164,-4739,23,-43,-19,18
970,2180,2,-163,-4736,23,-42,-19,17
971,2182,2,-160,-4739,23,-43,-20,17
972,2181,4,-166,-4737,23,-43,-20,18
973,2178,4,-161,-4741,23,-43,-20,17
974,2181,2,-161,-4739,23,-43,-20,17
975,2182,-2,-160,-4737,23,-43,-20,17
976,2180,-3,-165,-4739,23,-43,-20,16
977,2181,3,-164,-4743,23,-43,-19,17
978,2182,1,-164,-4738,23,-43,-20,17
979,2182,-2,-164,-4744,23,-43,-19,17
980,2182,-2,-157,-4743,23,-43,-20,18
981,2181,-6,-161,-4740,23,-43,-20,17
982,2180,0,-162,-4737,23,-43,-19,18
983,2179,-2,-165,-4742,23,-43,-20,17
984,2179,-2,-163,-4739,23,-43,-20,17
985,2179,1,-163,-4737,23,-43,-19,17
986,2179,0,-160,-4737,23,-43,-20,18
987,2181,-3,-158,-4736,23,-44,-19,18
988,2179,3,-156,-4736,23,-44,-19,17
989,2178,2,-161,-4738,23,-43,-19,17
990,2181,0,-163,-4742,23,-43,-19,17
991,2177,0,-156,-4744,23,-43,-19,17
992,2173,4,-161,-4743,23,-43,-19,17
993,2174,3,-160,-4743,23,-43,-20,17
994,2177,-1,-165,-4742,23,-44,-20,17
995,2178,-2,-161,-4742,23,-44,-20,17
996,2176,-3,-161,-4743,23,-44,-20,17
997,2177,-7,-158,-4743,23,-44,-20,17
