,acc_X,acc_Y,acc_Z,temp,tempC,gyr_X,gyr_Y,gyr_Z
0,2177,0,-170,-4661,23,-44,-20,17
1,2178,0,-170,-4663,23,-44,-20,17
2,2178,0,-171,-4662,23,-43,-20,17
3,2177,0,-170,-4663,23,-44,-19,17
4,2178,-1,-170,-4665,23,-44,-20,17
5,2178,-1,-172,-4667,23,-44,-20,17
6,2177,-2,-172,-4665,23,-44,-20,17
7,2177,-2,-173,-4664,23,-44,-20,17
8,2176,-2,-174,-4664,23,-44,-20,17
9,2177,-2,-173,-4664,23,-44,-19,17
10,2177,-2,-172,-4663,23,-44,-20,17
11,2178,-3,-174,-4664,23,-44,-20,17
12,2177,-3,-172,-4662,23,-43,-20,17
13,2177,-2,-172,-4664,23,-43,-19,17
14,2178,-3,-171,-4663,23,-43,-19,17
15,2178,-2,-171,-4662,23,-43,-19,17
16,2177,-1,-172,-4663,23,-43,-19,17
17,2178,-3,-172,-4662,23,-43,-19,17
18,2177,-2,-172,-4663,23,-43,-20,17
19,2177,-2,-172,-4662,23,-44,-19,17
20,2177,-1,-172,-4663,23,-44,-19,18
21,2178,-1,-171,-4663,23,-44,-19,17
22,2179,1,-173,-4662,23,-44,-19,17
23,2179,0,-173,-4663,23,-44,-19,17
24,2180,0,-173,-4661,23,-44,-19,17
25,2181,0,-172,-4659,23,-44,-20,17
26,2182,-1,-171,-4659,23,-44,-19,18
27,2181,0,-172,-4659,23,-44,-19,17
28,2180,0,-173,-4661,23,-44,-19,17
29,2178,0,-174,-4662,23,-44,-19,17
30,2177,1,-173,-4663,23,-43,-19,17
31,2177,0,-173,-4662,23,-43,-19,17
32,2177,1,-173,-4664,23,-43,-19,17
33,2178,2,-173,-4665,23,-43,-19,17
34,2178,2,-172,-4664,23,-43,-19,17
35,2178,2,-169,-4665,23,-43,-19,17
36,2177,3,-171,-4664,23,-43,-19,17
37,2176,2,-170,-4663,23,-43,-19,17
38,2176,2,-171,-4663,23,-43,-19,17
39,2177,2,-172,-4662,23,-43,-19,17
40,2178,3,-170,-4662,23,-44,-19,17
41,2179,2,-170,-4664,23,-44,-20,18
42,2178,1,-169,-4665,23,-43,-19,17
43,2177,0,-169,-4666,23,-44,-19,17
44,2179,-1,-171,-4666,23,-43,-20,17
45,2179,0,-170,-4666,23,-43,-20,17
46,2179,0,-170,-4667,23,-44,-20,17
47,2179,0,-170,-4664,23,-44,-19,17
48,2179,-1,-169,-4665,23,-43,-20,17
49,2178,-1,-169,-4665,23,-44,-20,17
50,2179,0,-169,-4664,23,-44,-19,17
51,2179,0,-170,-4663,23,-44,-19,17
52,2179,0,-171,-4662,23,-44,-19,17
53,2180,0,-170,-4662,23,-44,-19,17
54,2179,-2,-171,-4663,23,-44,-19,17
55,2179,-1,-170,-4661,23,-43,-19,17
56,2178,-1,-171,-4661,23,-43,-19,17
57,2178,0,-172,-4662,23,-43,-19,17
58,2179,-1,-173,-4662,23,-43,-19,17
59,2179,0,-170,-4663,23,-43,-19,17
60,2177,0,-169,-4663,23,-43,-19,18
61,2177,0,-170,-4662,23,-43,-19,17
62,2177,-1,-170,-4662,23,-43,-19,18
63,2178,-2,-170,-4665,23,-43,-19,17
64,2177,-2,-170,-4664,23,-43,-19,18
65,2176,-1,-169,-4662,23,-43,-19,17
66,2175,-2,-169,-4661,23,-43,-19,18
67,2175,-1,-171,-4661,23,-43,-19,18
68,2176,-1,-171,-4661,23,-43,-19,18
69,2177,-2,-171,-4661,23,-43,-20,17
70,2177,-2,-172,-4661,23,-43,-20,17
71,2176,-1,-174,-4662,23,-43,-20,17
72,2177,-1,-171,-4663,23,-43,-20,17
73,2177,-2,-171,-4664,23,-44,-20,17
74,2178,-1,-171,-4664,23,-43,-20,17
75,2177,-1,-171,-4664,23,-43,-20,17
76,2177,-2,-171,-4664,23,-43,-20,17
77,2177,-2,-171,-4665,23,-44,-20,17
78,2178,-1,-172,-4665,23,-44,-20,18
79,2178,-1,-173,-4665,23,-44,-20,17
80,2176,0,-174,-4663,23,-43,-20,18
81,2176,-1,-174,-4662,23,-43,-20,17
82,2177,0,-172,-4662,23,-43,-20,18
83,2177,-1,-171,-4662,23,-44,-20,17
84,2178,0,-174,-4664,23,-44,-20,18
85,2178,0,-173,-4664,23,-43,-19,18
86,2177,1,-173,-4663,23,-44,-20,18
87,2177,1,-174,-4665,23,-43,-20,18
88,2176,1,-173,-4664,23,-43,-20,17
89,2176,1,-172,-4666,23,-43,-19,18
90,2176,1,-172,-4664,23,-43,-19,17
91,2176,1,-172,-4665,23,-43,-19,17
92,2177,-1,-172,-4663,23,-44,-19,17
93,2177,-1,-173,-4663,23,-43,-20,17
94,2179,-2,-173,-4663,23,-44,-20,17
95,2179,-1,-171,-4662,23,-43,-20,17
96,2178,-1,-172,-4662,23,-44,-20,18
97,2177,0,-172,-4663,23,-43,-20,17
98,2177,0,-173,-4662,23,-44,-20,17
99,2178,1,-174,-4663,23,-43,-20,17
100,2179,0,-172,-4663,23,-43,-20,17
101,2179,0,-173,-4663,23,-43,-19,18
102,2178,-1,-171,-4663,23,-43,-20,17
103,2177,-1,-169,-4663,23,-43,-19,17
104,2178,-1,-171,-4663,23,-43,-19,17
105,2179,-1,-171,-4663,23,-44,-19,17
106,2179,-1,-174,-4663,23,-44,-19,17
107,2179,-2,-175,-4663,23,-44,-19,17
108,2181,0,-174,-4663,23,-44,-19,17
109,2180,-1,-175,-4664,23,-43,-19,17
110,2179,-1,-172,-4663,23,-43,-19,17
111,2179,-1,-173,-4663,23,-44,-19,18
112,2180,1,-173,-4662,23,-43,-19,17
113,2180,0,-171,-4661,23,-43,-19,18
114,2179,0,-170,-4662,23,-43,-19,18
115,2179,-1,-170,-4662,23,-43,-19,18
116,2179,-2,-169,-4661,23,-43,-19,17
117,2179,-2,-170,-4662,23,-44,-19,18
118,2179,-1,-171,-4662,23,-44,-19,17
119,2178,0,-173,-4663,23,-43,-19,18
120,2179,0,-173,-4663,23,-43,-19,18
121,2179,0,-172,-4664,23,-44,-19,17
122,2180,1,-173,-4663,23,-43,-19,17
123,2180,2,-173,-4662,23,-43,-20,17
124,2179,2,-171,-4661,23,-43,-20,18
125,2179,2,-170,-4661,23,-43,-20,18
126,2178,1,-170,-4662,23,-43,-20,17
127,2177,1,-170,-4663,23,-43,-20,17
128,2177,1,-170,-4663,23,-43,-20,17
129,2177,0,-170,-4663,23,-43,-20,17
130,2178,0,-170,-4662,23,-43,-20,17
131,2178,0,-170,-4662,23,-43,-20,17
132,2177,0,-170,-4661,23,-43,-20,17
133,2175,-1,-168,-4661,23,-43,-20,17
134,2176,-1,-170,-4661,23,-43,-20,17
135,2176,0,-168,-4663,23,-43,-20,17
136,2176,0,-168,-4662,23,-43,-20,17
137,2177,1,-169,-4662,23,-43,-20,17
138,2178,1,-171,-4664,23,-43,-20,17
139,2180,2,-170,-4664,23,-43,-19,17
140,2180,2,-173,-4665,23,-43,-19,17
141,2181,2,-176,-4665,23,-43,-19,18
142,2179,3,-176,-4663,23,-43,-19,18
143,2179,4,-178,-4665,23,-43,-18,18
144,2178,3,-177,-4666,23,-43,-18,18
145,2177,2,-177,-4664,23,-43,-18,19
146,2177,2,-176,-4663,23,-44,-17,19
147,2176,2,-176,-4662,23,-44,-17,19
148,2176,1,-175,-4662,23,-44,-17,19
149,2176,1,-174,-4663,23,-44,-17,19
150,2178,1,-172,-4663,23,-44,-16,19
151,2178,1,-170,-4664,23,-44,-17,19
152,2179,0,-168,-4664,23,-44,-17,19
153,2179,-1,-168,-4664,23,-43,-17,19
154,2179,-2,-168,-4665,23,-44,-16,19
155,2178,-1,-167,-4665,23,-43,-16,19
156,2177,0,-168,-4665,23,-44,-16,19
157,2177,-1,-169,-4666,23,-44,-17,19
158,2176,-2,-169,-4665,23,-44,-17,19
159,2176,-2,-169,-4663,23,-44,-17,19
160,2177,-2,-168,-4665,23,-44,-17,18
161,2178,-2,-168,-4666,23,-44,-18,18
162,2179,-3,-167,-4664,23,-44,-17,18
163,2179,-4,-166,-4664,23,-44,-18,18
164,2178,-3,-165,-4664,23,-43,-18,18
165,2177,-2,-166,-4663,23,-43,-19,18
166,2176,-1,-166,-4663,23,-44,-19,18
167,2177,-1,-166,-4665,23,-44,-19,18
168,2177,-2,-167,-4665,23,-43,-19,18
169,2178,-2,-166,-4665,23,-44,-20,18
170,2178,-3,-165,-4664,23,-44,-20,17
171,2178,-2,-166,-4664,23,-44,-20,17
172,2178,-2,-167,-4665,23,-43,-20,17
173,2177,-1,-167,-4666,23,-43,-20,17
174,2177,-1,-167,-4664,23,-43,-21,17
175,2178,0,-168,-4665,23,-43,-21,17
176,2177,0,-168,-4664,23,-43,-21,17
177,2178,0,-168,-4664,23,-43,-20,17
178,2178,0,-166,-4664,23,-43,-20,17
179,2178,-1,-164,-4664,23,-43,-20,17
180,2177,-2,-164,-4664,23,-43,-21,17
181,2177,-3,-168,-4665,23,-43,-21,16
182,2177,-5,-169,-4663,23,-43,-21,16
183,2178,-4,-167,-4663,23,-43,-21,16
184,2179,-3,-171,-4664,23,-43,-21,16
185,2180,-3,-172,-4663,23,-43,-21,17
186,2179,-3,-171,-4663,23,-43,-21,17
187,2180,-2,-172,-4663,23,-43,-20,17
188,2178,-3,-173,-4662,23,-43,-20,17
189,2178,-2,-172,-4664,23,-43,-20,17
190,2177,-2,-171,-4664,23,-43,-20,17
191,2177,-1,-169,-4665,23,-43,-20,17
192,2177,1,-170,-4664,23,-43,-20,17
193,2179,0,-170,-4664,23,-43,-20,17
194,2179,1,-172,-4663,23,-43,-20,17
195,2179,1,-171,-4665,23,-43,-20,17
196,2180,1,-175,-4665,23,-43,-20,17
197,2179,1,-175,-4666,23,-43,-19,18
198,2177,1,-176,-4667,23,-43,-19,18
199,2176,0,-175,-4666,23,-43,-19,18
200,2176,-2,-174,-4666,23,-43,-18,18
201,2176,-2,-173,-4665,23,-44,-18,18
202,2176,-2,-172,-4665,23,-44,-18,17
203,2177,-3,-170,-4665,23,-43,-18,18
204,2177,-4,-170,-4664,23,-43,-19,18
205,2178,-2,-170,-4663,23,-43,-19,18
206,2179,-1,-170,-4663,23,-43,-19,18
207,2178,-1,-171,-4664,23,-44,-19,18
208,2177,-2,-172,-4665,23,-44,-19,18
209,2178,-2,-171,-4665,23,-44,-19,18
210,2178,-2,-172,-4666,23,-44,-18,18
211,2177,-2,-169,-4666,23,-44,-18,18
212,2175,-2,-168,-4668,23,-43,-19,18
213,2175,-3,-166,-4666,23,-43,-19,18
214,2174,-3,-166,-4666,23,-43,-19,18
215,2176,-3,-167,-4665,23,-43,-19,17
216,2176,-3,-167,-4665,23,-43,-20,17
217,2177,-3,-166,-4665,23,-43,-20,17
218,2178,-3,-167,-4666,23,-43,-20,17
219,2179,-3,-167,-4666,23,-44,-20,17
220,2178,-2,-168,-4666,23,-43,-20,17
221,2178,-2,-168,-4666,23,-43,-20,17
222,2178,-1,-169,-4664,23,-43,-20,17
223,2177,-2,-170,-4665,23,-43,-20,17
224,2178,-2,-172,-4666,23,-43,-20,17
225,2177,-2,-174,-4666,23,-43,-20,17
226,2176,0,-174,-4667,23,-43,-20,17
227,2176,-1,-175,-4665,23,-43,-20,17
228,2178,0,-174,-4665,23,-43,-21,17
229,2179,0,-176,-4663,23,-43,-20,17
230,2179,0,-176,-4662,23,-44,-20,17
231,2180,0,-174,-4662,23,-43,-20,17
232,2179,0,-175,-4664,23,-43,-20,17
233,2179,-1,-174,-4664,23,-43,-20,17
234,2178,-1,-174,-4664,23,-43,-20,17
235,2177,-1,-172,-4665,23,-43,-20,17
236,2178,-1,-170,-4664,23,-43,-20,17
237,2178,0,-170,-4664,23,-43,-19,18
238,2177,0,-173,-4663,23,-43,-19,18
239,2179,0,-173,-4663,23,-44,-19,18
240,2179,0,-175,-4663,23,-44,-19,17
241,2179,0,-174,-4665,23,-43,-19,18
242,2179,1,-173,-4665,23,-43,-19,18
243,2179,1,-173,-4665,23,-43,-19,18
244,2179,1,-171,-4665,23,-43,-19,18
245,2179,0,-169,-4666,23,-43,-19,18
246,2178,-1,-169,-4666,23,-44,-19,18
247,2177,0,-169,-4666,23,-44,-19,18
248,2178,-1,-169,-4667,23,-43,-19,18
249,2178,-1,-169,-4666,23,-43,-20,18
250,2178,-2,-169,-4666,23,-43,-20,18
251,2177,-3,-168,-4666,23,-44,-19,18
252,2177,-2,-169,-4665,23,-44,-19,17
253,2179,-2,-169,-4665,23,-44,-19,17
254,2178,-2,-169,-4666,23,-43,-19,17
255,2178,-2,-170,-4665,23,-43,-20,17
256,2177,-2,-170,-4664,23,-43,-20,17
257,2177,-2,-171,-4665,23,-44,-19,17
258,2178,-1,-170,-4663,23,-44,-19,17
259,2178,-1,-170,-4663,23,-43,-20,17
260,2178,0,-171,-4663,23,-43,-20,17
261,2179,0,-172,-4663,23,-44,-20,17
262,2179,-1,-171,-4663,23,-44,-20,17
263,2180,-2,-169,-4665,23,-44,-20,17
264,2180,-2,-168,-4665,23,-44,-20,17
265,2181,-2,-168,-4665,23,-44,-20,17
266,2180,-1,-168,-4665,23,-44,-20,17
267,2180,-2,-169,-4665,23,-44,-20,17
268,2180,-3,-170,-4666,23,-44,-20,17
269,2180,-2,-170,-4665,23,-44,-20,17
270,2180,-3,-169,-4666,23,-44,-20,17
271,2179,-3,-168,-4666,23,-44,-20,17
272,2179,-3,-169,-4665,23,-44,-20,17
273,2179,-4,-169,-4665,23,-44,-20,17
274,2178,-3,-171,-4666,23,-44,-20,17
275,2177,-4,-171,-4666,23,-44,-20,17
276,2177,-3,-173,-4667,23,-44,-20,17
277,2177,-4,-174,-4665,23,-44,-20,17
278,2176,-2,-174,-4664,23,-44,-19,17
279,2177,-1,-174,-4664,23,-44,-19,17
280,2176,-1,-174,-4666,23,-44,-19,17
281,2177,-1,-173,-4666,23,-44,-19,18
282,2178,-1,-172,-4667,23,-44,-19,18
283,2179,-2,-171,-4666,23,-44,-19,18
284,2179,-2,-171,-4666,23,-44,-19,18
285,2179,-2,-171,-4667,23,-44,-19,17
286,2179,-2,-173,-4667,23,-44,-19,18
287,2180,-2,-172,-4667,23,-43,-18,18
288,2180,0,-172,-4664,23,-43,-19,18
289,2179,-1,-171,-4664,23,-43,-18,18
290,2179,-2,-172,-4663,23,-43,-18,18
291,2179,-3,-172,-4665,23,-44,-18,18
292,2179,-3,-170,-4662,23,-44,-19,18
293,2179,-3,-168,-4663,23,-44,-19,18
294,2179,-4,-168,-4664,23,-44,-19,18
295,2179,-4,-169,-4662,23,-44,-19,18
296,2179,-4,-169,-4664,23,-44,-19,18
297,2179,-5,-168,-4661,23,-44,-19,18
298,2178,-5,-170,-4660,23,-43,-19,17
299,2178,-4,-170,-4660,23,-44,-20,17
300,2178,-4,-169,-4660,23,-44,-19,17
301,2179,-3,-170,-4661,23,-44,-19,17
302,2179,-3,-168,-4661,23,-44,-20,17
303,2179,-3,-169,-4662,23,-43,-20,17
304,2178,-3,-169,-4662,23,-44,-20,17
305,2178,-3,-168,-4662,23,-44,-20,17
306,2177,-2,-168,-4663,23,-43,-20,17
307,2177,-2,-168,-4664,23,-44,-20,17
308,2177,-2,-166,-4665,23,-44,-20,17
309,2177,-2,-167,-4667,23,-43,-20,17
310,2176,-2,-168,-4665,23,-44,-20,17
311,2177,-2,-170,-4665,23,-44,-20,17
312,2178,-2,-172,-4666,23,-44,-20,17
313,2178,-1,-172,-4665,23,-44,-20,17
314,2178,-2,-172,-4663,23,-44,-20,17
315,2178,-1,-173,-4665,23,-44,-20,17
316,2178,0,-173,-4665,23,-44,-20,17
317,2178,0,-173,-4666,23,-44,-19,17
318,2179,-1,-173,-4666,23,-44,-19,17
319,2179,-1,-173,-4666,23,-44,-19,17
320,2179,-1,-171,-4665,23,-44,-19,17
321,2178,-1,-169,-4665,23,-43,-19,17
322,2178,-1,-168,-4666,23,-43,-19,17
323,2179,0,-168,-4665,23,-43,-20,18
324,2178,0,-169,-4663,23,-44,-19,18
325,2179,-1,-169,-4665,23,-44,-19,18
326,2177,0,-169,-4664,23,-44,-19,17
327,2178,-2,-169,-4664,23,-44,-19,18
328,2179,-2,-171,-4664,23,-44,-19,18
329,2180,-2,-171,-4664,23,-44,-19,18
330,2181,-2,-173,-4664,23,-44,-19,18
331,2180,-3,-173,-4663,23,-44,-19,18
332,2181,-1,-171,-4663,23,-44,-19,18
333,2179,-1,-168,-4662,23,-44,-19,18
334,2179,-2,-167,-4662,23,-44,-19,18
335,2178,-3,-167,-4662,23,-44,-19,18
336,2177,-3,-167,-4664,23,-44,-19,18
337,2179,-3,-166,-4665,23,-44,-19,18
338,2180,-2,-167,-4664,23,-44,-19,18
339,2180,-2,-168,-4662,23,-44,-19,18
340,2179,-2,-167,-4663,23,-43,-20,18
341,2178,-1,-168,-4665,23,-44,-19,18
342,2177,-1,-170,-4663,23,-43,-19,18
343,2178,-2,-170,-4663,23,-43,-20,18
344,2180,-2,-170,-4664,23,-43,-20,18
345,2180,-2,-169,-4664,23,-43,-20,18
346,2180,-1,-170,-4662,23,-43,-20,17
347,2179,-1,-172,-4661,23,-43,-20,17
348,2177,0,-171,-4661,23,-43,-20,17
349,2176,0,-170,-4661,23,-44,-20,17
350,2176,0,-173,-4663,23,-44,-20,17
351,2177,0,-172,-4665,23,-44,-20,17
352,2175,0,-173,-4664,23,-44,-20,17
353,2176,0,-172,-4663,23,-44,-20,17
354,2178,0,-174,-4663,23,-44,-20,17
355,2177,1,-173,-4662,23,-44,-20,17
356,2178,0,-172,-4661,23,-43,-20,17
357,2177,0,-172,-4661,23,-43,-20,17
358,2177,0,-171,-4661,23,-43,-20,17
359,2178,0,-172,-4662,23,-43,-19,17
360,2178,-1,-171,-4662,23,-43,-20,18
361,2178,0,-171,-4660,23,-43,-19,17
362,2180,0,-170,-4659,23,-44,-19,17
363,2179,-1,-172,-4661,23,-44,-19,17
364,2179,0,-172,-4661,23,-43,-19,17
365,2180,0,-170,-4660,23,-44,-19,17
366,2181,0,-170,-4659,23,-44,-19,17
367,2180,0,-171,-4658,23,-44,-19,17
368,2179,-1,-168,-4657,23,-44,-19,17
369,2179,-1,-168,-4659,23,-44,-19,17
370,2180,0,-168,-4659,23,-44,-19,17
371,2179,-1,-168,-4660,23,-44,-19,18
372,2180,-1,-167,-4661,23,-43,-19,18
373,2179,-2,-170,-4661,23,-43,-19,18
374,2177,-1,-168,-4661,23,-43,-19,18
375,2178,-1,-166,-4659,23,-43,-19,18
376,2179,-1,-168,-4660,23,-43,-19,18
377,2180,-1,-169,-4661,23,-44,-19,18
378,2179,0,-171,-4661,23,-44,-19,18
379,2180,-1,-171,-4661,23,-44,-20,18
380,2181,-2,-171,-4660,23,-44,-20,18
381,2179,-2,-169,-4661,23,-44,-20,18
382,2179,-1,-170,-4663,23,-44,-20,18
383,2178,-1,-167,-4662,23,-44,-20,17
384,2179,0,-168,-4661,23,-44,-20,18
385,2179,1,-168,-4662,23,-44,-20,18
386,2180,0,-168,-4661,23,-44,-19,18
387,2180,1,-169,-4661,23,-44,-19,18
388,2180,1,-168,-4662,23,-44,-19,17
389,2180,0,-169,-4662,23,-44,-20,17
390,2180,0,-168,-4662,23,-44,-19,17
391,2180,-1,-169,-4661,23,-44,-20,17
392,2181,-1,-167,-4660,23,-44,-20,17
393,2180,-2,-168,-4660,23,-44,-20,17
394,2181,-2,-168,-4659,23,-44,-20,17
395,2180,-1,-170,-4659,23,-44,-20,17
396,2179,-1,-171,-4659,23,-44,-20,17
397,2178,-1,-170,-4659,23,-44,-20,17
398,2178,-1,-171,-4659,23,-44,-19,17
399,2178,-1,-171,-4660,23,-44,-19,17
400,2178,0,-171,-4662,23,-44,-19,17
401,2178,0,-171,-4661,23,-44,-19,17
402,2178,-1,-170,-4661,23,-44,-20,17
403,2178,-1,-170,-4660,23,-44,-19,17
404,2178,0,-171,-4661,23,-44,-19,17
405,2178,-1,-170,-4661,23,-43,-19,17
406,2178,0,-169,-4662,23,-44,-19,17
407,2178,-1,-170,-4660,23,-44,-19,17
408,2178,-1,-168,-4660,23,-44,-19,17
409,2177,0,-168,-4659,23,-44,-19,17
410,2176,-1,-167,-4658,23,-44,-19,17
411,2176,0,-170,-4659,23,-44,-19,17
412,2176,0,-170,-4660,23,-43,-19,17
413,2175,0,-170,-4659,23,-43,-19,17
414,2176,-1,-171,-4661,23,-43,-19,17
415,2179,-1,-171,-4660,23,-44,-19,17
416,2179,0,-171,-4660,23,-44,-19,17
417,2178,1,-172,-4660,23,-44,-19,17
418,2178,1,-172,-4659,23,-44,-19,17
419,2177,0,-174,-4659,23,-44,-19,18
420,2177,1,-173,-4660,23,-44,-19,17
421,2178,1,-172,-4661,23,-44,-19,17
422,2180,0,-170,-4659,23,-44,-19,18
423,2179,0,-170,-4660,23,-44,-19,18
424,2179,-1,-168,-4661,23,-44,-19,18
425,2178,-2,-168,-4661,23,-44,-19,18
426,2178,0,-169,-4661,23,-44,-20,18
427,2178,-1,-169,-4662,23,-44,-20,18
428,2178,-1,-170,-4661,23,-44,-20,17
429,2179,0,-170,-4662,23,-44,-20,18
430,2178,-2,-170,-4661,23,-44,-20,17
431,2177,-2,-171,-4661,23,-44,-20,17
432,2176,-2,-171,-4661,23,-44,-20,17
433,2175,-1,-169,-4661,23,-44,-20,17
434,2176,0,-170,-4660,23,-44,-20,17
435,2177,-1,-171,-4659,23,-44,-20,17
436,2178,-1,-170,-4660,23,-44,-20,17
437,2178,-1,-171,-4660,23,-44,-20,17
438,2177,-1,-170,-4659,23,-44,-20,17
439,2176,0,-171,-4659,23,-44,-20,17
440,2177,0,-170,-4659,23,-44,-20,17
441,2177,1,-172,-4659,23,-43,-20,17
442,2178,0,-170,-4660,23,-43,-20,18
443,2177,0,-168,-4660,23,-43,-20,18
444,2176,0,-171,-4662,23,-43,-20,18
445,2175,0,-174,-4662,23,-43,-20,18
446,2175,1,-173,-4661,23,-43,-20,18
447,2176,1,-174,-4661,23,-43,-19,18
448,2176,1,-174,-4661,23,-43,-19,18
449,2177,1,-174,-4662,23,-43,-19,18
450,2176,0,-174,-4661,23,-44,-19,18
451,2175,1,-174,-4663,23,-44,-19,18
452,2175,0,-172,-4663,23,-43,-19,18
453,2177,-1,-171,-4662,23,-43,-19,18
454,2178,-1,-170,-4662,23,-43,-19,18
455,2178,-1,-169,-4662,23,-43,-19,18
456,2178,-1,-168,-4662,23,-43,-19,17
457,2179,-2,-169,-4662,23,-43,-19,17
458,2179,-3,-170,-4664,23,-43,-19,17
459,2179,-1,-168,-4664,23,-43,-19,17
460,2180,-1,-170,-4665,23,-43,-19,17
461,2179,0,-170,-4665,23,-43,-19,17
462,2179,0,-172,-4665,23,-44,-19,17
463,2177,0,-172,-4664,23,-44,-19,17
464,2178,0,-171,-4663,23,-44,-20,17
465,2178,0,-171,-4664,23,-44,-19,17
466,2178,0,-170,-4663,23,-44,-19,17
467,2178,-1,-170,-4664,23,-44,-19,17
468,2178,-3,-170,-4665,23,-44,-19,17
469,2178,-2,-167,-4665,23,-44,-19,17
470,2179,-2,-167,-4663,23,-44,-19,17
471,2178,-2,-168,-4665,23,-44,-19,17
472,2178,-2,-169,-4665,23,-43,-19,17
473,2178,-2,-169,-4664,23,-44,-19,17
474,2177,-3,-170,-4665,23,-44,-19,17
475,2176,-2,-171,-4665,23,-44,-20,17
476,2177,-2,-171,-4665,23,-44,-19,17
477,2177,-2,-172,-4664,23,-44,-20,17
478,2177,-2,-171,-4665,23,-44,-20,17
479,2176,-2,-167,-4663,23,-43,-20,17
480,2177,-1,-168,-4662,23,-43,-20,17
481,2178,-1,-170,-4662,23,-44,-20,17
482,2177,1,-171,-4663,23,-43,-20,17
483,2177,1,-172,-4662,23,-43,-20,17
484,2176,1,-172,-4663,23,-43,-20,17
485,2176,2,-172,-4662,23,-43,-19,17
486,2176,1,-172,-4662,23,-43,-19,17
487,2176,0,-172,-4662,23,-44,-19,17
488,2177,0,-172,-4664,23,-44,-19,17
489,2178,-2,-172,-4664,23,-44,-19,17
490,2178,-3,-172,-4663,23,-43,-19,17
491,2177,-2,-171,-4662,23,-43,-19,18
492,2176,0,-172,-4662,23,-43,-19,18
493,2176,0,-173,-4662,23,-44,-19,18
494,2177,0,-171,-4662,23,-43,-19,18
495,2177,1,-172,-4663,23,-43,-19,17
496,2179,1,-170,-4662,23,-43,-19,17
497,2178,1,-171,-4664,23,-43,-19,17
498,2179,0,-171,-4663,23,-43,-19,17
499,2178,0,-170,-4663,23,-43,-19,17
500,2178,-1,-171,-4661,23,-43,-19,17
501,2177,0,-172,-4662,23,-43,-20,17
502,2178,-1,-171,-4661,23,-43,-19,17
503,2178,-1,-171,-4662,23,-43,-19,17
504,2178,-2,-172,-4662,23,-43,-19,17
505,2177,-1,-169,-4662,23,-44,-19,17
506,2177,0,-169,-4662,23,-43,-19,17
507,2178,1,-169,-4662,23,-44,-19,17
508,2178,1,-170,-4661,23,-43,-19,17
509,2178,1,-170,-4663,23,-44,-20,17
510,2178,1,-171,-4662,23,-43,-20,17
511,2179,0,-171,-4661,23,-43,-20,17
512,2179,0,-168,-4661,23,-43,-20,17
513,2177,1,-167,-4660,23,-43,-20,17
514,2178,0,-167,-4659,23,-43,-20,18
515,2178,-1,-167,-4659,23,-43,-20,18
516,2179,0,-168,-4660,23,-43,-20,17
517,2178,0,-168,-4663,23,-43,-19,17
518,2178,0,-168,-4665,23,-43,-20,17
519,2178,-1,-168,-4663,23,-44,-19,17
520,2178,0,-169,-4664,23,-44,-20,17
521,2178,0,-169,-4664,23,-44,-20,17
522,2178,0,-170,-4665,23,-44,-20,17
523,2178,-2,-168,-4665,23,-44,-20,17
524,2178,-1,-166,-4664,23,-44,-20,17
525,2178,-2,-166,-4664,23,-44,-20,17
526,2178,-2,-167,-4663,23,-44,-20,17
527,2179,-2,-165,-4662,23,-44,-20,17
528,2181,-2,-166,-4661,23,-44,-19,17
529,2180,-2,-167,-4660,23,-43,-19,17
530,2180,-2,-168,-4659,23,-43,-19,17
531,2180,-2,-169,-4662,23,-43,-20,17
532,2180,-2,-171,-4661,23,-43,-19,17
533,2180,-2,-171,-4662,23,-44,-20,17
534,2180,-1,-170,-4662,23,-44,-20,17
535,2180,-1,-170,-4661,23,-43,-19,17
536,2180,-3,-169,-4660,23,-44,-19,17
537,2178,-2,-171,-4661,23,-44,-19,18
538,2178,-1,-171,-4660,23,-44,-19,18
539,2178,-1,-171,-4663,23,-43,-19,18
540,2177,0,-170,-4663,23,-43,-19,18
541,2177,-1,-170,-4663,23,-43,-19,18
542,2178,-3,-170,-4663,23,-43,-19,18
543,2179,-2,-171,-4663,23,-43,-19,18
544,2178,-2,-170,-4662,23,-43,-19,17
545,2180,-3,-169,-4663,23,-43,-19,17
546,2180,-3,-169,-4663,23,-43,-19,17
547,2178,-3,-169,-4662,23,-43,-19,17
548,2179,-3,-169,-4661,23,-43,-19,17
549,2179,-3,-169,-4662,23,-43,-19,17
550,2179,-3,-169,-4661,23,-43,-19,17
551,2179,-4,-169,-4660,23,-43,-20,17
552,2179,-4,-168,-4660,23,-43,-20,17
553,2179,-2,-170,-4658,23,-43,-19,17
554,2179,-1,-169,-4658,23,-43,-19,17
555,2180,-1,-169,-4660,23,-43,-20,17
556,2182,-2,-167,-4660,23,-43,-20,17
557,2180,-2,-165,-4659,23,-43,-20,17
558,2180,-2,-168,-4659,23,-43,-20,17
559,2180,-1,-167,-4660,23,-43,-20,17
560,2179,-1,-169,-4662,23,-43,-21,17
561,2178,-1,-171,-4662,23,-43,-21,17
562,2178,-2,-171,-4660,23,-43,-21,17
563,2178,-2,-171,-4660,23,-43,-20,17
564,2177,-2,-171,-4660,23,-43,-20,17
565,2177,-1,-172,-4659,23,-43,-20,17
566,2177,0,-170,-4658,23,-43,-20,17
567,2176,0,-170,-4658,23,-43,-20,17
568,2178,-2,-172,-4658,23,-43,-20,17
569,2178,-1,-173,-4659,23,-44,-20,17
570,2179,-1,-173,-4659,23,-43,-20,17
571,2179,0,-173,-4660,23,-43,-19,17
572,2178,1,-172,-4659,23,-44,-19,18
573,2179,0,-173,-4660,23,-44,-19,18
574,2178,0,-174,-4661,23,-43,-19,18
575,2178,0,-174,-4660,23,-43,-19,18
576,2178,0,-173,-4659,23,-43,-19,18
577,2177,-1,-173,-4659,23,-43,-19,18
578,2178,-1,-172,-4661,23,-43,-19,18
579,2178,-1,-173,-4661,23,-43,-19,18
580,2178,-1,-174,-4661,23,-43,-19,18
581,2179,-1,-173,-4660,23,-43,-19,18
582,2180,0,-173,-4660,23,-43,-19,18
583,2178,1,-172,-4660,23,-43,-19,18
584,2177,1,-172,-4661,23,-43,-19,18
585,2177,0,-172,-4659,23,-44,-19,18
586,2178,0,-172,-4657,23,-44,-19,18
587,2177,0,-170,-4657,23,-44,-19,17
588,2177,1,-170,-4658,23,-43,-19,17
589,2177,1,-169,-4659,23,-44,-19,17
590,2178,1,-167,-4660,23,-44,-19,17
591,2177,0,-169,-4660,23,-44,-19,17
592,2178,-1,-168,-4661,23,-44,-19,17
593,2177,0,-168,-4660,23,-44,-19,17
594,2178,-1,-168,-4660,23,-44,-19,17
595,2177,-1,-168,-4661,23,-43,-19,17
596,2176,-1,-170,-4661,23,-43,-19,18
597,2176,-1,-169,-4662,23,-43,-20,17
598,2177,-2,-169,-4664,23,-44,-20,17
599,2177,-2,-170,-4662,23,-43,-20,17
600,2176,-2,-172,-4662,23,-43,-20,17
601,2177,-2,-171,-4662,23,-43,-20,17
602,2177,-1,-171,-4662,23,-43,-20,17
603,2177,-1,-171,-4663,23,-44,-20,17
604,2179,-1,-171,-4663,23,-43,-20,17
605,2179,-1,-172,-4664,23,-43,-20,17
606,2179,-1,-173,-4664,23,-43,-20,17
607,2179,0,-172,-4663,23,-43,-20,17
608,2179,1,-173,-4661,23,-44,-20,17
609,2178,0,-172,-4661,23,-44,-20,17
610,2178,0,-173,-4661,23,-44,-20,18
611,2178,1,-172,-4663,23,-43,-20,18
612,2177,0,-172,-4664,23,-44,-20,18
613,2177,0,-173,-4663,23,-44,-20,18
614,2178,-1,-173,-4663,23,-44,-20,18
615,2178,0,-172,-4662,23,-44,-20,18
616,2178,0,-170,-4662,23,-43,-19,18
617,2179,-1,-171,-4661,23,-43,-19,18
618,2177,0,-171,-4661,23,-44,-19,18
619,2177,0,-171,-4661,23,-44,-19,18
620,2177,0,-172,-4662,23,-44,-19,17
621,2177,0,-172,-4662,23,-43,-19,17
622,2178,0,-173,-4664,23,-43,-19,17
623,2178,-1,-174,-4665,23,-43,-19,17
624,2178,-1,-174,-4664,23,-43,-19,18
625,2178,-1,-175,-4665,23,-43,-19,18
626,2177,0,-174,-4665,23,-43,-19,18
627,2177,0,-174,-4665,23,-43,-19,18
628,2176,1,-172,-4664,23,-44,-19,18
629,2177,1,-172,-4663,23,-44,-19,18
630,2176,0,-171,-4664,23,-44,-19,18
631,2177,0,-170,-4665,23,-44,-19,18
632,2177,-1,-169,-4667,23,-43,-19,18
633,2178,-1,-170,-4666,23,-44,-19,18
634,2178,0,-171,-4665,23,-43,-19,17
635,2178,-1,-170,-4665,23,-44,-19,18
636,2177,-2,-170,-4666,23,-43,-19,18
637,2177,-1,-171,-4665,23,-44,-20,17
638,2175,-2,-172,-4664,23,-44,-20,17
639,2175,-1,-171,-4663,23,-44,-19,17
640,2175,-1,-171,-4664,23,-44,-20,17
641,2176,-1,-172,-4664,23,-44,-20,17
642,2176,0,-172,-4666,23,-44,-20,17
643,2176,0,-171,-4666,23,-44,-20,17
644,2176,-1,-171,-4666,23,-44,-20,17
645,2176,-1,-173,-4665,23,-44,-20,17
646,2176,-2,-173,-4665,23,-44,-20,17
647,2176,-2,-173,-4663,23,-44,-20,17
648,2176,-1,-175,-4663,23,-44,-20,18
649,2176,-1,-172,-4663,23,-44,-20,18
650,2177,-1,-174,-4664,23,-43,-20,18
651,2177,0,-172,-4663,23,-43,-20,17
652,2178,0,-173,-4664,23,-43,-20,17
653,2178,2,-174,-4664,23,-43,-20,17
654,2179,1,-172,-4664,23,-43,-20,17
655,2179,1,-173,-4664,23,-43,-20,17
656,2179,1,-173,-4664,23,-44,-20,17
657,2178,1,-173,-4664,23,-43,-20,17
658,2178,0,-174,-4664,23,-44,-20,17
659,2178,1,-175,-4666,23,-43,-20,17
660,2179,0,-175,-4665,23,-44,-20,18
661,2179,-1,-175,-4665,23,-44,-19,17
662,2179,-1,-174,-4665,23,-43,-19,17
663,2178,0,-173,-4664,23,-44,-20,17
664,2178,-2,-172,-4663,23,-43,-20,18
665,2178,-2,-172,-4663,23,-43,-20,18
666,2179,-3,-171,-4664,23,-43,-20,18
667,2180,-2,-170,-4665,23,-43,-19,18
668,2180,-1,-168,-4664,23,-43,-19,18
669,2181,-1,-168,-4665,23,-43,-19,18
670,2181,-1,-170,-4666,23,-43,-19,18
671,2180,0,-168,-4665,23,-43,-19,18
672,2181,0,-168,-4665,23,-44,-19,18
673,2180,-1,-169,-4665,23,-44,-19,18
674,2180,-2,-169,-4664,23,-44,-19,17
675,2179,-3,-171,-4664,23,-44,-19,17
676,2179,-3,-170,-4664,23,-43,-19,17
677,2178,-3,-171,-4664,23,-44,-19,17
678,2178,-2,-172,-4664,23,-44,-20,17
679,2177,-2,-171,-4664,23,-44,-19,17
680,2178,-2,-171,-4665,23,-44,-19,17
681,2177,-3,-170,-4664,23,-44,-19,17
682,2178,-3,-170,-4666,23,-43,-19,17
683,2177,-2,-171,-4667,23,-44,-19,17
684,2176,-3,-170,-4666,23,-43,-19,17
685,2177,-1,-169,-4667,23,-43,-19,18
686,2177,-1,-168,-4667,23,-43,-19,17
687,2177,0,-169,-4666,23,-43,-20,17
688,2178,1,-169,-4664,23,-44,-20,17
689,2180,2,-171,-4664,23,-43,-20,17
690,2180,2,-172,-4664,23,-43,-20,17
691,2180,2,-172,-4664,23,-43,-20,17
692,2180,2,-169,-4664,23,-43,-20,17
693,2180,1,-168,-4664,23,-44,-20,17
694,2179,1,-168,-4664,23,-44,-20,17
695,2178,2,-170,-4666,23,-44,-20,18
696,2177,1,-172,-4665,23,-43,-20,17
697,2177,1,-173,-4666,23,-44,-20,17
698,2178,-1,-172,-4666,23,-44,-20,17
699,2178,-2,-173,-4666,23,-44,-20,17
700,2179,-1,-172,-4665,23,-44,-20,17
701,2179,-2,-172,-4665,23,-43,-20,17
702,2180,-3,-172,-4666,23,-43,-19,17
703,2179,-3,-172,-4667,23,-43,-20,18
704,2179,-1,-173,-4668,23,-43,-19,18
705,2179,0,-173,-4667,23,-43,-19,18
706,2179,0,-172,-4668,23,-43,-19,18
707,2179,-1,-171,-4667,23,-44,-19,18
708,2179,0,-171,-4667,23,-44,-20,18
709,2178,-1,-171,-4666,23,-44,-19,18
710,2178,-2,-172,-4667,23,-44,-20,17
711,2177,-2,-171,-4666,23,-44,-20,17
712,2179,-2,-171,-4667,23,-43,-20,17
713,2179,-2,-170,-4667,23,-44,-20,17
714,2179,-3,-168,-4666,23,-44,-20,17
715,2178,-2,-170,-4665,23,-44,-20,17
716,2178,-2,-172,-4664,23,-44,-19,17
717,2179,-2,-174,-4666,23,-44,-19,18
718,2180,-2,-175,-4665,23,-44,-19,18
719,2179,-2,-174,-4665,23,-44,-19,17
720,2179,-2,-172,-4664,23,-43,-19,18
721,2179,-3,-170,-4664,23,-43,-19,18
722,2178,-3,-171,-4666,23,-44,-19,18
723,2178,-2,-170,-4666,23,-43,-19,18
724,2178,-1,-170,-4667,23,-44,-20,18
725,2178,0,-170,-4665,23,-43,-20,18
726,2176,0,-170,-4665,23,-43,-19,18
727,2177,0,-171,-4665,23,-43,-19,18
728,2177,-1,-170,-4665,23,-44,-20,17
729,2177,-2,-171,-4664,23,-44,-20,18
730,2178,-3,-170,-4666,23,-44,-20,17
731,2176,-3,-171,-4667,23,-43,-20,17
732,2177,-3,-172,-4667,23,-43,-20,17
733,2177,-4,-171,-4668,23,-43,-20,17
734,2178,-4,-172,-4666,23,-43,-20,17
735,2178,-4,-172,-4669,23,-43,-20,17
736,2178,-4,-171,-4667,23,-44,-20,17
737,2178,-3,-171,-4669,23,-44,-20,17
738,2177,-2,-170,-4668,23,-44,-20,17
739,2177,-2,-170,-4667,23,-44,-20,17
740,2178,0,-169,-4668,23,-43,-20,17
741,2177,0,-169,-4664,23,-44,-20,17
742,2178,2,-167,-4663,23,-43,-19,17
743,2178,1,-168,-4665,23,-43,-20,17
744,2178,1,-169,-4667,23,-44,-20,17
745,2179,1,-170,-4668,23,-44,-20,17
746,2180,-1,-171,-4667,23,-44,-20,17
747,2180,0,-170,-4667,23,-44,-20,17
748,2180,0,-171,-4667,23,-44,-19,17
749,2179,-2,-168,-4667,23,-44,-19,18
750,2180,-2,-169,-4666,23,-44,-20,18
751,2179,-2,-168,-4666,23,-44,-19,18
752,2180,-2,-167,-4666,23,-44,-19,17
753,2179,-2,-167,-4667,23,-44,-20,17
754,2180,-3,-168,-4668,23,-43,-20,17
755,2179,-3,-169,-4668,23,-43,-20,17
756,2179,-2,-170,-4667,23,-43,-20,17
757,2179,-1,-172,-4667,23,-43,-20,17
758,2178,-1,-172,-4667,23,-43,-20,17
759,2178,-2,-173,-4668,23,-44,-19,17
760,2178,-2,-173,-4667,23,-44,-19,17
761,2178,-1,-172,-4669,23,-44,-20,17
762,2177,-1,-172,-4670,23,-43,-19,18
763,2178,0,-173,-4669,23,-44,-19,18
764,2178,0,-172,-4668,23,-44,-20,18
765,2179,0,-173,-4668,23,-43,-20,18
766,2179,0,-173,-4665,23,-43,-20,18
767,2180,0,-171,-4665,23,-43,-20,17
768,2179,0,-172,-4665,23,-44,-20,17
769,2180,0,-173,-4667,23,-44,-20,17
770,2180,-1,-172,-4667,23,-44,-20,17
771,2178,-1,-173,-4667,23,-44,-20,17
772,2178,0,-170,-4668,23,-44,-20,17
773,2178,-1,-172,-4668,23,-44,-20,18
774,2178,0,-171,-4668,23,-44,-20,18
775,2176,0,-171,-4666,23,-44,-20,17
776,2176,1,-171,-4667,23,-44,-20,17
777,2177,2,-171,-4666,23,-44,-20,17
778,2178,0,-171,-4668,23,-43,-20,17
779,2177,1,-170,-4666,23,-43,-20,17
780,2177,1,-171,-4665,23,-43,-20,17
781,2178,-1,-171,-4666,23,-43,-20,17
782,2179,-1,-172,-4667,23,-43,-19,17
783,2178,-2,-171,-4668,23,-43,-19,17
784,2176,-3,-170,-4667,23,-43,-19,18
785,2175,-1,-170,-4666,23,-43,-19,18
786,2175,0,-170,-4668,23,-43,-19,17
787,2175,1,-171,-4668,23,-43,-20,17
788,2174,0,-169,-4666,23,-43,-20,17
789,2175,-1,-170,-4666,23,-44,-20,17
790,2177,0,-170,-4666,23,-43,-20,17
791,2177,-1,-170,-4666,23,-43,-20,17
792,2178,-1,-170,-4664,23,-43,-20,17
793,2177,0,-169,-4666,23,-43,-20,17
794,2178,-1,-170,-4664,23,-43,-20,17
795,2179,0,-170,-4663,23,-43,-20,18
796,2179,-1,-171,-4662,23,-44,-20,18
797,2179,1,-170,-4662,23,-43,-20,17
798,2179,1,-171,-4662,23,-44,-20,18
799,2179,1,-171,-4664,23,-43,-20,17
800,2179,1,-171,-4665,23,-43,-20,17
801,2179,1,-171,-4664,23,-43,-20,17
802,2178,0,-172,-4664,23,-43,-20,17
803,2178,-1,-172,-4665,23,-43,-19,17
804,2177,-2,-171,-4665,23,-43,-19,18
805,2177,-1,-170,-4667,23,-43,-19,17
806,2178,0,-168,-4666,23,-43,-19,17
807,2179,0,-167,-4665,23,-43,-19,17
808,2180,-1,-169,-4666,23,-43,-19,18
809,2180,-2,-168,-4667,23,-43,-19,18
810,2179,-3,-169,-4666,23,-44,-19,18
811,2180,-2,-170,-4668,23,-43,-19,18
812,2181,0,-170,-4667,23,-43,-19,18
813,2180,0,-170,-4665,23,-43,-20,17
814,2180,1,-169,-4665,23,-43,-19,18
815,2180,0,-170,-4665,23,-43,-19,17
816,2180,1,-170,-4663,23,-44,-19,17
817,2180,1,-169,-4662,23,-43,-19,17
818,2180,0,-170,-4662,23,-44,-19,17
819,2179,-1,-170,-4663,23,-44,-19,17
820,2179,-1,-171,-4663,23,-44,-19,17
821,2178,0,-171,-4663,23,-44,-19,17
822,2178,0,-172,-4661,23,-44,-19,17
823,2178,0,-170,-4661,23,-44,-19,18
824,2180,-1,-170,-4663,23,-44,-20,17
825,2180,-2,-172,-4663,23,-44,-19,17
826,2179,-1,-170,-4663,23,-44,-19,17
827,2180,-1,-170,-4662,23,-43,-19,17
828,2180,-1,-169,-4665,23,-43,-20,17
829,2179,-1,-169,-4665,23,-44,-19,17
830,2177,0,-168,-4664,23,-44,-19,17
831,2178,-1,-168,-4663,23,-44,-19,17
832,2178,-1,-170,-4664,23,-44,-19,17
833,2179,-2,-170,-4664,23,-44,-19,18
834,2178,-2,-172,-4664,23,-43,-19,18
835,2179,-2,-171,-4665,23,-44,-19,18
836,2178,-2,-172,-4665,23,-43,-19,18
837,2178,-2,-172,-4665,23,-43,-19,18
838,2178,-2,-173,-4666,23,-43,-19,18
839,2177,-2,-172,-4666,23,-44,-19,17
840,2177,-1,-171,-4666,23,-43,-19,17
841,2176,-1,-171,-4666,23,-44,-19,17
842,2176,-1,-170,-4665,23,-44,-19,17
843,2177,-2,-170,-4663,23,-44,-19,17
844,2177,-1,-169,-4664,23,-44,-19,17
845,2178,-2,-168,-4664,23,-44,-20,17
846,2177,-1,-167,-4665,23,-44,-20,17
847,2179,0,-167,-4665,23,-44,-20,17
848,2179,0,-167,-4666,23,-43,-20,17
849,2179,-1,-166,-4664,23,-44,-20,17
850,2179,-2,-165,-4662,23,-44,-20,17
851,2178,-2,-167,-4663,23,-44,-20,17
852,2178,-3,-169,-4664,23,-44,-20,17
853,2178,-2,-169,-4663,23,-44,-20,17
854,2179,-2,-170,-4661,23,-43,-20,17
855,2179,-3,-170,-4662,23,-43,-20,17
856,2178,-3,-169,-4662,23,-43,-20,17
857,2179,-2,-170,-4662,23,-43,-20,17
858,2178,-1,-168,-4663,23,-43,-20,17
859,2178,-2,-169,-4664,23,-43,-20,17
860,2179,-2,-169,-4664,23,-43,-20,17
861,2179,-2,-170,-4663,23,-43,-20,17
862,2180,-2,-169,-4662,23,-43,-20,17
863,2179,-2,-169,-4664,23,-43,-20,17
864,2178,-2,-170,-4665,23,-43,-20,17
865,2177,-3,-171,-4664,23,-43,-20,17
866,2176,-2,-169,-4663,23,-43,-20,17
867,2176,-3,-171,-4665,23,-43,-20,17
868,2176,-3,-170,-4665,23,-43,-20,17
869,2175,-2,-172,-4665,23,-43,-20,17
870,2175,-1,-172,-4664,23,-43,-21,17
871,2177,-1,-172,-4664,23,-43,-20,17
872,2177,-2,-174,-4664,23,-43,-20,17
873,2177,-2,-176,-4666,23,-43,-20,17
874,2178,-1,-175,-4665,23,-43,-20,17
875,2178,-2,-175,-4666,23,-43,-20,17
876,2178,-1,-173,-4666,23,-43,-20,17
877,2179,0,-170,-4667,23,-43,-20,17
878,2180,1,-170,-4666,23,-43,-20,17
879,2178,0,-170,-4666,23,-43,-20,17
880,2177,0,-169,-4664,23,-43,-20,17
881,2178,1,-170,-4665,23,-43,-20,17
882,2178,1,-170,-4665,23,-43,-20,17
883,2177,1,-171,-4665,23,-43,-20,17
884,2177,-1,-170,-4662,23,-43,-20,17
885,2177,-1,-170,-4662,23,-43,-20,17
886,2178,-3,-169,-4664,23,-43,-20,17
887,2179,-2,-169,-4665,23,-43,-20,17
888,2179,-1,-170,-4666,23,-43,-20,17
889,2178,-1,-173,-4665,23,-44,-20,17
890,2179,-1,-171,-4663,23,-44,-20,17
891,2178,-1,-172,-4665,23,-44,-20,17
892,2178,-2,-172,-4667,23,-43,-20,17
893,2178,-1,-171,-4667,23,-43,-20,17
894,2178,0,-172,-4665,23,-43,-20,18
895,2177,0,-169,-4666,23,-43,-20,17
896,2178,0,-169,-4666,23,-43,-20,17
897,2179,0,-169,-4665,23,-43,-19,17
898,2178,-1,-171,-4665,23,-44,-20,18
899,2179,-1,-171,-4665,23,-44,-19,17
900,2180,-1,-171,-4664,23,-44,-19,17
901,2180,-2,-172,-4665,23,-43,-19,17
902,2179,-2,-172,-4665,23,-43,-20,17
903,2178,-2,-172,-4666,23,-43,-20,17
904,2179,-1,-170,-4664,23,-44,-20,17
905,2178,-1,-171,-4664,23,-44,-20,17
906,2177,-1,-171,-4663,23,-44,-19,17
907,2177,0,-172,-4663,23,-44,-19,17
908,2176,1,-171,-4664,23,-43,-19,17
909,2176,1,-170,-4665,23,-43,-20,17
910,2178,1,-168,-4664,23,-43,-20,17
911,2177,2,-168,-4666,23,-44,-20,17
912,2177,1,-169,-4667,23,-44,-20,17
913,2177,-1,-169,-4666,23,-44,-20,17
914,2178,-1,-166,-4667,23,-44,-20,17
915,2176,-2,-168,-4665,23,-44,-20,17
916,2177,-2,-168,-4665,23,-44,-20,17
917,2178,-1,-168,-4665,23,-43,-20,17
918,2178,-1,-169,-4665,23,-44,-20,17
919,2178,-2,-172,-4663,23,-44,-20,17
920,2178,-1,-173,-4663,23,-43,-20,17
921,2177,0,-174,-4664,23,-44,-20,17
922,2177,-1,-175,-4664,23,-44,-20,17
923,2176,0,-174,-4664,23,-43,-20,17
924,2176,-1,-174,-4664,23,-43,-20,17
925,2176,-1,-176,-4664,23,-43,-20,17
926,2176,-1,-173,-4664,23,-43,-20,17
927,2176,-1,-174,-4664,23,-43,-20,17
928,2177,-1,-175,-4665,23,-43,-20,17
929,2177,-1,-175,-4666,23,-43,-20,17
930,2177,-2,-174,-4664,23,-43,-20,18
931,2178,-3,-174,-4663,23,-44,-20,17
932,2178,-2,-173,-4664,23,-44,-20,17
933,2178,-1,-172,-4663,23,-43,-20,17
934,2178,-1,-171,-4664,23,-43,-20,17
935,2179,0,-170,-4663,23,-44,-19,17
936,2179,0,-169,-4663,23,-44,-20,17
937,2179,-1,-169,-4664,23,-43,-20,17
938,2178,-1,-168,-4664,23,-44,-20,17
939,2178,-1,-170,-4664,23,-44,-20,17
940,2178,-2,-171,-4663,23,-43,-20,17
941,2179,-1,-171,-4662,23,-43,-19,17
942,2178,0,-170,-4664,23,-44,-19,17
943,2178,-1,-170,-4664,23,-43,-19,17
944,2178,-1,-171,-4666,23,-44,-19,17
945,2179,-1,-171,-4666,23,-43,-19,17
946,2179,-1,-170,-4666,23,-43,-19,17
947,2178,0,-172,-4665,23,-43,-19,18
948,2179,0,-173,-4665,23,-43,-19,18
949,2179,1,-171,-4665,23,-43,-19,18
950,2178,2,-170,-4664,23,-44,-19,17
951,2179,2,-169,-4664,23,-44,-19,17
952,2178,1,-168,-4663,23,-44,-19,18
953,2177,0,-168,-4664,23,-43,-19,18
954,2178,0,-169,-4665,23,-44,-19,18
955,2178,-1,-170,-4665,23,-44,-19,18
956,2178,0,-168,-4664,23,-44,-19,17
957,2178,0,-171,-4661,23,-44,-19,17
958,2178,0,-171,-4661,23,-44,-19,18
959,2179,0,-171,-4662,23,-44,-19,18
960,2180,0,-172,-4662,23,-44,-19,17
961,2179,0,-170,-4660,23,-44,-19,17
962,2179,0,-169,-4661,23,-43,-19,18
963,2178,1,-166,-4661,23,-43,-19,18
964,2179,1,-168,-4663,23,-43,-19,18
965,2179,1,-169,-4663,23,-43,-20,17
966,2180,1,-169,-4663,23,-43,-20,17
967,2179,0,-168,-4664,23,-43,-20,18
968,2180,0,-170,-4663,23,-43,-20,17
969,2179,0,-169,-4663,23,-43,-20,17
970,2180,0,-170,-4664,23,-43,-20,17
971,2178,-1,-172,-4666,23,-43,-20,17
972,2178,-1,-169,-4667,23,-43,-20,17
973,2178,-1,-170,-4667,23,-44,-20,17
974,2178,-1,-170,-4665,23,-44,-20,17
975,2178,0,-170,-4665,23,-44,-19,17
976,2178,-1,-170,-4665,23,-44,-20,17
977,2178,0,-173,-4665,23,-44,-20,17
978,2179,2,-171,-4667,23,-44,-20,17
979,2178,1,-171,-4667,23,-44,-20,17
980,2179,-1,-171,-4668,23,-44,-20,17
981,2178,1,-171,-4669,23,-44,-19,17
982,2177,0,-171,-4666,23,-44,-19,17
983,2176,-1,-171,-4667,23,-44,-19,17
984,2176,-1,-171,-4667,23,-43,-19,17
985,2177,0,-171,-4669,23,-44,-19,17
986,2177,0,-172,-4668,23,-44,-19,18
987,2177,0,-172,-4668,23,-44,-19,17
988,2176,1,-170,-4667,23,-44,-20,18
989,2177,0,-170,-4666,23,-44,-20,17
990,2176,-1,-169,-4665,23,-44,-20,17
991,2177,-1,-168,-4665,23,-44,-20,17
992,2178,-1,-168,-4663,23,-44,-20,17
993,2179,-2,-171,-4663,23,-44,-20,17
994,2177,-1,-171,-4664,23,-43,-20,17
995,2179,0,-171,-4664,23,-44,-20,18
996,2179,0,-172,-4664,23,-43,-20,18
997,2178,1,-171,-4663,23,-43,-20,18
998,2177,1,-169,-4663,23,-43,-20,17
