,acc_X,acc_Y,acc_Z,temp,tempC,gyr_X,gyr_Y,gyr_Z
0,8703,-2,-952,-4604,23,-175,-77,69
1,8702,-3,-950,-4604,23,-175,-78,69
2,8703,0,-953,-4603,23,-175,-77,70
3,8707,-4,-965,-4600,23,-175,-78,70
4,8703,-2,-956,-4600,23,-175,-77,71
5,8708,-2,-958,-4600,23,-174,-78,71
6,8708,-3,-966,-4598,23,-174,-77,71
7,8708,-4,-963,-4599,23,-173,-77,71
8,8711,-6,-961,-4597,23,-173,-76,70
9,8709,-6,-964,-4595,23,-173,-76,70
10,8711,-3,-965,-4596,23,-173,-76,71
11,8710,-6,-962,-4598,23,-173,-76,70
12,8709,-5,-968,-4597,23,-173,-76,71
13,8707,-2,-964,-4597,23,-173,-76,71
14,8707,2,-964,-4597,23,-174,-75,71
15,8705,3,-958,-4596,23,-173,-76,71
16,8709,1,-953,-4597,23,-173,-76,71
17,8706,-1,-947,-4597,23,-173,-76,71
18,8702,-1,-950,-4596,23,-173,-75,71
19,8699,-1,-958,-4596,23,-173,-75,70
20,8695,-1,-964,-4596,23,-173,-76,70
21,8699,2,-958,-4596,23,-173,-77,71
22,8697,-1,-962,-4594,23,-174,-77,71
23,8699,1,-952,-4594,23,-174,-77,71
24,8703,-3,-957,-4594,23,-174,-77,70
25,8704,0,-959,-4596,23,-174,-78,70
26,8703,-2,-958,-4596,23,-174,-78,70
27,8704,-5,-953,-4597,23,-173,-77,69
28,8708,-4,-957,-4595,23,-173,-79,69
29,8707,-7,-963,-4595,23,-173,-78,68
30,8709,-7,-964,-4596,23,-173,-78,68
31,8708,-7,-961,-4595,23,-173,-78,67
32,8710,-12,-966,-4593,23,-171,-78,68
33,8712,-12,-963,-4595,23,-172,-77,68
34,8713,-12,-967,-4595,23,-172,-77,68
35,8707,-2,-961,-4595,23,-172,-77,69
36,8707,-1,-966,-4596,23,-172,-77,69
37,8704,-3,-964,-4597,23,-173,-76,69
38,8707,1,-964,-4597,23,-172,-76,69
39,8703,-3,-967,-4598,23,-174,-76,69
40,8704,-3,-970,-4597,23,-173,-77,69
41,8704,-3,-974,-4597,23,-173,-77,69
42,8703,-2,-974,-4597,23,-173,-77,69
43,8704,-6,-975,-4596,23,-173,-77,70
44,8701,-8,-968,-4597,23,-173,-77,70
45,8703,-11,-969,-4597,23,-173,-78,70
46,8706,-17,-968,-4597,23,-174,-78,71
47,8705,-16,-964,-4596,23,-173,-77,70
48,8706,-11,-971,-4596,23,-173,-77,69
49,8704,-10,-965,-4596,23,-173,-77,70
50,8700,-9,-964,-4595,23,-172,-77,71
51,8701,-9,-962,-4593,23,-173,-77,70
52,8706,-6,-967,-4592,23,-172,-77,70
53,8705,2,-969,-4591,23,-172,-76,70
54,8708,1,-969,-4592,23,-172,-77,70
55,8710,4,-971,-4592,23,-171,-76,70
56,8712,7,-972,-4591,23,-171,-75,70
57,8710,4,-967,-4593,23,-172,-75,69
58,8710,2,-966,-4593,23,-173,-78,70
59,8706,5,-969,-4594,23,-173,-78,70
60,8703,1,-973,-4594,23,-174,-78,70
61,8704,3,-968,-4594,23,-174,-78,70
62,8704,-3,-961,-4594,23,-175,-78,70
63,8704,0,-958,-4594,23,-174,-78,70
64,8706,1,-963,-4594,23,-174,-78,71
65,8714,1,-967,-4595,23,-173,-77,69
66,8711,-1,-969,-4595,23,-173,-77,69
67,8710,-1,-967,-4595,23,-174,-77,68
68,8708,-1,-961,-4594,23,-173,-77,68
69,8708,-2,-961,-4593,23,-173,-77,69
70,8708,-1,-960,-4593,23,-174,-77,69
71,8704,0,-966,-4591,23,-173,-77,69
72,8700,2,-968,-4593,23,-174,-77,70
73,8704,6,-966,-4592,23,-173,-78,70
74,8704,4,-964,-4591,23,-173,-78,72
75,8703,2,-959,-4591,23,-172,-78,73
76,8704,-3,-958,-4592,23,-172,-76,72
77,8705,-1,-956,-4590,23,-172,-76,71
78,8709,-2,-952,-4592,23,-172,-77,72
79,8708,1,-955,-4593,23,-173,-78,72
80,8706,-2,-959,-4590,23,-173,-79,71
81,8706,-3,-964,-4588,23,-173,-78,70
82,8703,1,-965,-4588,23,-173,-79,69
83,8702,-4,-961,-4589,23,-172,-79,70
84,8704,-1,-967,-4589,23,-172,-79,70
85,8706,-3,-962,-4588,23,-173,-79,70
86,8705,-6,-961,-4589,23,-173,-78,70
87,8706,-5,-964,-4589,23,-173,-78,70
88,8703,-1,-962,-4591,23,-172,-78,70
89,8704,-3,-964,-4590,23,-172,-77,70
90,8704,-5,-965,-4588,23,-172,-77,70
91,8701,-6,-965,-4586,23,-172,-78,71
92,8700,-7,-966,-4588,23,-171,-77,72
93,8697,-8,-958,-4586,23,-172,-77,71
94,8697,-6,-959,-4588,23,-172,-76,71
95,8699,-4,-957,-4589,23,-171,-77,70
96,8700,-5,-955,-4590,23,-172,-78,71
97,8702,-2,-953,-4592,23,-172,-78,71
98,8702,-2,-954,-4593,23,-173,-78,70
99,8706,-2,-953,-4594,23,-172,-77,70
100,8710,-2,-958,-4592,23,-172,-78,71
101,8706,-6,-960,-4592,23,-172,-78,70
102,8705,-6,-961,-4591,23,-173,-77,71
103,8708,-6,-964,-4592,23,-172,-79,71
104,8706,-6,-961,-4591,23,-172,-78,72
105,8705,-3,-964,-4591,23,-172,-78,71
106,8703,-3,-966,-4589,23,-173,-77,72
107,8704,-4,-961,-4591,23,-172,-76,72
108,8705,-4,-961,-4590,23,-172,-77,72
109,8706,-5,-957,-4590,23,-172,-78,71
110,8703,-8,-961,-4589,23,-173,-78,71
111,8705,-7,-959,-4590,23,-173,-78,70
112,8710,-5,-961,-4590,23,-173,-77,70
113,8702,0,-961,-4592,23,-174,-77,70
114,8702,-1,-960,-4592,23,-173,-77,71
115,8704,0,-961,-4591,23,-173,-77,71
116,8706,-3,-967,-4590,23,-173,-77,70
117,8709,-4,-966,-4591,23,-173,-78,69
118,8712,-4,-970,-4590,23,-172,-78,70
119,8704,-6,-972,-4592,23,-173,-77,70
120,8702,-4,-977,-4593,23,-172,-78,70
121,8703,0,-975,-4594,23,-171,-78,71
122,8703,-4,-967,-4593,23,-172,-78,71
123,8703,-4,-961,-4591,23,-172,-77,71
124,8708,-5,-962,-4590,23,-173,-76,71
125,8711,-4,-966,-4590,23,-173,-77,71
126,8717,-3,-959,-4589,23,-172,-77,70
127,8713,-4,-966,-4589,23,-172,-78,70
128,8709,-5,-963,-4589,23,-173,-78,71
129,8706,1,-957,-4591,23,-173,-78,70
130,8704,-2,-964,-4591,23,-173,-76,71
131,8701,0,-961,-4591,23,-173,-77,70
132,8701,1,-962,-4591,23,-172,-78,71
133,8704,5,-970,-4590,23,-173,-78,71
134,8704,5,-957,-4591,23,-172,-77,71
135,8703,2,-959,-4593,23,-173,-77,70
136,8708,2,-958,-4592,23,-172,-77,71
137,8709,5,-957,-4591,23,-172,-78,72
138,8706,5,-957,-4591,23,-172,-77,72
139,8697,3,-965,-4592,23,-173,-78,71
140,8698,1,-960,-4590,23,-173,-78,70
141,8698,3,-957,-4590,23,-173,-79,71
142,8697,0,-956,-4589,23,-172,-79,70
143,8697,-5,-956,-4588,23,-173,-79,70
144,8696,-8,-959,-4588,23,-173,-78,71
145,8695,-7,-959,-4589,23,-173,-77,71
146,8696,-9,-955,-4588,23,-173,-77,71
147,8695,-7,-954,-4588,23,-172,-78,71
148,8694,-9,-948,-4587,23,-173,-78,71
149,8699,-7,-946,-4587,23,-172,-77,70
150,8701,-8,-957,-4587,23,-174,-78,70
151,8706,-6,-963,-4587,23,-174,-77,71
152,8709,-1,-968,-4587,23,-172,-77,71
153,8708,-1,-966,-4587,23,-172,-78,71
154,8707,3,-967,-4588,23,-172,-78,70
155,8711,4,-968,-4588,23,-172,-78,69
156,8709,-1,-962,-4587,23,-172,-78,69
157,8714,-3,-959,-4586,23,-172,-78,70
158,8713,-7,-956,-4586,23,-172,-78,69
159,8709,-8,-954,-4586,23,-173,-77,69
160,8705,-12,-954,-4586,23,-173,-77,69
161,8707,-11,-952,-4586,23,-172,-76,70
162,8707,-7,-951,-4587,23,-172,-76,70
163,8706,-4,-953,-4587,23,-172,-76,69
164,8705,-4,-962,-4588,23,-172,-77,69
165,8705,-3,-960,-4588,23,-172,-78,69
166,8705,-5,-968,-4589,23,-173,-78,69
167,8704,-3,-967,-4588,23,-173,-77,69
168,8698,2,-967,-4588,23,-173,-78,69
169,8699,2,-963,-4587,23,-173,-77,69
170,8703,1,-961,-4587,23,-173,-77,70
171,8701,4,-968,-4588,23,-174,-77,69
172,8697,3,-973,-4589,23,-173,-77,70
173,8699,0,-973,-4590,23,-173,-76,70
174,8699,-3,-973,-4589,23,-173,-77,70
175,8701,-2,-967,-4589,23,-173,-77,71
176,8703,-1,-963,-4590,23,-173,-77,71
177,8706,0,-962,-4588,23,-173,-78,70
178,8707,3,-957,-4587,23,-173,-78,70
179,8702,2,-958,-4586,23,-172,-78,71
180,8705,0,-961,-4587,23,-172,-77,70
181,8710,1,-965,-4588,23,-173,-76,70
182,8706,-5,-967,-4589,23,-172,-76,69
183,8705,-2,-969,-4588,23,-173,-77,71
184,8704,3,-967,-4590,23,-172,-77,70
185,8703,6,-961,-4590,23,-172,-77,71
186,8704,6,-959,-4588,23,-172,-76,69
187,8700,6,-961,-4588,23,-172,-76,70
188,8699,2,-971,-4589,23,-172,-77,70
189,8729,8,-981,-4590,23,-172,-79,70
190,8723,3,-964,-4590,23,-173,-75,70
191,8697,0,-1003,-4592,23,-174,-74,72
192,8714,3,-972,-4592,23,-173,-74,72
193,8708,4,-984,-4591,23,-174,-74,72
194,8692,-5,-969,-4589,23,-174,-71,73
195,8702,3,-974,-4589,23,-173,-75,73
196,8701,2,-961,-4588,23,-172,-72,72
197,8695,-1,-963,-4587,23,-172,-74,72
198,8698,-5,-950,-4587,23,-171,-72,72
199,8701,-6,-953,-4588,23,-172,-75,72
200,8698,-4,-946,-4586,23,-172,-73,72
201,8690,-7,-941,-4587,23,-172,-73,71
202,8717,-1,-930,-4587,23,-172,-78,70
203,8735,-2,-931,-4586,23,-172,-77,70
204,8702,-12,-937,-4586,23,-171,-79,69
205,8714,-3,-953,-4586,23,-172,-80,69
206,8725,-1,-954,-4585,23,-172,-81,69
207,8705,-6,-959,-4585,23,-173,-78,68
208,8703,-7,-956,-4584,23,-173,-80,69
209,8707,-3,-966,-4585,23,-173,-79,69
210,8702,-9,-960,-4584,23,-173,-82,69
211,8698,-10,-970,-4586,23,-173,-82,68
212,8705,-10,-972,-4585,23,-173,-83,67
213,8710,-10,-969,-4584,23,-172,-82,66
214,8702,-7,-973,-4585,23,-172,-83,67
215,8706,-6,-986,-4588,23,-172,-83,68
216,8701,-10,-975,-4588,23,-172,-82,68
217,8703,-2,-972,-4587,23,-172,-81,68
218,8708,1,-968,-4587,23,-172,-79,68
219,8711,5,-955,-4587,23,-173,-78,68
220,8711,4,-955,-4586,23,-173,-78,69
221,8712,6,-954,-4585,23,-172,-78,69
222,8709,12,-959,-4586,23,-172,-77,69
223,8702,12,-962,-4586,23,-172,-76,70
224,8698,13,-958,-4588,23,-172,-76,69
225,8700,13,-954,-4587,23,-173,-76,70
226,8702,7,-957,-4586,23,-173,-77,69
227,8703,-3,-961,-4585,23,-173,-78,69
228,8705,0,-955,-4586,23,-173,-78,67
229,8713,-5,-954,-4585,23,-174,-78,68
230,8711,-7,-959,-4585,23,-174,-79,69
231,8708,-9,-968,-4585,23,-173,-78,69
232,8703,-12,-964,-4584,23,-173,-77,70
233,8699,-10,-968,-4584,23,-173,-77,70
234,8694,-10,-964,-4586,23,-172,-77,70
235,8695,-12,-964,-4586,23,-172,-77,70
236,8700,-10,-965,-4585,23,-172,-75,69
237,8701,-6,-972,-4584,23,-172,-75,69
238,8703,-9,-966,-4586,23,-171,-75,70
239,8697,-8,-963,-4585,23,-172,-75,69
240,8698,-5,-960,-4586,23,-173,-74,71
241,8703,1,-961,-4588,23,-172,-74,71
242,8709,4,-957,-4586,23,-171,-74,71
243,8711,3,-955,-4587,23,-171,-74,70
244,8707,-3,-949,-4586,23,-171,-75,71
245,8711,-2,-952,-4584,23,-172,-75,70
246,8712,0,-952,-4584,23,-172,-75,70
247,8711,-6,-954,-4585,23,-172,-75,69
248,8712,-5,-955,-4585,23,-171,-76,71
249,8704,-6,-955,-4586,23,-172,-76,72
250,8701,-7,-963,-4588,23,-173,-76,72
251,8705,-11,-961,-4586,23,-173,-75,72
252,8705,-12,-962,-4585,23,-173,-75,72
253,8708,-12,-965,-4585,23,-173,-76,71
254,8705,-7,-955,-4584,23,-172,-76,71
255,8701,-9,-953,-4584,23,-172,-76,71
256,8702,-8,-952,-4585,23,-172,-78,71
257,8703,-5,-946,-4585,23,-172,-78,70
258,8709,-5,-945,-4584,23,-172,-77,70
259,8711,-5,-947,-4584,23,-172,-78,70
260,8709,-9,-949,-4584,23,-173,-80,70
261,8710,-8,-951,-4584,23,-173,-81,70
262,8714,-11,-948,-4583,23,-173,-81,69
263,8710,-9,-951,-4583,23,-173,-81,69
264,8708,-7,-958,-4585,23,-174,-81,69
265,8707,-4,-962,-4584,23,-174,-81,69
266,8704,-5,-958,-4584,23,-173,-82,69
267,8700,-6,-964,-4585,23,-174,-81,69
268,8706,-8,-957,-4584,23,-174,-81,70
269,8711,-2,-959,-4583,23,-173,-80,69
270,8710,-2,-965,-4584,23,-173,-79,70
271,8708,2,-977,-4584,23,-172,-78,69
272,8708,2,-973,-4583,23,-172,-76,71
273,8710,1,-967,-4582,23,-173,-76,72
274,8708,-1,-959,-4584,23,-172,-75,72
275,8708,1,-957,-4584,23,-172,-74,73
276,8709,0,-959,-4584,23,-172,-75,73
277,8705,-2,-954,-4584,23,-172,-75,73
278,8705,-3,-955,-4583,23,-172,-75,72
279,8710,0,-950,-4585,23,-171,-74,73
280,8710,-4,-956,-4584,23,-171,-74,72
281,8707,-6,-964,-4586,23,-171,-74,72
282,8703,-9,-961,-4586,23,-172,-74,72
283,8705,-2,-958,-4585,23,-173,-75,71
284,8703,-5,-961,-4586,23,-172,-76,71
285,8703,-7,-958,-4585,23,-172,-77,71
286,8702,-5,-958,-4585,23,-172,-76,70
287,8708,-5,-954,-4586,23,-172,-77,70
288,8707,-1,-956,-4586,23,-172,-78,71
289,8707,-3,-956,-4582,23,-171,-79,71
290,8709,-4,-961,-4582,23,-172,-79,71
291,8706,-7,-955,-4583,23,-173,-79,70
292,8705,-7,-956,-4584,23,-172,-78,70
293,8711,-4,-960,-4584,23,-172,-78,70
294,8713,-8,-965,-4584,23,-171,-77,70
295,8711,-10,-961,-4585,23,-171,-77,69
296,8711,-8,-960,-4585,23,-173,-77,69
297,8708,-8,-958,-4586,23,-174,-76,68
298,8707,-5,-950,-4586,23,-174,-76,69
299,8711,-3,-966,-4586,23,-174,-76,69
300,8714,-3,-966,-4584,23,-173,-76,69
301,8718,-6,-963,-4585,23,-173,-78,68
302,8718,-8,-963,-4586,23,-173,-78,68
303,8715,-2,-964,-4584,23,-172,-79,68
304,8713,-3,-968,-4585,23,-172,-79,68
305,8714,-1,-970,-4586,23,-173,-79,69
306,8710,1,-966,-4587,23,-174,-79,69
307,8710,3,-968,-4586,23,-173,-79,70
308,8709,2,-964,-4587,23,-173,-78,69
309,8709,2,-962,-4586,23,-172,-77,70
310,8708,1,-963,-4585,23,-172,-77,71
311,8709,5,-959,-4585,23,-173,-76,70
312,8705,7,-956,-4584,23,-173,-77,71
313,8698,11,-959,-4585,23,-173,-77,72
314,8698,12,-960,-4583,23,-173,-78,72
315,8699,8,-957,-4585,23,-174,-77,72
316,8701,7,-956,-4586,23,-173,-75,71
317,8700,5,-957,-4586,23,-173,-76,71
318,8698,11,-958,-4585,23,-173,-77,71
319,8697,9,-961,-4588,23,-173,-77,71
320,8697,5,-964,-4588,23,-173,-78,72
321,8698,1,-958,-4587,23,-173,-77,71
322,8700,2,-955,-4587,23,-172,-76,72
323,8701,2,-958,-4584,23,-171,-76,72
324,8707,0,-968,-4584,23,-171,-77,73
325,8707,-2,-969,-4585,23,-171,-77,72
326,8700,2,-968,-4584,23,-171,-77,73
327,8702,-1,-964,-4584,23,-171,-76,73
328,8703,-1,-963,-4586,23,-172,-75,72
329,8704,-4,-962,-4587,23,-172,-75,72
330,8700,-2,-966,-4586,23,-173,-75,73
331,8697,-3,-966,-4585,23,-173,-75,71
332,8702,-6,-968,-4585,23,-173,-74,71
333,8711,-10,-963,-4586,23,-174,-75,72
334,8711,-5,-965,-4587,23,-173,-75,71
335,8709,-7,-963,-4587,23,-173,-76,70
336,8706,-7,-961,-4586,23,-173,-76,70
337,8708,0,-967,-4585,23,-173,-78,71
338,8704,2,-964,-4585,23,-173,-79,71
339,8704,-4,-969,-4586,23,-173,-79,71
340,8705,-1,-967,-4586,23,-174,-78,71
341,8705,8,-967,-4587,23,-174,-78,72
342,8707,4,-967,-4585,23,-174,-78,71
343,8708,4,-956,-4585,23,-174,-79,70
344,8709,0,-953,-4583,23,-172,-78,71
345,8708,-4,-956,-4582,23,-172,-79,70
346,8708,2,-966,-4584,23,-172,-80,71
347,8707,0,-966,-4587,23,-172,-79,70
348,8711,-6,-970,-4586,23,-172,-80,71
349,8710,-6,-978,-4587,23,-172,-79,71
350,8713,-7,-974,-4587,23,-172,-79,70
351,8708,-5,-969,-4586,23,-173,-77,70
352,8712,-4,-970,-4586,23,-172,-77,69
353,8714,-6,-971,-4586,23,-172,-78,70
354,8713,-7,-962,-4586,23,-173,-77,69
355,8713,-1,-961,-4586,23,-173,-77,69
356,8712,1,-960,-4587,23,-174,-77,70
357,8707,5,-961,-4585,23,-174,-77,70
358,8709,-2,-953,-4585,23,-173,-77,70
359,8709,-6,-956,-4586,23,-173,-77,70
360,8707,-4,-963,-4584,23,-172,-77,70
361,8704,-5,-961,-4584,23,-172,-78,69
362,8704,-8,-954,-4584,23,-172,-79,70
363,8704,-5,-957,-4586,23,-173,-78,70
364,8700,-2,-962,-4587,23,-173,-77,71
365,8701,-4,-965,-4587,23,-172,-76,71
366,8700,-4,-956,-4586,23,-173,-76,71
367,8702,-1,-961,-4585,23,-172,-77,70
368,8699,-3,-963,-4585,23,-172,-77,71
369,8698,-3,-963,-4586,23,-172,-77,71
370,8702,-3,-965,-4585,23,-172,-77,71
371,8703,-3,-962,-4584,23,-172,-78,70
372,8701,-5,-955,-4586,23,-171,-78,69
373,8706,-7,-955,-4583,23,-172,-78,69
374,8708,-7,-957,-4581,23,-172,-78,70
375,8707,-6,-954,-4583,23,-173,-79,70
376,8704,-7,-952,-4582,23,-173,-79,71
377,8708,-5,-954,-4582,23,-174,-78,70
378,8704,-4,-952,-4581,23,-174,-78,71
379,8708,1,-960,-4581,23,-172,-78,70
380,8707,0,-960,-4582,23,-172,-78,70
381,8707,-3,-969,-4581,23,-173,-78,69
382,8709,-6,-964,-4580,23,-173,-79,69
383,8712,-3,-966,-4579,23,-174,-78,69
384,8707,-3,-966,-4579,23,-174,-77,68
385,8712,-6,-967,-4579,23,-174,-78,68
386,8712,3,-974,-4581,23,-174,-79,69
387,8712,0,-969,-4582,23,-174,-77,69
388,8712,-4,-962,-4582,23,-173,-77,70
389,8712,-1,-964,-4583,23,-172,-76,71
390,8710,0,-969,-4582,23,-173,-76,71
391,8710,-4,-973,-4584,23,-172,-76,71
392,8712,-2,-970,-4582,23,-172,-76,70
393,8712,0,-967,-4582,23,-173,-77,69
394,8712,2,-959,-4583,23,-173,-77,69
395,8707,-2,-959,-4582,23,-173,-77,69
396,8710,-7,-959,-4581,23,-173,-76,70
397,8706,-8,-963,-4582,23,-172,-76,70
398,8704,-4,-955,-4580,23,-172,-75,71
399,8704,-3,-957,-4580,23,-173,-76,71
400,8708,-3,-963,-4582,23,-174,-76,70
401,8705,-1,-965,-4581,23,-173,-76,70
402,8707,1,-964,-4583,23,-173,-74,70
403,8713,2,-960,-4584,23,-173,-75,70
404,8707,0,-962,-4583,23,-173,-75,70
405,8709,0,-965,-4584,23,-174,-75,71
406,8706,2,-967,-4581,23,-173,-76,71
407,8707,-6,-963,-4583,23,-172,-77,71
408,8699,-7,-960,-4583,23,-172,-76,72
409,8701,-7,-965,-4583,23,-172,-76,72
410,8700,-6,-958,-4583,23,-172,-77,71
411,8702,-5,-957,-4583,23,-173,-78,71
412,8707,-5,-954,-4580,23,-172,-79,70
413,8707,-3,-953,-4579,23,-172,-79,69
414,8707,-2,-954,-4580,23,-172,-79,70
415,8706,-5,-952,-4579,23,-172,-79,69
416,8712,-3,-955,-4581,23,-173,-80,69
417,8707,-3,-950,-4581,23,-172,-80,70
418,8709,-3,-953,-4580,23,-173,-80,70
419,8711,-3,-952,-4580,23,-172,-80,70
420,8711,-3,-958,-4579,23,-172,-80,69
421,8709,-5,-959,-4579,23,-173,-80,70
422,8709,-3,-962,-4580,23,-173,-80,69
423,8707,-3,-958,-4578,23,-172,-80,69
424,8702,-6,-955,-4580,23,-171,-80,69
425,8701,-15,-966,-4578,23,-172,-79,70
426,8709,-12,-960,-4578,23,-173,-79,69
427,8706,-8,-962,-4580,23,-173,-80,70
428,8706,-8,-962,-4578,23,-173,-80,70
429,8704,-6,-966,-4579,23,-172,-78,71
430,8708,-9,-964,-4578,23,-173,-80,70
431,8709,-8,-966,-4579,23,-174,-78,69
432,8703,-5,-961,-4579,23,-174,-78,69
433,8706,-8,-967,-4580,23,-173,-79,69
434,8709,-3,-965,-4580,23,-172,-79,69
435,8708,-5,-966,-4581,23,-172,-79,69
436,8704,-3,-969,-4581,23,-172,-78,69
437,8703,-9,-966,-4581,23,-172,-77,70
438,8704,-16,-964,-4584,23,-172,-77,71
439,8706,-11,-956,-4586,23,-172,-76,70
440,8708,-9,-951,-4583,23,-172,-76,71
441,8707,-11,-953,-4582,23,-173,-76,71
442,8706,-8,-955,-4581,23,-173,-76,70
443,8704,-10,-953,-4582,23,-173,-76,70
444,8706,-11,-960,-4582,23,-173,-76,69
445,8705,-13,-957,-4582,23,-173,-76,70
446,8707,-12,-955,-4581,23,-173,-76,69
447,8710,-8,-951,-4579,23,-172,-75,70
448,8709,-6,-950,-4580,23,-172,-74,70
449,8712,-6,-952,-4580,23,-172,-75,71
450,8715,-2,-942,-4580,23,-172,-77,71
451,8709,-1,-942,-4579,23,-173,-76,70
452,8705,-2,-944,-4581,23,-172,-77,71
453,8706,2,-952,-4584,23,-172,-76,70
454,8704,-2,-951,-4584,23,-171,-77,70
455,8699,1,-949,-4581,23,-172,-76,70
456,8703,6,-960,-4582,23,-173,-77,70
457,8704,0,-954,-4583,23,-173,-78,69
458,8700,-7,-959,-4582,23,-172,-78,70
459,8708,-4,-958,-4582,23,-172,-79,71
460,8707,-1,-956,-4580,23,-172,-79,70
461,8709,0,-956,-4581,23,-172,-78,70
462,8709,-1,-967,-4580,23,-172,-79,70
463,8711,3,-969,-4580,23,-172,-79,70
464,8708,7,-970,-4580,23,-172,-79,69
465,8709,5,-973,-4581,23,-172,-79,69
466,8708,1,-971,-4582,23,-172,-77,70
467,8706,5,-967,-4581,23,-173,-78,70
468,8702,4,-971,-4582,23,-173,-78,70
469,8703,7,-974,-4580,23,-172,-77,70
470,8706,4,-977,-4578,23,-172,-78,70
471,8701,6,-973,-4579,23,-173,-77,70
472,8702,3,-966,-4580,23,-172,-76,70
473,8702,3,-962,-4582,23,-173,-77,70
474,8701,0,-963,-4585,23,-173,-76,70
475,8706,-1,-966,-4584,23,-173,-76,71
476,8706,-3,-973,-4585,23,-173,-77,71
477,8712,0,-975,-4584,23,-173,-77,71
478,8711,0,-972,-4585,23,-173,-76,70
479,8711,2,-964,-4583,23,-172,-76,70
480,8709,5,-966,-4581,23,-172,-76,70
481,8709,-2,-961,-4579,23,-172,-77,70
482,8712,-2,-961,-4580,23,-172,-77,69
483,8708,-4,-964,-4580,23,-173,-76,69
484,8709,0,-964,-4579,23,-172,-76,70
485,8708,-1,-966,-4579,23,-172,-76,69
486,8702,0,-963,-4579,23,-172,-76,70
487,8702,-2,-967,-4580,23,-173,-76,70
488,8702,-4,-959,-4580,23,-174,-76,70
489,8700,-3,-956,-4577,23,-174,-76,70
490,8698,-6,-959,-4579,23,-172,-76,70
491,8698,-6,-959,-4580,23,-173,-76,70
492,8705,-4,-967,-4580,23,-173,-77,70
493,8705,-5,-962,-4581,23,-173,-78,69
494,8707,-6,-967,-4581,23,-172,-78,69
495,8707,-4,-958,-4583,23,-172,-77,71
496,8704,1,-962,-4583,23,-172,-76,70
497,8707,1,-959,-4584,23,-173,-76,70
498,8709,-3,-956,-4583,23,-172,-77,70
499,8710,-3,-959,-4583,23,-172,-76,69
500,8709,-6,-960,-4582,23,-173,-77,69
501,8712,-7,-962,-4583,23,-173,-77,70
502,8711,-4,-960,-4582,23,-173,-77,70
503,8714,-5,-965,-4583,23,-174,-78,69
504,8711,-3,-969,-4583,23,-173,-78,69
505,8707,-3,-974,-4581,23,-172,-79,69
506,8707,-1,-971,-4579,23,-174,-79,69
507,8706,0,-966,-4578,23,-173,-78,69
508,8710,-2,-961,-4579,23,-173,-78,69
509,8709,-1,-965,-4581,23,-173,-80,70
510,8708,-2,-961,-4579,23,-173,-80,70
511,8703,0,-963,-4580,23,-173,-79,70
512,8707,-3,-968,-4579,23,-173,-79,70
513,8708,2,-965,-4580,23,-173,-79,71
514,8707,2,-964,-4579,23,-173,-78,71
515,8709,0,-962,-4580,23,-174,-77,71
516,8705,0,-958,-4581,23,-173,-76,71
517,8702,-4,-956,-4580,23,-174,-76,71
518,8706,-4,-953,-4581,23,-173,-75,72
519,8708,-2,-955,-4580,23,-173,-75,72
520,8709,-4,-957,-4582,23,-173,-76,72
521,8705,-7,-958,-4582,23,-172,-77,73
522,8709,-11,-962,-4581,23,-172,-76,72
523,8704,-11,-956,-4582,23,-172,-77,71
524,8702,-12,-960,-4580,23,-172,-77,71
525,8703,-9,-959,-4580,23,-172,-77,73
526,8702,-10,-965,-4579,23,-172,-77,71
527,8704,-10,-966,-4579,23,-172,-77,71
528,8699,-8,-967,-4578,23,-172,-77,72
529,8701,-9,-964,-4579,23,-172,-77,71
530,8700,-14,-962,-4581,23,-172,-76,71
531,8698,-10,-969,-4583,23,-172,-76,70
532,8695,-4,-967,-4583,23,-172,-76,70
533,8692,-2,-959,-4582,23,-171,-76,70
534,8692,1,-957,-4582,23,-171,-76,69
535,8693,2,-953,-4580,23,-172,-76,68
536,8692,0,-951,-4579,23,-172,-76,68
537,8692,1,-958,-4579,23,-173,-77,69
538,8699,-3,-964,-4581,23,-173,-78,70
539,8701,-3,-955,-4580,23,-173,-79,70
540,8697,0,-956,-4580,23,-173,-80,70
541,8696,-3,-966,-4581,23,-173,-79,70
542,8703,-6,-965,-4580,23,-173,-78,69
543,8709,-2,-968,-4579,23,-173,-78,71
544,8704,-5,-966,-4578,23,-173,-80,70
545,8702,-2,-967,-4579,23,-173,-79,70
546,8702,-3,-972,-4580,23,-174,-78,70
547,8702,-1,-971,-4581,23,-174,-78,71
548,8701,2,-961,-4581,23,-173,-79,71
549,8699,2,-965,-4583,23,-173,-79,70
550,8697,-1,-962,-4583,23,-174,-78,70
551,8703,3,-957,-4584,23,-174,-79,71
552,8704,-2,-954,-4581,23,-174,-78,70
553,8701,-6,-950,-4581,23,-173,-77,70
554,8703,-5,-948,-4583,23,-173,-76,70
555,8705,-6,-952,-4584,23,-173,-76,70
556,8707,-9,-949,-4583,23,-173,-77,69
557,8711,-8,-958,-4584,23,-173,-77,70
558,8715,-5,-962,-4584,23,-173,-78,70
559,8715,-7,-961,-4582,23,-173,-78,70
560,8718,-4,-949,-4581,23,-172,-78,69
561,8718,-4,-950,-4580,23,-173,-77,70
562,8718,-5,-957,-4579,23,-173,-77,70
563,8712,-6,-958,-4577,23,-173,-76,70
564,8714,-8,-963,-4577,23,-173,-77,70
565,8685,18,-940,-4578,23,-173,-80,71
566,8740,8,-1178,-4579,23,-178,-89,72
567,8677,-8,-890,-4581,23,-174,-23,72
568,8731,-9,-949,-4582,23,-178,-103,72
569,8723,0,-939,-4581,23,-174,-53,73
570,8691,-9,-878,-4580,23,-175,-89,72
571,8729,-14,-995,-4581,23,-172,-78,73
572,8706,-5,-936,-4580,23,-172,-82,73
573,8700,-8,-996,-4582,23,-172,-80,73
574,8696,-2,-954,-4582,23,-173,-75,71
575,8710,-6,-995,-4582,23,-175,-72,71
576,8695,-7,-934,-4581,23,-175,-68,70
577,8718,-10,-949,-4583,23,-176,-74,71
578,8717,-9,-921,-4582,23,-174,-73,72
579,8703,-13,-930,-4582,23,-173,-76,71
580,8700,-7,-911,-4584,23,-172,-79,70
581,8710,0,-957,-4584,23,-172,-83,70
582,8691,-2,-946,-4584,23,-170,-78,69
583,8698,0,-969,-4583,23,-172,-82,69
584,8711,-4,-966,-4584,23,-172,-77,69
585,8705,-11,-950,-4582,23,-173,-77,70
586,8708,-9,-936,-4581,23,-172,-75,70
587,8719,-6,-947,-4582,23,-173,-79,71
588,8712,-4,-942,-4582,23,-172,-78,71
589,8705,-2,-945,-4582,23,-172,-82,70
590,8702,-8,-956,-4582,23,-171,-80,70
591,8693,2,-958,-4581,23,-171,-82,69
592,8689,6,-965,-4580,23,-171,-82,69
593,8690,3,-971,-4581,23,-171,-82,68
594,8693,5,-974,-4581,23,-171,-80,68
595,8701,6,-980,-4579,23,-172,-79,69
596,8703,3,-983,-4579,23,-172,-77,70
597,8702,0,-974,-4578,23,-173,-78,71
598,8699,2,-975,-4578,23,-172,-78,71
599,8700,-2,-971,-4578,23,-172,-79,72
600,8701,-8,-974,-4578,23,-172,-79,72
601,8696,-11,-971,-4580,23,-173,-79,71
602,8696,-12,-976,-4579,23,-172,-79,71
603,8700,-9,-975,-4580,23,-172,-78,71
604,8707,-9,-994,-4581,23,-173,-79,70
605,8705,-4,-963,-4582,23,-173,-78,71
606,8713,-5,-967,-4582,23,-172,-78,71
607,8704,-5,-952,-4583,23,-172,-77,71
608,8703,-3,-967,-4581,23,-171,-78,70
609,8698,-3,-957,-4581,23,-171,-77,70
610,8702,-4,-965,-4580,23,-171,-78,71
611,8706,-5,-965,-4581,23,-171,-76,71
612,8705,-3,-971,-4580,23,-170,-76,71
613,8707,-3,-971,-4581,23,-171,-76,71
614,8706,-1,-978,-4582,23,-172,-77,71
615,8710,4,-962,-4582,23,-172,-76,71
616,8706,1,-954,-4580,23,-172,-77,71
617,8707,3,-957,-4581,23,-172,-76,71
618,8705,-1,-956,-4581,23,-172,-77,71
619,8703,-1,-955,-4581,23,-172,-77,72
620,8702,-5,-950,-4580,23,-172,-77,72
621,8698,-1,-955,-4579,23,-173,-76,73
622,8704,-2,-961,-4578,23,-173,-77,72
623,8710,-4,-959,-4578,23,-173,-77,72
624,8711,-1,-960,-4577,23,-173,-77,72
625,8707,3,-965,-4579,23,-173,-77,72
626,8703,5,-961,-4579,23,-174,-78,71
627,8705,0,-963,-4579,23,-173,-78,70
628,8703,-2,-963,-4580,23,-174,-79,69
629,8703,-4,-959,-4580,23,-174,-78,69
630,8705,-4,-956,-4579,23,-174,-78,68
631,8707,-4,-949,-4580,23,-173,-79,69
632,8712,-3,-950,-4579,23,-173,-78,69
633,8708,-1,-953,-4581,23,-174,-79,69
634,8702,-2,-960,-4581,23,-174,-79,69
635,8702,1,-959,-4580,23,-174,-79,70
636,8699,0,-957,-4581,23,-174,-80,69
637,8702,1,-946,-4580,23,-173,-80,69
638,8700,3,-942,-4579,23,-173,-81,68
639,8703,-1,-946,-4579,23,-173,-81,68
640,8706,-4,-947,-4577,23,-173,-81,68
641,8707,0,-951,-4577,23,-172,-82,69
642,8710,-4,-958,-4577,23,-171,-82,69
643,8706,2,-965,-4576,23,-171,-82,69
644,8706,1,-972,-4577,23,-172,-81,70
645,8707,-1,-974,-4578,23,-173,-80,70
646,8701,-1,-974,-4578,23,-173,-79,70
647,8701,-4,-970,-4578,23,-173,-79,70
648,8708,-7,-966,-4579,23,-172,-78,70
649,8709,-6,-959,-4578,23,-171,-78,69
650,8713,-3,-965,-4578,23,-172,-78,69
651,8713,1,-966,-4577,23,-171,-77,71
652,8712,5,-975,-4579,23,-171,-77,70
653,8708,2,-977,-4581,23,-172,-76,72
654,8700,-1,-981,-4578,23,-173,-74,72
655,8699,-1,-976,-4578,23,-174,-73,72
656,8695,0,-973,-4577,23,-174,-72,72
657,8701,3,-966,-4576,23,-175,-72,72
658,8703,0,-969,-4576,23,-175,-73,71
659,8707,-3,-965,-4575,23,-175,-76,71
660,8710,-7,-962,-4576,23,-173,-77,71
661,8706,-5,-966,-4576,23,-172,-77,71
662,8706,-5,-973,-4578,23,-172,-77,72
663,8698,-7,-975,-4579,23,-173,-76,71
664,8697,-5,-978,-4579,23,-174,-76,71
665,8700,-7,-978,-4580,23,-173,-76,72
666,8700,-9,-977,-4580,23,-173,-76,71
667,8701,-11,-972,-4579,23,-174,-75,71
668,8706,-14,-956,-4580,23,-174,-74,70
669,8707,-14,-938,-4581,23,-174,-74,71
670,8706,-17,-940,-4580,23,-173,-76,70
671,8700,-19,-949,-4577,23,-173,-77,70
672,8698,-18,-953,-4577,23,-172,-78,70
673,8696,-10,-961,-4576,23,-172,-78,69
674,8698,-7,-955,-4577,23,-173,-77,69
675,8707,-5,-958,-4578,23,-174,-77,69
676,8709,-8,-955,-4578,23,-173,-77,70
677,8708,-10,-952,-4579,23,-173,-78,70
678,8705,-3,-948,-4577,23,-172,-79,71
679,8705,-2,-947,-4578,23,-172,-81,71
680,8706,-2,-952,-4579,23,-172,-82,70
681,8707,-4,-961,-4578,23,-172,-82,70
682,8705,0,-967,-4577,23,-172,-81,70
683,8705,-3,-971,-4579,23,-173,-80,70
684,8703,-1,-965,-4580,23,-173,-79,70
685,8706,2,-959,-4580,23,-174,-78,69
686,8706,4,-961,-4580,23,-174,-78,70
687,8707,2,-955,-4579,23,-174,-78,69
688,8709,3,-950,-4579,23,-174,-79,70
689,8708,2,-954,-4580,23,-173,-79,70
690,8705,1,-959,-4578,23,-173,-79,70
691,8701,3,-966,-4579,23,-173,-80,70
692,8703,-2,-968,-4581,23,-174,-79,70
693,8702,-1,-976,-4580,23,-174,-77,70
694,8708,4,-977,-4580,23,-173,-77,71
695,8708,0,-973,-4580,23,-172,-77,71
696,8708,-2,-966,-4581,23,-172,-77,71
697,8709,2,-960,-4578,23,-172,-77,71
698,8706,8,-959,-4575,23,-173,-77,71
699,8706,9,-953,-4578,23,-172,-77,71
700,8701,5,-953,-4578,23,-173,-77,71
701,8699,4,-962,-4579,23,-172,-76,71
702,8699,4,-963,-4580,23,-173,-75,70
703,8699,8,-958,-4580,23,-173,-76,69
704,8703,6,-961,-4582,23,-172,-76,70
705,8701,5,-960,-4582,23,-173,-76,70
706,8702,2,-959,-4582,23,-172,-77,71
707,8702,1,-970,-4581,23,-172,-77,70
708,8701,-2,-969,-4579,23,-172,-77,70
709,8702,-2,-970,-4578,23,-172,-78,70
710,8698,-2,-964,-4578,23,-173,-77,71
711,8697,-3,-960,-4578,23,-173,-77,71
712,8702,-4,-961,-4578,23,-173,-77,71
713,8700,-2,-967,-4578,23,-174,-77,70
714,8710,-3,-964,-4578,23,-172,-77,71
715,8709,-4,-962,-4579,23,-171,-79,70
716,8715,-4,-964,-4579,23,-172,-79,71
717,8714,-3,-966,-4579,23,-173,-78,71
718,8711,-5,-970,-4579,23,-173,-78,71
719,8703,-8,-968,-4579,23,-173,-79,70
720,8705,-13,-968,-4582,23,-173,-77,69
721,8705,-6,-960,-4583,23,-173,-78,69
722,8704,-5,-955,-4584,23,-174,-78,68
723,8707,-5,-955,-4583,23,-174,-79,69
724,8710,0,-958,-4582,23,-174,-78,69
725,8711,-2,-958,-4582,23,-174,-78,69
726,8705,-2,-966,-4582,23,-173,-79,69
727,8701,-4,-967,-4584,23,-172,-79,69
728,8698,-4,-964,-4584,23,-173,-79,70
729,8700,4,-966,-4585,23,-173,-78,70
730,8701,3,-973,-4586,23,-174,-78,70
731,8700,1,-975,-4584,23,-174,-78,70
732,8699,0,-973,-4584,23,-174,-77,70
733,8701,2,-979,-4584,23,-174,-77,70
734,8703,3,-982,-4583,23,-174,-78,71
735,8704,2,-985,-4584,23,-173,-78,70
736,8701,-1,-977,-4585,23,-174,-78,70
737,8703,0,-970,-4585,23,-174,-77,71
738,8706,-5,-969,-4585,23,-174,-77,70
739,8705,-3,-966,-4584,23,-174,-77,70
740,8703,-1,-968,-4584,23,-173,-77,71
741,8706,-5,-969,-4583,23,-173,-76,70
742,8707,4,-967,-4582,23,-173,-77,71
743,8704,6,-969,-4581,23,-174,-76,71
744,8707,3,-968,-4580,23,-174,-76,71
745,8704,7,-965,-4582,23,-174,-75,71
746,8703,5,-963,-4582,23,-175,-75,72
747,8701,11,-958,-4583,23,-174,-77,71
748,8695,9,-953,-4584,23,-174,-77,72
749,8698,7,-961,-4584,23,-173,-77,70
750,8704,0,-959,-4583,23,-172,-77,70
751,8706,-3,-968,-4582,23,-173,-77,70
752,8705,-7,-975,-4582,23,-174,-77,70
753,8704,-1,-968,-4581,23,-174,-77,70
754,8702,-2,-970,-4580,23,-174,-77,70
755,8698,-6,-973,-4580,23,-174,-77,69
756,8697,-8,-970,-4581,23,-174,-77,70
757,8703,-5,-964,-4580,23,-174,-77,71
758,8707,-3,-962,-4582,23,-174,-78,71
759,8705,-5,-963,-4582,23,-173,-77,71
760,8703,-5,-964,-4581,23,-173,-78,71
761,8699,-4,-963,-4580,23,-173,-79,70
762,8699,0,-958,-4580,23,-173,-79,71
763,8702,6,-963,-4579,23,-174,-78,72
764,8706,8,-968,-4578,23,-173,-77,72
765,8703,4,-965,-4576,23,-174,-77,71
766,8699,5,-967,-4578,23,-174,-78,71
767,8706,5,-958,-4577,23,-173,-78,71
768,8708,-2,-955,-4578,23,-173,-77,71
769,8706,-4,-951,-4578,23,-173,-77,70
770,8705,-2,-952,-4578,23,-173,-77,70
771,8705,-1,-954,-4579,23,-173,-77,70
772,8697,5,-958,-4578,23,-173,-77,70
773,8701,3,-954,-4578,23,-173,-76,71
774,8701,2,-959,-4580,23,-173,-76,71
775,8708,-2,-965,-4579,23,-173,-77,72
776,8709,-3,-968,-4580,23,-173,-77,72
777,8709,0,-970,-4581,23,-173,-77,71
778,8707,-1,-968,-4582,23,-173,-77,71
779,8708,-2,-955,-4582,23,-173,-78,71
780,8704,-3,-955,-4582,23,-173,-78,71
781,8708,-1,-960,-4583,23,-173,-78,71
782,8708,1,-961,-4581,23,-173,-77,71
783,8708,-4,-962,-4580,23,-173,-77,70
784,8709,-6,-959,-4580,23,-174,-77,70
785,8706,-3,-964,-4581,23,-172,-76,70
786,8706,-2,-960,-4581,23,-171,-76,71
787,8703,-7,-965,-4583,23,-172,-75,72
788,8705,-4,-959,-4583,23,-172,-75,72
789,8706,-2,-962,-4582,23,-171,-76,72
790,8704,-7,-964,-4584,23,-171,-76,73
791,8706,0,-962,-4584,23,-171,-77,72
792,8706,-6,-962,-4584,23,-171,-77,72
793,8709,-1,-970,-4583,23,-171,-78,72
794,8709,-6,-959,-4583,23,-172,-79,72
795,8708,-3,-965,-4583,23,-172,-79,72
796,8712,-3,-971,-4584,23,-172,-79,72
797,8708,-5,-972,-4583,23,-172,-78,71
798,8711,1,-967,-4583,23,-172,-77,71
799,8711,-2,-966,-4580,23,-172,-77,71
800,8704,-2,-959,-4580,23,-173,-77,72
801,8697,-4,-959,-4582,23,-172,-76,72
802,8697,0,-954,-4581,23,-173,-76,72
803,8698,-2,-960,-4580,23,-173,-76,71
804,8694,2,-966,-4578,23,-173,-78,70
805,8697,3,-965,-4577,23,-172,-77,69
806,8698,4,-969,-4578,23,-172,-78,70
807,8698,3,-967,-4579,23,-172,-77,69
808,8705,2,-972,-4579,23,-172,-79,70
809,8708,-3,-969,-4578,23,-172,-78,70
810,8707,7,-963,-4578,23,-172,-78,70
811,8710,3,-964,-4579,23,-171,-77,70
812,8708,0,-961,-4581,23,-171,-78,70
813,8707,-4,-954,-4581,23,-172,-76,70
814,8709,-6,-956,-4580,23,-172,-77,72
815,8705,-5,-954,-4583,23,-173,-79,71
816,8705,-8,-953,-4581,23,-172,-79,69
817,8711,-6,-953,-4583,23,-172,-78,69
818,8710,-6,-947,-4582,23,-172,-77,70
819,8711,-9,-953,-4582,23,-172,-77,70
820,8707,-7,-955,-4582,23,-172,-77,71
821,8709,-6,-959,-4580,23,-172,-77,70
822,8705,-5,-959,-4581,23,-172,-75,69
823,8705,-6,-959,-4580,23,-173,-76,70
824,8706,-4,-960,-4580,23,-172,-76,70
825,8708,-3,-954,-4578,23,-172,-76,70
826,8708,-6,-949,-4579,23,-172,-77,71
827,8705,-6,-954,-4578,23,-171,-77,71
828,8704,-7,-957,-4576,23,-172,-78,70
829,8707,-10,-951,-4577,23,-172,-79,69
830,8710,-14,-948,-4578,23,-172,-79,70
831,8708,-12,-949,-4577,23,-173,-78,70
832,8708,-10,-951,-4577,23,-173,-78,70
833,8709,-9,-960,-4578,23,-173,-77,71
834,8710,-6,-959,-4577,23,-173,-78,71
835,8710,-5,-965,-4577,23,-173,-78,71
836,8709,-6,-974,-4578,23,-173,-78,70
837,8714,-4,-968,-4577,23,-173,-79,71
838,8712,-5,-964,-4577,23,-173,-78,72
839,8708,-3,-963,-4579,23,-173,-78,72
840,8708,0,-962,-4578,23,-173,-78,71
841,8709,0,-960,-4578,23,-173,-77,71
842,8708,-2,-965,-4579,23,-172,-78,71
843,8709,0,-965,-4577,23,-173,-78,71
844,8709,3,-969,-4578,23,-172,-78,71
845,8710,-4,-966,-4577,23,-173,-78,71
846,8708,2,-966,-4576,23,-173,-78,72
847,8705,-2,-965,-4576,23,-172,-78,72
848,8702,2,-962,-4577,23,-172,-78,72
849,8699,1,-965,-4578,23,-173,-78,71
850,8697,-1,-964,-4581,23,-173,-78,71
851,8696,0,-962,-4580,23,-174,-77,70
852,8697,-1,-960,-4581,23,-173,-77,70
853,8699,-1,-967,-4579,23,-173,-76,70
854,8700,2,-970,-4578,23,-172,-76,70
855,8698,1,-967,-4578,23,-172,-76,70
856,8699,0,-968,-4577,23,-172,-77,71
857,8700,1,-962,-4579,23,-172,-77,71
858,8709,5,-967,-4579,23,-172,-77,71
859,8705,5,-965,-4578,23,-172,-77,71
860,8703,3,-968,-4578,23,-172,-78,71
861,8700,-1,-963,-4579,23,-172,-77,71
862,8698,-2,-963,-4580,23,-173,-78,72
863,8701,-2,-961,-4579,23,-173,-77,72
864,8704,-4,-959,-4581,23,-173,-76,71
865,8703,-3,-960,-4580,23,-173,-77,71
866,8704,-3,-964,-4579,23,-172,-78,72
867,8702,-1,-964,-4579,23,-173,-76,71
868,8703,5,-961,-4578,23,-174,-77,71
869,8705,4,-961,-4579,23,-174,-77,70
870,8703,1,-965,-4578,23,-173,-77,70
871,8702,2,-962,-4579,23,-174,-77,70
872,8701,4,-970,-4579,23,-173,-76,71
873,8700,-3,-969,-4579,23,-174,-76,70
874,8702,-2,-962,-4578,23,-173,-76,71
875,8701,-6,-958,-4578,23,-173,-76,71
876,8705,-8,-958,-4578,23,-173,-76,72
877,8707,-6,-957,-4578,23,-174,-76,72
878,8710,0,-965,-4579,23,-174,-77,71
879,8711,2,-964,-4579,23,-174,-76,71
880,8710,-2,-966,-4578,23,-174,-77,71
881,8708,-2,-966,-4579,23,-173,-78,71
882,8703,0,-966,-4579,23,-173,-77,70
883,8701,-2,-961,-4578,23,-173,-78,70
884,8698,0,-959,-4578,23,-173,-78,71
885,8702,-3,-966,-4578,23,-173,-78,70
886,8702,-3,-971,-4577,23,-172,-78,71
887,8702,-1,-959,-4578,23,-171,-78,70
888,8702,-9,-961,-4577,23,-171,-78,70
889,8699,-8,-957,-4578,23,-172,-79,70
890,8702,-3,-962,-4579,23,-171,-78,70
891,8705,-3,-965,-4579,23,-171,-79,69
892,8705,-2,-963,-4578,23,-171,-80,69
893,8707,-3,-971,-4578,23,-172,-80,69
894,8703,-6,-967,-4576,23,-172,-79,70
895,8701,-5,-968,-4576,23,-172,-79,69
896,8700,-2,-971,-4579,23,-173,-78,70
897,8703,-1,-957,-4578,23,-173,-78,70
898,8708,1,-956,-4576,23,-172,-78,71
899,8702,1,-966,-4579,23,-172,-77,71
900,8704,1,-968,-4580,23,-172,-77,70
901,8702,-3,-975,-4581,23,-172,-77,71
902,8704,1,-973,-4580,23,-172,-77,72
903,8707,0,-975,-4579,23,-172,-75,71
904,8705,0,-975,-4581,23,-172,-75,71
905,8699,2,-980,-4582,23,-173,-75,71
906,8706,-1,-975,-4582,23,-174,-76,71
907,8708,1,-971,-4581,23,-173,-76,70
908,8706,3,-964,-4581,23,-172,-77,70
909,8704,0,-970,-4580,23,-173,-77,69
910,8704,2,-960,-4578,23,-172,-77,69
911,8704,1,-960,-4577,23,-172,-77,69
912,8707,-3,-960,-4577,23,-172,-77,69
913,8712,-2,-965,-4580,23,-172,-76,69
914,8708,3,-966,-4580,23,-172,-77,69
915,8711,-2,-963,-4580,23,-172,-77,69
916,8708,-2,-956,-4582,23,-172,-77,70
917,8711,-4,-951,-4581,23,-172,-76,70
918,8708,0,-954,-4582,23,-172,-77,70
919,8710,1,-948,-4581,23,-171,-77,71
920,8700,4,-949,-4581,23,-171,-77,70
921,8701,6,-954,-4580,23,-172,-78,71
922,8699,2,-949,-4579,23,-172,-78,71
923,8700,2,-952,-4578,23,-173,-78,70
924,8701,-1,-959,-4579,23,-172,-78,70
925,8704,-1,-963,-4580,23,-173,-78,71
926,8709,0,-965,-4581,23,-173,-77,70
927,8708,-4,-962,-4581,23,-174,-77,70
928,8704,-2,-966,-4580,23,-174,-77,70
929,8699,2,-961,-4581,23,-173,-76,70
930,8701,5,-957,-4580,23,-172,-77,70
931,8697,0,-966,-4578,23,-172,-77,70
932,8698,0,-973,-4577,23,-172,-78,69
933,8700,0,-972,-4578,23,-172,-77,70
934,8701,-3,-977,-4578,23,-172,-78,70
935,8700,-2,-979,-4579,23,-172,-77,70
936,8699,-1,-971,-4578,23,-172,-76,71
937,8697,-1,-972,-4578,23,-173,-77,71
938,8699,-6,-968,-4579,23,-173,-77,71
939,8698,-6,-964,-4581,23,-173,-77,71
940,8703,-6,-977,-4584,23,-173,-76,70
941,8706,-6,-973,-4582,23,-173,-76,69
942,8704,-3,-967,-4582,23,-172,-76,70
943,8704,-2,-967,-4583,23,-171,-76,70
944,8699,-3,-965,-4583,23,-171,-76,70
945,8697,0,-964,-4582,23,-172,-77,70
946,8703,-1,-966,-4581,23,-172,-77,70
947,8710,0,-962,-4581,23,-172,-77,70
948,8708,-3,-959,-4580,23,-173,-77,70
949,8707,-2,-951,-4583,23,-172,-77,70
950,8703,-3,-948,-4582,23,-172,-76,71
951,8702,-5,-950,-4582,23,-172,-77,71
952,8702,0,-949,-4582,23,-172,-77,71
953,8697,0,-947,-4582,23,-173,-77,71
954,8695,1,-947,-4580,23,-173,-78,71
955,8699,1,-947,-4579,23,-174,-78,71
956,8698,0,-947,-4579,23,-173,-77,72
957,8700,0,-947,-4579,23,-172,-77,71
958,8699,2,-955,-4579,23,-172,-78,70
959,8698,1,-956,-4580,23,-172,-77,70
960,8695,0,-956,-4580,23,-173,-77,69
961,8700,-3,-959,-4577,23,-173,-77,71
962,8700,-3,-961,-4577,23,-173,-77,71
963,8701,-2,-966,-4577,23,-172,-77,71
964,8698,-3,-961,-4579,23,-172,-77,72
965,8699,-1,-960,-4578,23,-173,-77,72
966,8705,-4,-962,-4577,23,-172,-78,72
967,8706,-4,-966,-4577,23,-173,-77,71
968,8707,2,-967,-4578,23,-172,-78,71
969,8704,5,-961,-4578,23,-173,-78,71
970,8704,4,-956,-4581,23,-173,-77,71
971,8702,1,-963,-4581,23,-172,-76,70
972,8703,0,-966,-4579,23,-172,-77,71
973,8701,3,-966,-4580,23,-172,-77,71
974,8703,2,-977,-4580,23,-172,-77,71
975,8699,2,-976,-4579,23,-173,-77,71
976,8701,4,-976,-4579,23,-173,-77,70
977,8700,1,-976,-4578,23,-173,-77,71
978,8700,6,-974,-4579,23,-173,-78,71
979,8699,2,-977,-4578,23,-173,-78,71
980,8705,1,-966,-4577,23,-173,-78,71
981,8703,1,-951,-4577,23,-173,-78,70
982,8700,-3,-952,-4578,23,-173,-77,70
983,8706,-6,-954,-4580,23,-172,-78,71
984,8706,-3,-960,-4580,23,-172,-78,71
985,8706,-4,-966,-4580,23,-172,-78,71
986,8708,-4,-959,-4579,23,-171,-76,70
987,8711,-2,-963,-4578,23,-172,-76,70
988,8715,-6,-966,-4579,23,-172,-77,71
989,8713,-4,-970,-4579,23,-171,-77,70
990,8707,-5,-967,-4577,23,-171,-76,71
991,8708,-2,-966,-4577,23,-172,-76,70
992,8709,-2,-962,-4579,23,-171,-77,71
993,8712,2,-962,-4580,23,-171,-77,70
994,8709,3,-956,-4577,23,-171,-77,70
995,8709,3,-953,-4578,23,-171,-78,70
996,8712,-4,-948,-4578,23,-171,-77,70
997,8711,-3,-949,-4578,23,-171,-77,70
