,acc_X,acc_Y,acc_Z,temp,tempC,gyr_X,gyr_Y,gyr_Z
0,8690,-20,-993,-4325,24,-174,-73,70
1,8721,34,-1019,-4331,24,-181,-70,65
2,8711,12,-1020,-4334,24,-176,-64,64
3,8686,5,-961,-4337,24,-175,-74,72
4,8692,12,-962,-4332,24,-173,-70,70
5,8705,29,-969,-4316,24,-173,-79,71
6,8671,12,-999,-4350,24,-166,-74,72
7,8705,3,-949,-4327,24,-169,-80,75
8,8698,-12,-934,-4339,24,-170,-74,74
9,8698,-4,-1074,-4325,24,-177,-72,80
10,8709,-5,-952,-4347,24,-176,-75,73
11,8687,13,-962,-4334,24,-164,-79,67
12,8742,14,-997,-4330,24,-170,-88,60
13,8713,-2,-1052,-4326,24,-169,-76,67
14,8753,9,-912,-4327,24,-175,-85,69
15,8733,-14,-989,-4331,24,-173,-80,69
16,8704,35,-980,-4333,24,-173,-92,77
17,8728,17,-962,-4337,24,-177,-79,77
18,8776,51,-963,-4339,24,-175,-80,70
19,8738,-6,-986,-4334,24,-183,-82,64
20,8701,25,-1045,-4336,24,-184,-86,75
21,8675,12,-929,-4336,24,-174,-82,73
22,8698,-8,-1003,-4325,24,-166,-83,75
23,8682,-5,-973,-4338,24,-176,-79,63
24,8724,16,-992,-4347,24,-172,-73,72
25,8680,23,-972,-4336,24,-175,-69,75
26,8707,-29,-966,-4333,24,-163,-75,68
27,8688,-54,-1008,-4338,24,-172,-68,73
28,8729,-1,-959,-4327,24,-169,-79,70
29,8723,-4,-960,-4326,24,-176,-83,68
30,8703,-2,-990,-4331,24,-164,-73,70
31,8686,-44,-932,-4326,24,-170,-69,70
32,8667,-23,-985,-4334,24,-167,-80,69
33,8705,-3,-979,-4334,24,-167,-87,74
34,8723,6,-960,-4337,24,-175,-68,67
35,8704,20,-1004,-4332,24,-174,-80,75
36,8695,39,-1004,-4320,24,-167,-80,71
37,8714,12,-1001,-4330,24,-172,-81,76
38,8735,48,-1016,-4324,24,-168,-92,65
39,8679,16,-1034,-4325,24,-172,-91,65
40,8671,13,-1011,-4334,24,-171,-73,73
41,8679,11,-960,-4326,24,-177,-86,67
42,8661,14,-967,-4345,24,-178,-73,78
43,8739,-5,-1015,-4332,24,-175,-76,71
44,8724,4,-943,-4327,24,-169,-76,72
45,8722,32,-976,-4336,24,-173,-83,82
46,8702,-12,-961,-4327,24,-172,-79,69
47,8719,30,-968,-4333,24,-162,-74,70
48,8756,-18,-954,-4316,24,-169,-74,79
49,8712,8,-1012,-4310,24,-164,-72,75
50,8689,33,-1051,-4332,24,-173,-72,74
51,8717,34,-1061,-4327,24,-167,-67,78
52,8717,21,-1035,-4316,24,-175,-69,83
53,8702,14,-951,-4335,24,-176,-70,89
54,8706,-23,-996,-4327,24,-180,-71,79
55,8687,9,-1030,-4328,24,-176,-59,83
56,8671,37,-991,-4335,24,-170,-67,82
57,8656,-31,-1020,-4342,24,-169,-74,79
58,8636,-7,-1011,-4325,24,-178,-60,74
59,8664,4,-951,-4332,24,-174,-70,72
60,8682,-48,-960,-4331,24,-177,-65,77
61,8684,16,-905,-4345,24,-171,-69,74
62,8711,-14,-920,-4329,24,-174,-73,74
63,8728,23,-912,-4327,24,-163,-78,74
64,8679,15,-981,-4334,24,-174,-68,82
65,8688,7,-989,-4334,24,-173,-71,71
66,8708,-11,-935,-4330,24,-178,-70,74
67,8652,-37,-1002,-4333,24,-166,-67,76
68,8680,42,-982,-4311,24,-165,-70,71
69,8691,17,-951,-4333,24,-173,-74,74
70,8709,27,-968,-4339,24,-175,-73,69
71,8713,1,-1008,-4330,24,-176,-70,68
72,8764,-7,-902,-4332,24,-175,-82,72
73,8737,-30,-955,-4332,24,-169,-78,62
74,8746,15,-923,-4338,24,-176,-81,79
75,8718,21,-1012,-4329,24,-172,-80,72
76,8689,8,-991,-4331,24,-172,-79,73
77,8724,26,-965,-4327,24,-176,-74,72
78,8695,2,-1024,-4347,24,-178,-76,71
79,8678,29,-957,-4337,24,-174,-75,72
80,8709,-13,-1007,-4333,24,-174,-77,66
81,8701,2,-902,-4328,24,-178,-84,72
82,8680,-6,-949,-4333,24,-170,-77,64
83,8703,15,-971,-4320,24,-178,-90,65
84,8696,10,-963,-4345,24,-174,-87,72
85,8691,-16,-955,-4334,24,-169,-88,74
86,8724,31,-979,-4323,24,-181,-87,64
87,8730,35,-969,-4335,24,-177,-76,64
88,8713,4,-918,-4340,24,-174,-71,76
89,8707,-3,-1014,-4353,24,-170,-73,72
90,8703,-3,-992,-4329,24,-176,-90,69
91,8699,27,-988,-4336,24,-171,-81,68
92,8657,20,-1007,-4327,24,-176,-80,60
93,8736,-5,-1003,-4340,24,-178,-81,72
94,8759,-24,-959,-4340,24,-171,-86,66
95,8721,8,-970,-4331,24,-169,-93,66
96,8705,15,-998,-4341,24,-172,-74,70
97,8733,26,-1009,-4344,24,-164,-81,76
98,8689,-7,-1007,-4331,24,-177,-89,70
99,8701,-19,-1019,-4330,24,-171,-82,68
100,8680,21,-972,-4334,24,-190,-69,77
101,8701,40,-1004,-4332,24,-164,-78,68
102,8673,20,-931,-4349,24,-170,-73,77
103,8693,11,-1066,-4334,24,-172,-76,67
104,8676,39,-1001,-4327,24,-171,-73,71
105,8713,0,-1011,-4326,24,-175,-74,75
106,8729,-6,-1064,-4331,24,-167,-74,81
107,8716,-4,-1017,-4330,24,-170,-76,69
108,8714,7,-973,-4322,24,-163,-77,78
109,8686,12,-1051,-4332,24,-182,-59,69
110,8673,17,-978,-4318,24,-170,-66,81
111,8673,33,-952,-4340,24,-176,-63,72
112,8702,-39,-969,-4352,24,-167,-67,73
113,8709,24,-946,-4320,24,-177,-67,74
114,8670,-19,-950,-4336,24,-172,-70,74
115,8714,-49,-994,-4326,24,-172,-70,81
116,8676,-5,-967,-4325,24,-183,-79,64
117,8698,27,-951,-4339,24,-173,-72,67
118,8670,-37,-933,-4324,24,-179,-88,68
119,8687,-22,-920,-4355,24,-175,-73,71
120,8668,-11,-939,-4335,24,-181,-79,68
121,8696,-8,-926,-4339,24,-171,-87,73
122,8704,-5,-990,-4318,24,-176,-74,70
123,8670,-48,-994,-4332,24,-169,-74,72
124,8666,-15,-990,-4327,24,-169,-81,70
125,8684,6,-961,-4317,24,-171,-87,63
126,8684,28,-1007,-4331,24,-173,-86,76
127,8734,-23,-997,-4344,24,-160,-78,64
128,8674,19,-1024,-4343,24,-175,-69,64
129,8715,59,-1076,-4339,24,-174,-74,64
130,8672,61,-1012,-4327,24,-191,-71,84
131,8733,6,-993,-4336,24,-183,-55,76
132,8735,23,-1019,-4324,24,-175,-61,88
133,8712,16,-1002,-4338,24,-174,-58,84
134,8708,-16,-1062,-4333,24,-175,-68,88
135,8523,5,-990,-4325,24,-165,-56,82
136,8637,14,-1066,-4327,24,-188,-66,89
137,8737,23,-987,-4330,24,-176,-58,93
138,8690,38,-1103,-4333,24,-168,-41,87
139,8633,13,-1021,-4336,24,-180,-46,88
140,8729,-32,-1003,-4321,24,-192,-48,84
141,8601,11,-1006,-4331,24,-179,-39,85
142,8745,17,-952,-4329,24,-177,-45,87
143,8719,-47,-929,-4335,24,-177,-45,91
144,8752,-40,-972,-4334,24,-177,-46,79
145,8660,-24,-1028,-4332,24,-171,-48,92
146,8684,-26,-993,-4345,24,-172,-53,81
147,8693,2,-964,-4328,24,-169,-55,89
148,8687,-27,-960,-4343,24,-174,-54,84
149,8678,-18,-967,-4337,24,-172,-57,83
150,8657,5,-929,-4321,24,-174,-49,84
151,8701,-22,-962,-4332,24,-170,-57,74
152,8713,-20,-938,-4322,24,-178,-58,76
153,8699,-19,-959,-4346,24,-171,-70,80
154,8717,-42,-914,-4333,24,-168,-74,76
155,8713,0,-875,-4328,24,-170,-76,71
156,8716,-64,-865,-4339,24,-175,-71,66
157,8683,7,-925,-4335,24,-169,-76,77
158,8655,-31,-946,-4329,24,-176,-73,72
159,8678,-45,-878,-4341,24,-177,-75,72
160,8715,-11,-884,-4329,24,-174,-71,72
161,8699,-6,-1029,-4335,24,-177,-89,68
162,8758,11,-916,-4330,24,-180,-83,67
163,8713,1,-922,-4332,24,-169,-87,64
164,8713,13,-941,-4339,24,-180,-89,68
165,8691,13,-942,-4329,24,-171,-88,70
166,8730,-29,-971,-4335,24,-182,-88,72
167,8725,-4,-1059,-4337,24,-168,-83,60
168,8707,-15,-931,-4330,24,-175,-93,60
169,8724,-22,-945,-4346,24,-177,-90,68
170,8740,-44,-1017,-4319,24,-171,-76,67
171,8696,15,-985,-4339,24,-160,-81,59
172,8705,9,-978,-4333,24,-168,-84,66
173,8720,12,-996,-4326,24,-176,-81,58
174,8674,-23,-980,-4328,24,-181,-92,65
175,8695,2,-1020,-4331,24,-166,-87,63
176,8719,0,-906,-4336,24,-176,-95,57
177,8717,-26,-1008,-4342,24,-175,-75,65
178,8687,-18,-956,-4335,24,-177,-95,60
179,8762,-24,-980,-4332,24,-169,-93,72
180,8702,6,-1044,-4336,24,-176,-98,67
181,8709,-2,-993,-4337,24,-180,-96,63
182,8654,15,-989,-4336,24,-167,-94,66
183,8701,-14,-950,-4335,24,-169,-82,66
184,8702,21,-1000,-4327,24,-172,-81,67
185,8740,48,-995,-4358,24,-173,-83,69
186,8660,-3,-1002,-4324,24,-172,-81,69
187,8775,-16,-1030,-4340,24,-180,-78,75
188,8733,-9,-971,-4325,24,-175,-76,71
189,8732,24,-976,-4327,24,-173,-69,76
190,8683,50,-1054,-4334,24,-179,-64,77
191,8696,-6,-989,-4342,24,-167,-76,74
192,8707,-43,-1040,-4337,24,-169,-65,68
193,8720,-25,-1016,-4324,24,-177,-71,84
194,8735,-21,-1047,-4313,24,-165,-66,74
195,8727,15,-972,-4331,24,-179,-76,71
196,8699,-28,-972,-4315,24,-170,-68,80
197,8746,5,-984,-4332,24,-163,-76,74
198,8668,-11,-974,-4328,24,-173,-74,73
199,8712,-18,-926,-4342,24,-172,-73,78
200,8732,4,-933,-4323,24,-180,-59,93
201,8705,-9,-974,-4336,24,-178,-55,88
202,8733,15,-903,-4326,24,-169,-68,72
203,8721,21,-957,-4328,24,-175,-70,78
204,8739,-12,-1020,-4331,24,-175,-68,82
205,8708,2,-897,-4342,24,-167,-74,78
206,8688,-44,-891,-4333,24,-175,-62,69
207,8747,-37,-924,-4331,24,-174,-74,74
208,8723,8,-957,-4325,24,-173,-82,64
209,8665,-29,-924,-4339,24,-175,-85,75
210,8721,-43,-906,-4342,24,-175,-82,65
211,8666,-34,-940,-4334,24,-172,-77,76
212,8698,-24,-957,-4333,24,-174,-84,73
213,8701,-2,-960,-4334,24,-174,-88,68
214,8722,17,-928,-4340,24,-174,-82,71
215,8717,-21,-980,-4340,24,-167,-90,70
216,8705,-13,-958,-4329,24,-175,-91,67
217,8733,-4,-974,-4326,24,-174,-93,63
218,8731,-12,-907,-4337,24,-176,-96,61
219,8707,-40,-906,-4337,24,-168,-94,67
220,8728,15,-966,-4330,24,-177,-95,57
221,8717,21,-949,-4323,24,-169,-75,65
222,8695,-5,-945,-4336,24,-172,-88,62
223,8707,16,-949,-4335,24,-171,-87,64
224,8699,5,-973,-4354,24,-174,-77,66
225,8687,0,-1008,-4336,24,-177,-91,57
226,8704,41,-962,-4336,24,-173,-82,68
227,8704,-3,-969,-4332,24,-179,-80,63
228,8680,-34,-993,-4339,24,-174,-78,73
229,8681,-11,-990,-4329,24,-169,-86,60
230,8717,60,-1039,-4330,24,-175,-79,72
231,8692,58,-953,-4328,24,-168,-76,65
232,8708,54,-994,-4342,24,-180,-79,76
233,8721,26,-978,-4323,24,-177,-69,69
234,8701,18,-965,-4325,24,-166,-71,81
235,8687,13,-987,-4333,24,-175,-69,68
236,8679,-22,-983,-4332,24,-169,-74,77
237,8705,4,-941,-4330,24,-175,-75,78
238,8668,13,-940,-4342,24,-171,-73,76
239,8672,-58,-988,-4341,24,-174,-73,73
240,8684,-8,-1085,-4329,24,-168,-85,78
241,8718,9,-998,-4329,24,-176,-69,68
242,8671,22,-1010,-4336,24,-170,-73,76
243,8729,21,-949,-4334,24,-175,-71,66
244,8678,20,-1031,-4342,24,-176,-60,67
245,8754,0,-1014,-4330,24,-177,-69,72
246,8690,30,-879,-4334,24,-177,-68,77
247,8713,13,-889,-4339,24,-169,-66,79
248,8678,24,-970,-4318,24,-177,-68,70
249,8692,-21,-973,-4330,24,-167,-73,77
250,8737,-21,-978,-4326,24,-168,-64,70
251,8680,17,-962,-4336,24,-177,-79,70
252,8723,-8,-979,-4324,24,-166,-62,70
253,8707,-29,-948,-4328,24,-168,-77,77
254,8698,-6,-1004,-4336,24,-178,-66,68
255,8680,16,-938,-4338,24,-167,-74,69
256,8703,-7,-930,-4348,24,-172,-73,76
257,8705,8,-965,-4329,24,-178,-78,66
258,8738,-18,-931,-4319,24,-168,-80,78
259,8717,-26,-990,-4331,24,-177,-74,69
260,8670,-5,-958,-4329,24,-173,-76,68
261,8697,-2,-991,-4332,24,-174,-77,63
262,8667,-32,-939,-4349,24,-176,-77,70
263,8676,-9,-983,-4334,24,-166,-89,63
264,8708,-29,-1017,-4339,24,-184,-80,61
265,8707,30,-950,-4332,24,-175,-89,66
266,8712,-20,-1024,-4338,24,-188,-88,73
267,8738,-20,-994,-4331,24,-167,-78,68
268,8704,-8,-1021,-4329,24,-179,-94,72
269,8724,-17,-990,-4327,24,-170,-86,63
270,8700,-8,-961,-4329,24,-169,-82,63
271,8670,-11,-976,-4324,24,-177,-93,68
272,8721,-17,-966,-4340,24,-172,-78,68
273,8737,-29,-940,-4340,24,-171,-88,62
274,8685,-1,-1022,-4335,24,-172,-84,66
275,8690,6,-1037,-4328,24,-168,-82,72
276,8690,-11,-945,-4328,24,-176,-86,60
277,8661,-31,-927,-4345,24,-179,-82,66
278,8691,4,-977,-4353,24,-163,-81,76
279,8727,-25,-1001,-4343,24,-175,-78,77
280,8724,5,-974,-4336,24,-178,-81,74
281,8691,13,-996,-4333,24,-173,-70,69
282,8704,-8,-995,-4336,24,-176,-77,75
283,8735,34,-987,-4336,24,-172,-75,75
284,8676,-27,-983,-4334,24,-164,-75,69
285,8664,-14,-986,-4328,24,-167,-74,70
286,8712,-35,-1015,-4335,24,-171,-78,67
287,8674,-14,-939,-4315,24,-170,-72,61
288,8694,25,-944,-4323,24,-178,-70,73
289,8665,6,-979,-4337,24,-180,-85,78
290,8727,-17,-1011,-4329,24,-177,-67,70
291,8686,55,-999,-4343,24,-169,-69,81
292,8731,-1,-983,-4322,24,-174,-74,72
293,8706,27,-994,-4340,24,-178,-77,67
294,8727,13,-984,-4333,24,-184,-75,66
295,8741,-27,-963,-4345,24,-176,-78,71
296,8751,25,-968,-4339,24,-179,-79,69
297,8719,-15,-998,-4327,24,-174,-77,68
298,8730,26,-979,-4332,24,-178,-69,67
299,8718,-7,-913,-4334,24,-179,-76,69
300,8740,-45,-929,-4339,24,-172,-70,72
301,8701,13,-955,-4359,24,-172,-69,69
302,8693,-8,-925,-4338,24,-173,-76,60
303,8689,-8,-910,-4344,24,-171,-75,77
304,8723,-21,-947,-4346,24,-172,-74,66
305,8687,-9,-990,-4338,24,-170,-81,74
306,8716,-32,-995,-4335,24,-183,-68,71
307,8685,-29,-901,-4334,24,-171,-84,71
308,8739,-3,-1004,-4334,24,-175,-85,64
309,8749,26,-1000,-4324,24,-165,-77,69
310,8701,-32,-994,-4329,24,-177,-89,71
311,8711,1,-973,-4353,24,-180,-90,71
312,8522,31,-1063,-4335,24,-170,-85,75
313,8719,21,-1070,-4329,24,-179,-88,77
314,8623,15,-899,-4335,24,-165,-58,70
315,8714,12,-943,-4331,24,-180,-95,66
316,8736,13,-1001,-4326,24,-177,-81,67
317,8692,-23,-958,-4330,24,-166,-75,73
318,8705,-27,-949,-4332,24,-171,-77,66
319,8691,-10,-881,-4338,24,-174,-87,70
320,8700,-48,-948,-4340,24,-162,-78,69
321,8698,3,-917,-4348,24,-172,-72,75
322,8726,-10,-1006,-4332,24,-164,-79,71
323,8684,-9,-1002,-4327,24,-172,-88,65
324,8696,-7,-948,-4324,24,-173,-82,73
325,8734,1,-999,-4348,24,-177,-82,72
326,8682,-15,-935,-4333,24,-174,-74,69
327,8722,-2,-928,-4341,24,-168,-90,68
328,8796,-17,-927,-4345,24,-175,-83,68
329,8674,-53,-1099,-4329,24,-177,-57,74
330,8697,75,-848,-4340,24,-180,-95,74
331,8765,45,-1196,-4348,24,-171,-62,89
332,8665,56,-997,-4336,24,-177,-75,70
333,8709,60,-1120,-4341,24,-178,-45,89
334,8698,33,-938,-4354,24,-190,-68,83
335,8766,12,-983,-4341,24,-182,-41,84
336,8657,-68,-847,-4336,24,-176,-63,75
337,8710,-74,-920,-4348,24,-169,-58,84
338,8684,-12,-813,-4334,24,-167,-78,64
339,8686,10,-938,-4335,24,-170,-68,74
340,8646,-65,-917,-4325,24,-171,-85,73
341,8725,-66,-1030,-4329,24,-169,-77,70
342,8691,-66,-970,-4333,24,-173,-91,65
343,8691,-6,-983,-4343,24,-185,-69,69
344,8756,-38,-977,-4333,24,-184,-74,62
345,8711,-7,-972,-4339,24,-176,-74,69
346,8730,2,-925,-4330,24,-183,-73,71
347,8697,15,-904,-4338,24,-164,-83,75
348,8688,28,-967,-4332,24,-171,-85,63
349,8671,-6,-990,-4335,24,-172,-85,67
350,8670,7,-1001,-4333,24,-169,-90,63
351,8699,28,-1031,-4334,24,-173,-89,68
352,8702,-1,-1007,-4346,24,-166,-82,64
353,8740,9,-1083,-4336,24,-174,-84,72
354,8731,-19,-978,-4327,24,-168,-71,70
355,8698,-16,-953,-4346,24,-176,-76,76
356,8733,-42,-940,-4340,24,-178,-72,73
357,8761,-51,-931,-4333,24,-180,-82,73
358,8649,-21,-950,-4336,24,-169,-71,68
359,8658,-30,-885,-4331,24,-172,-76,66
360,8649,4,-1001,-4348,24,-177,-82,74
361,8709,9,-973,-4337,24,-175,-84,63
362,8673,28,-959,-4329,24,-175,-73,68
363,8723,85,-999,-4333,24,-173,-80,64
364,8706,7,-1054,-4347,24,-171,-75,65
365,8723,-14,-1047,-4315,24,-174,-73,57
366,8701,26,-947,-4325,24,-181,-68,85
367,8768,2,-946,-4337,24,-172,-64,80
368,8702,-19,-883,-4344,24,-176,-72,75
369,8669,-41,-954,-4327,24,-177,-77,73
370,8677,-57,-843,-4330,24,-172,-72,75
371,8665,-1,-956,-4331,24,-180,-72,74
372,8688,-47,-929,-4320,24,-165,-85,66
373,8706,-50,-874,-4335,24,-171,-77,59
374,8714,-52,-907,-4327,24,-168,-94,72
375,8740,-21,-1006,-4338,24,-173,-97,66
376,8760,1,-967,-4332,24,-171,-96,71
377,8727,4,-1009,-4336,24,-164,-79,75
378,8734,73,-1001,-4353,24,-163,-73,64
379,8681,5,-991,-4336,24,-177,-76,73
380,8689,-5,-977,-4342,24,-166,-75,74
381,8708,36,-906,-4340,24,-165,-80,67
382,8694,32,-1027,-4339,24,-172,-71,76
383,8737,33,-989,-4319,24,-175,-74,74
384,8681,28,-982,-4347,24,-181,-77,74
385,8720,-12,-942,-4332,24,-173,-80,68
386,8707,29,-1019,-4326,24,-176,-83,66
387,8714,-25,-957,-4332,24,-175,-70,66
388,8727,-21,-958,-4349,24,-184,-66,79
389,8699,-15,-993,-4334,24,-172,-75,69
390,8705,-35,-974,-4336,24,-189,-69,73
391,8683,-26,-1010,-4334,24,-174,-77,75
392,8669,-26,-925,-4331,24,-175,-76,70
393,8709,14,-950,-4328,24,-174,-75,61
394,8664,18,-935,-4339,24,-175,-78,61
395,8672,-6,-931,-4325,24,-179,-81,64
396,8725,-12,-946,-4346,24,-179,-75,68
397,8716,-3,-975,-4342,24,-169,-81,69
398,8696,-9,-971,-4330,24,-180,-84,73
399,8743,16,-954,-4337,24,-179,-88,75
400,8734,32,-888,-4327,24,-179,-81,72
401,8721,-26,-1004,-4335,24,-176,-81,66
402,8694,-48,-955,-4338,24,-178,-78,72
403,8703,7,-961,-4338,24,-169,-93,76
404,8702,-60,-947,-4318,24,-170,-87,64
405,8700,-26,-954,-4326,24,-173,-88,63
406,8700,3,-934,-4327,24,-179,-95,63
407,8691,-57,-987,-4339,24,-162,-90,56
408,8735,-25,-978,-4330,24,-167,-86,65
409,8710,1,-1022,-4329,24,-172,-81,57
410,8720,-1,-979,-4341,24,-165,-77,66
411,8694,62,-1032,-4323,24,-163,-83,66
412,8741,60,-995,-4338,24,-179,-83,62
413,8691,11,-1002,-4338,24,-173,-75,65
414,8682,76,-951,-4321,24,-180,-73,76
415,8731,51,-1006,-4349,24,-175,-76,75
416,8685,-14,-971,-4331,24,-171,-71,64
417,8727,0,-926,-4326,24,-172,-82,71
418,8682,32,-948,-4344,24,-168,-72,76
419,8689,18,-986,-4345,24,-161,-82,71
420,8713,7,-971,-4324,24,-168,-86,75
421,8713,-37,-1029,-4350,24,-173,-87,72
422,8660,-39,-963,-4335,24,-170,-77,73
423,8689,12,-1003,-4330,24,-176,-77,70
424,8701,-2,-1013,-4335,24,-175,-68,77
425,8690,-16,-939,-4335,24,-176,-81,76
426,8669,-9,-956,-4330,24,-174,-87,62
427,8681,-23,-1026,-4332,24,-173,-76,69
428,8701,-10,-925,-4334,24,-182,-83,59
429,8741,-4,-976,-4331,24,-170,-85,72
430,8686,-27,-1044,-4343,24,-174,-84,72
431,8703,-1,-1022,-4346,24,-168,-82,67
432,8718,22,-1003,-4343,24,-164,-78,75
433,8702,27,-1084,-4342,24,-177,-69,76
434,8675,-3,-1001,-4335,24,-170,-72,73
435,8680,-16,-925,-4324,24,-165,-73,72
436,8676,40,-908,-4343,24,-164,-69,78
437,8654,-13,-923,-4345,24,-172,-69,77
438,8685,-11,-934,-4335,24,-173,-82,59
439,8709,19,-965,-4317,24,-166,-83,78
440,8681,4,-978,-4339,24,-172,-75,63
441,8716,-22,-1000,-4332,24,-175,-80,65
442,8732,-23,-999,-4337,24,-175,-74,74
443,8725,51,-1018,-4334,24,-182,-74,75
444,8687,20,-968,-4326,24,-177,-76,73
445,8699,40,-948,-4343,24,-171,-80,72
446,8687,15,-977,-4345,24,-172,-79,71
447,8644,-47,-890,-4325,24,-181,-78,75
448,8682,20,-955,-4336,24,-160,-82,70
449,8682,28,-1009,-4344,24,-170,-78,76
450,8710,-18,-1010,-4328,24,-171,-75,68
451,8692,-7,-1009,-4337,24,-170,-87,71
452,8670,-4,-987,-4338,24,-176,-70,69
453,8725,-48,-1018,-4338,24,-177,-78,81
454,8741,-34,-925,-4341,24,-173,-72,84
455,8716,-19,-937,-4342,24,-176,-65,73
456,8682,-16,-913,-4333,24,-174,-73,77
457,8767,-47,-965,-4327,24,-176,-70,72
458,8716,0,-933,-4319,24,-167,-74,69
459,8718,-27,-962,-4334,24,-169,-86,66
460,8720,-28,-983,-4328,24,-170,-85,67
461,8718,-9,-978,-4348,24,-172,-80,58
462,8722,22,-959,-4333,24,-170,-80,67
463,8698,-8,-932,-4324,24,-179,-89,62
464,8726,-40,-954,-4337,24,-174,-86,71
465,8720,47,-955,-4335,24,-175,-76,69
466,8711,6,-1027,-4326,24,-174,-74,74
467,8677,-7,-987,-4326,24,-176,-72,75
468,8717,-12,-993,-4328,24,-172,-80,75
469,8717,-31,-903,-4339,24,-175,-76,71
470,8718,-32,-986,-4330,24,-176,-77,61
471,8692,11,-997,-4347,24,-179,-81,74
472,8694,-38,-963,-4345,24,-169,-71,68
473,8678,-27,-1008,-4346,24,-172,-83,63
474,8742,-31,-954,-4325,24,-176,-85,68
475,8701,-56,-973,-4329,24,-174,-77,71
476,8689,-18,-965,-4348,24,-176,-73,72
477,8696,-24,-984,-4334,24,-169,-76,66
478,8670,-35,-956,-4343,24,-160,-77,70
479,8728,52,-955,-4325,24,-168,-83,67
480,8676,13,-1016,-4328,24,-174,-78,67
481,8700,24,-961,-4337,24,-170,-76,71
482,8683,3,-1022,-4335,24,-178,-70,70
483,8662,-4,-968,-4326,24,-175,-75,68
484,8725,24,-1019,-4325,24,-177,-85,69
485,8717,24,-952,-4348,24,-175,-69,65
486,8690,-29,-1003,-4331,24,-173,-79,70
487,8695,-19,-1032,-4335,24,-178,-84,73
488,8731,3,-973,-4335,24,-174,-74,65
489,8733,-25,-988,-4335,24,-167,-79,60
490,8735,5,-961,-4345,24,-177,-74,75
491,8721,-12,-999,-4318,24,-181,-83,70
492,8675,-15,-950,-4325,24,-170,-83,73
493,8712,-18,-918,-4343,24,-168,-82,74
494,8682,-28,-992,-4326,24,-169,-89,69
495,8698,9,-922,-4349,24,-166,-83,71
496,8724,43,-956,-4318,24,-172,-81,68
497,8696,20,-996,-4337,24,-172,-71,72
498,8699,-9,-1030,-4337,24,-175,-82,75
499,8709,0,-985,-4351,24,-170,-80,75
500,8711,-64,-865,-4342,24,-174,-78,69
501,8655,5,-925,-4332,24,-170,-67,83
502,8706,-18,-1040,-4340,24,-177,-83,71
503,8663,-48,-892,-4325,24,-175,-70,79
504,8666,-25,-944,-4329,24,-175,-84,65
505,8710,-9,-982,-4356,24,-174,-88,76
506,8700,7,-989,-4331,24,-177,-82,72
507,8744,-11,-953,-4347,24,-170,-82,75
508,8726,19,-949,-4332,24,-172,-83,68
509,8715,-7,-939,-4332,24,-170,-79,61
510,8707,-29,-1025,-4326,24,-178,-72,72
511,8707,-11,-976,-4325,24,-173,-77,76
512,8680,18,-975,-4332,24,-162,-81,72
513,8712,45,-921,-4316,24,-172,-82,69
514,8670,14,-979,-4322,24,-172,-79,73
515,8688,8,-982,-4348,24,-175,-80,65
516,8705,22,-1025,-4336,24,-179,-84,69
517,8694,-4,-914,-4334,24,-177,-80,64
518,8643,7,-1041,-4341,24,-180,-84,72
519,8692,5,-915,-4345,24,-173,-75,74
520,8709,8,-949,-4325,24,-170,-79,74
521,8664,-22,-936,-4333,24,-175,-82,73
522,8773,-35,-951,-4344,24,-175,-75,73
523,8732,-51,-1028,-4336,24,-178,-71,79
524,8707,-33,-960,-4339,24,-167,-76,66
525,8796,-52,-871,-4341,24,-169,-66,68
526,8815,14,-1077,-4326,24,-181,-133,65
527,8784,8,-942,-4345,24,-162,-46,64
528,8535,-39,-1108,-4348,24,-164,-117,63
529,8817,49,-917,-4330,24,-167,-76,67
530,8824,10,-1033,-4330,24,-179,-83,68
531,8560,-47,-982,-4347,24,-171,-52,77
532,8741,79,-895,-4344,24,-171,-82,67
533,8738,13,-967,-4334,24,-172,-68,68
534,8693,21,-959,-4329,24,-167,-85,80
535,8694,-11,-985,-4334,24,-170,-60,74
536,8741,1,-1008,-4350,24,-169,-89,74
537,8724,-14,-920,-4329,24,-171,-74,64
538,8658,-21,-965,-4344,24,-173,-76,72
539,8730,0,-969,-4340,24,-168,-72,67
540,8710,-14,-1015,-4341,24,-169,-80,71
541,8666,4,-934,-4329,24,-173,-79,72
542,8718,14,-997,-4344,24,-176,-82,81
543,8690,-5,-981,-4319,24,-169,-71,62
544,8708,4,-962,-4329,24,-177,-73,67
545,8697,-36,-982,-4318,24,-174,-83,68
546,8729,-27,-949,-4347,24,-172,-70,68
547,8707,-62,-984,-4334,24,-166,-89,69
548,8681,13,-907,-4345,24,-177,-75,67
549,8700,14,-983,-4321,24,-169,-82,68
550,8707,-24,-1021,-4331,24,-172,-70,65
551,8668,18,-940,-4342,24,-166,-69,74
552,8717,-21,-981,-4329,24,-167,-75,66
553,8691,-25,-972,-4334,24,-172,-75,68
554,8726,-13,-979,-4338,24,-168,-75,67
555,8702,35,-994,-4342,24,-175,-79,83
556,8667,-20,-981,-4342,24,-168,-78,69
557,8685,-5,-876,-4328,24,-172,-73,64
558,8721,4,-934,-4347,24,-173,-73,69
559,8725,7,-984,-4334,24,-178,-76,67
560,8689,0,-921,-4336,24,-172,-79,68
561,8750,-3,-946,-4339,24,-170,-84,62
562,8733,7,-939,-4341,24,-179,-76,65
563,8684,5,-967,-4340,24,-165,-77,65
564,8718,-26,-1000,-4340,24,-175,-80,78
565,8727,1,-953,-4343,24,-170,-69,64
566,8756,-30,-958,-4335,24,-177,-78,56
567,8648,-12,-920,-4336,24,-179,-82,77
568,8670,15,-934,-4334,24,-173,-72,79
569,8690,-9,-1009,-4334,24,-168,-72,64
570,8728,-2,-965,-4347,24,-168,-81,77
571,8699,-33,-980,-4337,24,-178,-82,78
572,8671,-12,-963,-4342,24,-178,-77,70
573,8669,10,-935,-4327,24,-172,-85,65
574,8719,-29,-954,-4345,24,-182,-75,74
575,8710,-17,-911,-4327,24,-178,-73,72
576,8703,-6,-977,-4334,24,-175,-79,68
577,8765,47,-951,-4333,24,-176,-65,75
578,8691,-37,-999,-4330,24,-177,-76,74
579,8729,-21,-910,-4343,24,-173,-78,71
580,8728,4,-978,-4346,24,-167,-73,69
581,8745,-16,-949,-4343,24,-166,-81,68
582,8698,-21,-940,-4323,24,-176,-79,68
583,8724,-16,-963,-4341,24,-170,-73,69
584,8723,11,-1017,-4338,24,-171,-87,77
585,8714,-11,-940,-4322,24,-175,-80,68
586,8722,-36,-1038,-4339,24,-172,-83,72
587,8725,-45,-1011,-4326,24,-170,-89,75
588,8698,-23,-956,-4340,24,-172,-81,65
589,8722,-29,-956,-4335,24,-172,-86,77
590,8687,-7,-982,-4328,24,-168,-79,67
591,8734,-26,-982,-4331,24,-168,-79,74
592,8687,-4,-924,-4352,24,-167,-74,70
593,8695,10,-990,-4334,24,-172,-81,70
594,8694,-22,-952,-4340,24,-178,-76,71
595,8717,3,-1001,-4337,24,-180,-68,71
596,8735,2,-1023,-4331,24,-176,-76,70
597,8689,-29,-1036,-4340,24,-178,-76,68
598,8716,0,-903,-4324,24,-173,-75,67
599,8669,-29,-958,-4333,24,-174,-74,82
600,8679,0,-923,-4326,24,-168,-83,69
601,8718,11,-970,-4334,24,-176,-75,69
602,8683,-2,-981,-4339,24,-167,-73,67
603,8677,-15,-959,-4349,24,-179,-83,64
604,8649,-34,-949,-4331,24,-170,-80,66
605,8696,39,-969,-4340,24,-174,-85,74
606,8741,-22,-929,-4325,24,-180,-76,68
607,8695,-32,-959,-4330,24,-173,-83,66
608,8683,23,-973,-4346,24,-177,-75,71
609,8724,-9,-997,-4337,24,-172,-78,70
610,8690,-6,-980,-4324,24,-185,-82,70
611,8696,-23,-1009,-4327,24,-175,-86,64
612,8689,-18,-1001,-4332,24,-163,-79,68
613,8689,26,-863,-4320,24,-170,-71,64
614,8683,-4,-1009,-4339,24,-173,-90,66
615,8690,-32,-937,-4337,24,-175,-72,70
616,8662,-26,-1006,-4344,24,-168,-77,75
617,8731,12,-900,-4326,24,-172,-72,74
618,8706,-26,-989,-4337,24,-170,-78,71
619,8699,-26,-963,-4331,24,-162,-80,72
620,8700,15,-929,-4336,24,-179,-81,74
621,8713,17,-998,-4339,24,-173,-72,72
622,8680,26,-971,-4332,24,-181,-79,62
623,8735,8,-918,-4329,24,-176,-75,74
624,8740,24,-949,-4332,24,-170,-78,76
625,8720,5,-1008,-4335,24,-172,-87,61
626,8685,0,-971,-4331,24,-170,-83,71
627,8710,20,-960,-4337,24,-176,-87,67
628,8699,28,-1007,-4333,24,-173,-87,71
629,8672,-15,-987,-4343,24,-175,-71,81
630,8701,-36,-917,-4324,24,-176,-74,67
631,8704,-20,-1003,-4323,24,-181,-72,68
632,8722,-10,-981,-4337,24,-175,-71,65
633,8684,4,-973,-4328,24,-176,-90,72
634,8710,-13,-1020,-4319,24,-164,-72,73
635,8710,20,-893,-4339,24,-174,-78,64
636,8691,18,-1003,-4329,24,-173,-81,65
637,8718,-13,-924,-4342,24,-187,-84,77
638,8728,-3,-942,-4349,24,-167,-80,72
639,8720,-19,-981,-4331,24,-176,-78,71
640,8695,-7,-972,-4347,24,-179,-83,67
641,8678,7,-1008,-4337,24,-175,-84,69
642,8710,23,-971,-4329,24,-175,-72,61
643,8708,-22,-986,-4332,24,-176,-76,68
644,8707,24,-989,-4330,24,-172,-73,68
645,8728,14,-969,-4331,24,-174,-78,69
646,8661,-10,-951,-4351,24,-167,-86,65
647,8714,12,-1011,-4329,24,-162,-85,66
648,8683,-31,-923,-4347,24,-170,-79,74
649,8683,17,-970,-4342,24,-176,-80,73
650,8706,-8,-984,-4323,24,-179,-75,66
651,8734,1,-1045,-4338,24,-173,-69,76
652,8683,-12,-938,-4340,24,-170,-70,78
653,8688,20,-999,-4338,24,-174,-83,72
654,8687,9,-920,-4339,24,-179,-71,72
655,8727,-5,-939,-4328,24,-172,-68,64
656,8700,-10,-1009,-4341,24,-177,-77,78
657,8718,-41,-943,-4330,24,-179,-84,67
658,8699,-4,-912,-4340,24,-176,-80,66
659,8654,-27,-1013,-4329,24,-171,-78,78
660,8699,23,-938,-4341,24,-172,-77,71
661,8745,-26,-921,-4328,24,-164,-80,73
662,8713,-15,-981,-4326,24,-177,-74,62
663,8729,19,-987,-4341,24,-168,-69,65
664,8684,-26,-987,-4340,24,-169,-75,76
665,8690,-32,-976,-4337,24,-182,-73,66
666,8694,-35,-984,-4339,24,-172,-81,73
667,8702,-37,-1000,-4334,24,-167,-82,69
668,8676,-31,-965,-4325,24,-175,-86,74
669,8729,-7,-1009,-4338,24,-176,-85,69
670,8660,6,-920,-4323,24,-182,-78,70
671,8708,2,-1038,-4339,24,-170,-82,66
672,8737,16,-962,-4331,24,-169,-70,67
673,8724,-3,-967,-4329,24,-175,-77,77
674,8691,-9,-974,-4351,24,-181,-69,67
675,8699,-9,-996,-4337,24,-171,-78,79
676,8699,19,-935,-4332,24,-172,-82,71
677,8700,-37,-985,-4341,24,-172,-73,65
678,8716,21,-955,-4327,24,-177,-75,68
679,8679,7,-922,-4324,24,-168,-75,70
680,8694,4,-914,-4342,24,-173,-79,76
681,8697,13,-947,-4337,24,-178,-74,68
682,8687,-15,-926,-4329,24,-172,-80,75
683,8751,-2,-952,-4345,24,-178,-76,69
684,8695,-25,-930,-4331,24,-166,-87,69
685,8713,7,-1009,-4329,24,-179,-79,72
686,8716,3,-933,-4346,24,-171,-90,72
687,8689,5,-980,-4343,24,-186,-76,67
688,8705,23,-972,-4343,24,-180,-77,71
689,8692,10,-940,-4336,24,-173,-76,65
690,8690,16,-997,-4335,24,-176,-81,69
691,8703,12,-961,-4326,24,-178,-85,67
692,8712,-13,-1005,-4348,24,-173,-83,69
693,8685,6,-994,-4343,24,-171,-71,64
694,8689,-20,-984,-4335,24,-168,-81,72
695,8749,18,-956,-4331,24,-182,-86,66
696,8681,15,-939,-4322,24,-176,-86,71
697,8726,18,-990,-4338,24,-179,-68,75
698,8720,-34,-1005,-4334,24,-172,-77,68
699,8688,16,-972,-4351,24,-170,-67,72
700,8643,-15,-951,-4334,24,-170,-77,73
701,8694,15,-894,-4324,24,-178,-78,70
702,8658,-9,-989,-4318,24,-170,-77,73
703,8675,-32,-1004,-4328,24,-168,-72,70
704,8700,-20,-1004,-4336,24,-172,-74,71
705,8690,-12,-965,-4331,24,-178,-82,70
706,8706,-7,-933,-4337,24,-170,-76,64
707,8714,-10,-962,-4346,24,-169,-73,76
708,8699,-26,-977,-4335,24,-177,-72,70
709,8702,9,-973,-4342,24,-167,-75,87
710,8718,-10,-935,-4332,24,-166,-73,65
711,8744,28,-956,-4321,24,-179,-79,73
712,8704,19,-997,-4330,24,-176,-80,76
713,8710,-26,-913,-4340,24,-179,-74,69
714,8700,-16,-929,-4351,24,-176,-74,72
715,8704,-1,-941,-4332,24,-165,-74,63
716,8676,2,-972,-4338,24,-177,-82,64
717,8729,-21,-939,-4333,24,-181,-78,67
718,8693,-7,-1018,-4356,24,-177,-75,75
719,8713,-1,-1010,-4336,24,-179,-82,70
720,8729,-54,-871,-4333,24,-175,-80,72
721,8700,37,-913,-4332,24,-170,-75,70
722,8662,-25,-1007,-4347,24,-164,-70,65
723,8718,-27,-1002,-4333,24,-173,-78,65
724,8693,5,-1010,-4339,24,-176,-86,69
725,8713,-37,-989,-4343,24,-176,-85,75
726,8696,15,-964,-4318,24,-181,-87,68
727,8721,-17,-961,-4333,24,-175,-72,74
728,8696,22,-987,-4328,24,-170,-77,69
729,8733,36,-964,-4333,24,-174,-75,67
730,8726,21,-950,-4328,24,-177,-89,69
731,8680,-10,-966,-4329,24,-170,-85,72
732,8736,-34,-932,-4331,24,-182,-79,71
733,8702,-23,-953,-4335,24,-177,-72,70
734,8659,-7,-1027,-4332,24,-170,-72,75
735,8706,-54,-960,-4335,24,-178,-77,71
736,8697,-17,-995,-4332,24,-181,-71,67
737,8765,-46,-962,-4334,24,-173,-82,73
738,8742,2,-963,-4327,24,-171,-76,76
739,8698,-3,-974,-4338,24,-169,-75,64
740,8661,37,-1039,-4331,24,-181,-75,74
741,8711,-36,-1008,-4335,24,-184,-75,69
742,8710,-5,-978,-4333,24,-172,-85,72
743,8680,-19,-949,-4333,24,-188,-68,67
744,8685,10,-900,-4334,24,-180,-74,78
745,8697,4,-960,-4333,24,-173,-75,74
746,8705,8,-967,-4340,24,-170,-73,77
747,8737,-13,-987,-4337,24,-171,-80,74
748,8734,-1,-992,-4337,24,-170,-70,72
749,8685,15,-967,-4332,24,-171,-73,73
750,8687,-11,-925,-4339,24,-174,-83,69
751,8728,-20,-979,-4335,24,-163,-79,65
752,8739,11,-1016,-4340,24,-175,-82,71
753,8692,26,-931,-4329,24,-173,-74,64
754,8695,-19,-937,-4337,24,-171,-84,73
755,8703,-28,-919,-4338,24,-173,-72,66
756,8679,-3,-913,-4328,24,-176,-76,70
757,8715,-27,-927,-4334,24,-172,-79,73
758,8714,-32,-936,-4335,24,-175,-81,75
759,8719,12,-980,-4331,24,-168,-79,62
760,8727,19,-970,-4327,24,-178,-89,75
761,8708,14,-954,-4329,24,-170,-74,70
762,8678,-15,-921,-4334,24,-184,-71,68
763,8680,12,-986,-4330,24,-170,-84,70
764,8726,7,-963,-4335,24,-179,-87,60
765,8700,6,-935,-4347,24,-167,-73,64
766,8711,-8,-1015,-4335,24,-171,-84,73
767,8687,-4,-942,-4325,24,-171,-77,73
768,8735,-5,-943,-4321,24,-181,-78,70
769,8703,3,-960,-4325,24,-173,-78,63
770,8716,-19,-952,-4324,24,-172,-69,68
771,8687,7,-937,-4328,24,-173,-81,72
772,8726,3,-1033,-4333,24,-167,-76,66
773,8725,-25,-941,-4334,24,-172,-84,67
774,8680,24,-1015,-4338,24,-175,-81,64
775,8710,19,-985,-4324,24,-172,-70,66
776,8716,13,-962,-4328,24,-177,-78,77
777,8698,34,-949,-4331,24,-172,-81,68
778,8729,-12,-946,-4349,24,-167,-83,72
779,8667,-19,-911,-4314,24,-174,-70,72
780,8701,-34,-1002,-4334,24,-174,-84,65
781,8673,10,-1001,-4332,24,-171,-81,68
782,8751,-34,-989,-4338,24,-178,-74,73
783,8698,-27,-978,-4315,24,-171,-78,74
784,8721,-31,-941,-4337,24,-167,-83,69
785,8727,-17,-974,-4345,24,-178,-86,68
786,8701,-14,-922,-4331,24,-181,-80,71
787,8692,-10,-949,-4354,24,-182,-78,67
788,8710,21,-934,-4336,24,-177,-73,68
789,8700,-3,-1013,-4330,24,-167,-80,68
790,8696,16,-938,-4325,24,-175,-77,71
791,8700,4,-985,-4337,24,-178,-84,72
792,8679,16,-988,-4342,24,-174,-74,71
793,8665,19,-934,-4334,24,-169,-81,70
794,8717,-1,-999,-4314,24,-180,-75,68
795,8696,-15,-950,-4336,24,-177,-75,71
796,8674,-11,-937,-4334,24,-182,-96,68
797,8735,-11,-1042,-4332,24,-174,-82,74
798,8682,-41,-974,-4325,24,-178,-75,71
799,8689,-11,-994,-4345,24,-174,-71,69
800,8681,-11,-930,-4346,24,-177,-72,68
801,8684,7,-944,-4331,24,-161,-75,64
802,8706,-37,-968,-4338,24,-175,-81,74
803,8696,2,-964,-4332,24,-172,-82,64
804,8671,-52,-1001,-4345,24,-181,-83,59
805,8722,35,-987,-4320,24,-167,-75,70
806,8721,29,-977,-4320,24,-176,-78,75
807,8732,37,-995,-4323,24,-181,-76,70
808,8730,14,-988,-4323,24,-177,-74,76
809,8687,-5,-989,-4326,24,-182,-86,70
810,8723,-43,-935,-4332,24,-176,-80,69
811,8740,-59,-911,-4328,24,-181,-78,72
812,8690,-31,-968,-4342,24,-166,-84,77
813,8717,32,-974,-4347,24,-177,-73,64
814,8722,32,-943,-4342,24,-167,-88,74
815,8722,-7,-935,-4335,24,-178,-68,77
816,8754,2,-964,-4323,24,-178,-78,69
817,8690,11,-1011,-4336,24,-177,-79,72
818,8706,-1,-933,-4330,24,-172,-82,69
819,8692,16,-1023,-4332,24,-173,-81,76
820,8714,-11,-1057,-4336,24,-162,-77,78
821,8709,-3,-930,-4330,24,-176,-76,71
822,8713,-17,-936,-4334,24,-177,-85,72
823,8705,-13,-1050,-4336,24,-167,-70,70
824,8694,20,-977,-4352,24,-171,-74,72
825,8676,15,-1006,-4337,24,-172,-80,79
826,8688,-13,-1002,-4334,24,-173,-80,81
827,8700,-9,-1038,-4332,24,-171,-74,75
828,8708,2,-988,-4333,24,-174,-79,71
829,8680,15,-1027,-4334,24,-174,-75,68
830,8722,10,-1027,-4327,24,-178,-79,75
831,8691,-11,-880,-4337,24,-172,-70,67
832,8697,13,-971,-4327,24,-179,-79,75
833,8679,-11,-889,-4342,24,-177,-81,70
834,8669,16,-983,-4337,24,-178,-76,68
835,8699,9,-1006,-4342,24,-170,-83,74
836,8691,8,-1000,-4328,24,-169,-81,54
837,8676,9,-890,-4334,24,-171,-80,70
838,8706,-4,-958,-4321,24,-177,-87,65
839,8695,-43,-930,-4344,24,-183,-78,69
840,8702,-18,-915,-4332,24,-167,-84,75
841,8707,-49,-934,-4336,24,-182,-67,73
842,8696,7,-988,-4338,24,-176,-81,74
843,8718,-28,-984,-4330,24,-173,-87,72
844,8686,-14,-958,-4341,24,-176,-75,69
845,8704,-21,-962,-4324,24,-171,-78,70
846,8696,-33,-970,-4337,24,-167,-84,67
847,8723,10,-1032,-4333,24,-172,-77,68
848,8713,5,-923,-4332,24,-175,-77,67
849,8700,-4,-908,-4345,24,-177,-85,77
850,8715,-5,-943,-4335,24,-169,-75,59
851,8726,-12,-980,-4338,24,-168,-80,69
852,8731,-14,-931,-4336,24,-178,-76,64
853,8684,-26,-1035,-4340,24,-167,-78,72
854,8701,-2,-975,-4320,24,-168,-77,60
855,8686,28,-963,-4339,24,-176,-78,67
856,8712,-2,-953,-4339,24,-180,-76,78
857,8730,32,-1033,-4328,24,-175,-69,69
858,8678,-9,-938,-4338,24,-169,-73,64
859,8690,13,-959,-4339,24,-182,-73,67
860,8700,13,-937,-4333,24,-171,-81,71
861,8687,-13,-922,-4346,24,-172,-80,66
862,8779,-38,-985,-4334,24,-172,-77,66
863,8710,-5,-955,-4324,24,-183,-82,68
864,8711,-1,-965,-4340,24,-168,-67,64
865,8708,16,-962,-4330,24,-176,-74,78
866,8707,-4,-960,-4348,24,-172,-65,75
867,8696,-36,-980,-4323,24,-173,-81,71
868,8718,34,-939,-4326,24,-167,-77,60
869,8692,-15,-1001,-4344,24,-176,-78,80
870,8679,5,-945,-4331,24,-175,-70,72
871,8731,40,-942,-4333,24,-170,-79,63
872,8678,53,-977,-4344,24,-161,-83,69
873,8701,-26,-961,-4344,24,-172,-78,68
874,8732,23,-1017,-4334,24,-181,-74,63
875,8710,10,-994,-4338,24,-166,-78,68
876,8681,-11,-949,-4332,24,-171,-76,67
877,8685,11,-974,-4324,24,-175,-73,73
878,8734,-17,-1020,-4332,24,-172,-74,69
879,8717,5,-973,-4334,24,-170,-82,72
880,8683,-2,-1066,-4340,24,-169,-75,68
881,8695,18,-1030,-4344,24,-166,-86,65
882,8667,4,-917,-4341,24,-180,-80,77
883,8700,4,-938,-4326,24,-177,-76,79
884,8712,-16,-971,-4328,24,-172,-69,69
885,8719,16,-982,-4334,24,-184,-74,73
886,8683,40,-977,-4344,24,-176,-78,74
887,8709,-17,-1021,-4342,24,-178,-82,70
888,8729,-9,-954,-4340,24,-173,-73,76
889,8728,-10,-984,-4334,24,-167,-85,79
890,8729,36,-939,-4339,24,-174,-69,65
891,8670,-14,-953,-4332,24,-173,-84,64
892,8696,-7,-1001,-4340,24,-182,-74,71
893,8712,9,-947,-4326,24,-178,-76,70
894,8698,3,-939,-4350,24,-171,-89,67
895,8712,-16,-956,-4339,24,-167,-87,67
896,8692,-14,-977,-4340,24,-176,-87,71
897,8697,-12,-978,-4327,24,-178,-73,65
898,8678,5,-975,-4336,24,-183,-79,74
899,8711,1,-956,-4335,24,-176,-73,71
900,8705,-15,-971,-4343,24,-182,-80,68
901,8688,-3,-910,-4345,24,-176,-70,70
902,8693,-17,-956,-4345,24,-184,-76,69
903,8736,1,-963,-4329,24,-174,-90,61
904,8701,27,-980,-4345,24,-171,-77,68
905,8709,23,-973,-4317,24,-173,-80,79
906,8661,30,-980,-4335,24,-171,-82,78
907,8719,-33,-941,-4337,24,-172,-79,75
908,8728,-12,-966,-4354,24,-171,-67,76
909,8706,30,-900,-4333,24,-172,-76,75
910,8722,-10,-992,-4335,24,-178,-70,66
911,8725,-18,-955,-4335,24,-172,-81,64
912,8721,18,-947,-4348,24,-172,-72,73
913,8671,-20,-987,-4329,24,-181,-83,72
914,8667,13,-982,-4335,24,-166,-87,65
915,8745,31,-988,-4335,24,-171,-76,68
916,8661,22,-954,-4338,24,-166,-75,77
917,8696,20,-967,-4331,24,-183,-82,64
918,8693,8,-1014,-4327,24,-181,-77,73
919,8763,-8,-916,-4318,24,-180,-83,69
920,8729,-3,-1002,-4326,24,-168,-71,75
921,8719,-15,-1011,-4330,24,-177,-82,70
922,8680,18,-978,-4328,24,-171,-78,70
923,8686,10,-932,-4333,24,-165,-77,67
924,8713,26,-1011,-4345,24,-173,-80,71
925,8722,-7,-1017,-4359,24,-177,-84,69
926,8717,-10,-969,-4349,24,-176,-87,76
927,8702,15,-993,-4357,24,-175,-75,69
928,8687,-26,-1041,-4330,24,-167,-74,69
929,8729,15,-940,-4335,24,-173,-77,66
930,8700,-9,-931,-4348,24,-163,-74,68
931,8664,17,-940,-4340,24,-171,-76,66
932,8709,6,-984,-4332,24,-181,-87,75
933,8746,-2,-973,-4328,24,-176,-77,72
934,8701,3,-977,-4344,24,-179,-79,69
935,8730,-5,-950,-4329,24,-178,-80,76
936,8715,10,-961,-4335,24,-167,-78,68
937,8727,-19,-997,-4324,24,-172,-79,79
938,8713,9,-945,-4338,24,-175,-66,74
939,8701,-2,-999,-4319,24,-168,-76,75
940,8703,-1,-1007,-4345,24,-177,-82,69
941,8718,-13,-941,-4337,24,-182,-81,74
942,8683,-17,-995,-4343,24,-171,-73,75
943,8694,-39,-934,-4329,24,-176,-78,66
944,8707,-23,-899,-4329,24,-170,-86,69
945,8705,48,-991,-4330,24,-173,-67,75
946,8659,-4,-995,-4337,24,-181,-81,69
947,8707,-50,-965,-4348,24,-167,-82,68
948,8704,-17,-961,-4334,24,-171,-67,67
949,8724,-2,-954,-4335,24,-171,-75,71
950,8717,22,-974,-4341,24,-177,-77,80
951,8722,-9,-949,-4327,24,-174,-78,69
952,8709,-7,-1017,-4346,24,-178,-72,76
953,8730,19,-979,-4337,24,-173,-72,76
954,8666,6,-898,-4338,24,-176,-80,74
955,8705,-11,-903,-4335,24,-178,-78,69
956,8691,-4,-1001,-4327,24,-171,-76,67
957,8711,-12,-1030,-4342,24,-167,-83,79
958,8683,-11,-939,-4330,24,-167,-78,72
959,8690,21,-999,-4339,24,-178,-73,65
960,8726,-13,-997,-4331,24,-165,-69,71
961,8711,-38,-910,-4349,24,-175,-82,58
962,8679,-3,-946,-4344,24,-173,-78,75
963,8707,11,-943,-4320,24,-169,-71,71
964,8776,-44,-1005,-4330,24,-180,-80,71
965,8662,-12,-969,-4326,24,-172,-77,67
966,8686,-6,-970,-4338,24,-175,-83,68
967,8715,-1,-1033,-4329,24,-174,-86,64
968,8732,-1,-927,-4332,24,-169,-84,70
969,8696,-7,-941,-4346,24,-178,-87,71
970,8733,15,-984,-4329,24,-170,-75,70
971,8703,1,-976,-4337,24,-172,-89,69
972,8722,17,-962,-4328,24,-176,-80,69
973,8701,20,-957,-4347,24,-176,-90,66
974,8727,-15,-943,-4335,24,-173,-82,72
975,8720,14,-966,-4338,24,-172,-80,74
976,8700,14,-1031,-4351,24,-173,-84,78
977,8700,47,-936,-4343,24,-173,-81,68
978,8717,-3,-962,-4342,24,-180,-76,65
979,8701,-14,-993,-4341,24,-179,-68,69
980,8746,20,-950,-4342,24,-166,-79,74
981,8704,-38,-943,-4328,24,-165,-80,69
982,8715,-1,-946,-4338,24,-173,-72,61
983,8724,1,-983,-4347,24,-174,-71,68
984,8754,0,-933,-4336,24,-175,-76,71
985,8684,-3,-915,-4334,24,-174,-80,79
986,8674,-33,-999,-4335,24,-179,-81,75
987,8721,-30,-964,-4338,24,-167,-84,78
988,8651,4,-976,-4350,24,-164,-83,72
989,8697,9,-954,-4335,24,-167,-72,67
990,8706,-30,-957,-4353,24,-182,-80,78
991,8689,36,-982,-4325,24,-172,-85,73
992,8713,-15,-958,-4343,24,-170,-78,68
993,8701,15,-952,-4328,24,-177,-78,69
994,8717,-9,-925,-4337,24,-182,-83,66
995,8688,11,-903,-4332,24,-174,-82,83
996,8713,-2,-914,-4326,24,-168,-80,66
997,8723,11,-961,-4326,24,-170,-81,67
