,acc_X,acc_Y,acc_Z,temp,tempC,gyr_X,gyr_Y,gyr_Z
0,2181,-9,-166,-4658,23,-44,-17,16
1,2178,0,-182,-4659,23,-43,-18,17
2,2180,-5,-158,-4663,23,-42,-20,19
3,2184,-8,-150,-4667,23,-42,-16,18
4,2174,0,-170,-4667,23,-43,-20,16
5,2170,-4,-157,-4662,23,-42,-20,16
6,2187,-1,-165,-4653,23,-44,-23,16
7,2182,5,-158,-4661,23,-43,-21,17
8,2186,4,-156,-4646,23,-42,-20,19
9,2177,3,-165,-4658,23,-43,-19,16
10,2189,1,-165,-4659,23,-44,-20,17
11,2178,-2,-177,-4669,23,-45,-20,18
12,2172,-7,-192,-4666,23,-44,-19,17
13,2181,-9,-179,-4657,23,-43,-19,18
14,2174,6,-182,-4664,23,-43,-20,17
15,2180,10,-172,-4659,23,-44,-20,18
16,2179,8,-166,-4659,23,-43,-19,18
17,2178,-3,-188,-4645,23,-42,-18,16
18,2177,11,-175,-4662,23,-44,-21,20
19,2186,11,-176,-4657,23,-41,-20,18
20,2174,4,-163,-4658,23,-44,-19,18
21,2185,4,-178,-4670,23,-43,-20,16
22,2184,0,-162,-4660,23,-44,-19,17
23,2172,0,-183,-4650,23,-44,-19,19
24,2180,-2,-183,-4660,23,-43,-18,18
25,2174,-9,-168,-4663,23,-44,-17,17
26,2176,2,-161,-4661,23,-43,-19,18
27,2174,1,-165,-4662,23,-43,-18,17
28,2171,2,-178,-4663,23,-44,-19,16
29,2180,8,-179,-4657,23,-44,-18,17
30,2176,-5,-179,-4668,23,-45,-21,18
31,2189,-3,-172,-4665,23,-45,-17,15
32,2184,-4,-171,-4657,23,-43,-21,19
33,2186,3,-178,-4667,23,-42,-19,18
34,2186,0,-173,-4654,23,-42,-20,16
35,2170,-2,-164,-4660,23,-45,-19,17
36,2174,-6,-166,-4653,23,-44,-21,16
37,2170,1,-175,-4654,23,-44,-20,17
38,2169,11,-162,-4673,23,-43,-19,16
39,2178,0,-168,-4667,23,-42,-21,20
40,2179,-14,-180,-4675,23,-44,-19,17
41,2175,6,-170,-4665,23,-43,-19,18
42,2187,-1,-168,-4666,23,-43,-20,18
43,2181,0,-180,-4666,23,-41,-20,17
44,2165,1,-178,-4669,23,-42,-16,20
45,2182,-6,-164,-4675,23,-44,-21,19
46,2176,2,-168,-4658,23,-43,-18,16
47,2186,-6,-176,-4667,23,-45,-19,17
48,2180,6,-173,-4660,23,-44,-21,17
49,2176,-2,-166,-4666,23,-43,-20,18
50,2180,-5,-175,-4652,23,-45,-21,18
51,2179,3,-170,-4664,23,-44,-20,15
52,2178,-5,-187,-4662,23,-45,-19,18
53,2177,-11,-178,-4671,23,-44,-22,16
54,2174,6,-173,-4661,23,-44,-20,18
55,2192,-3,-174,-4673,23,-43,-19,16
56,2175,5,-182,-4660,23,-42,-20,16
57,2175,-3,-183,-4661,23,-42,-19,16
58,2170,-1,-157,-4661,23,-42,-19,18
59,2178,4,-158,-4668,23,-43,-21,17
60,2167,-7,-178,-4664,23,-42,-20,17
61,2171,3,-147,-4649,23,-43,-18,17
62,2177,-1,-166,-4664,23,-43,-21,17
63,2173,13,-185,-4669,23,-44,-21,18
64,2178,5,-160,-4666,23,-43,-21,17
65,2175,9,-167,-4659,23,-43,-19,16
66,2174,-3,-168,-4658,23,-42,-20,17
67,2177,4,-184,-4660,23,-41,-19,20
68,2180,5,-177,-4658,23,-44,-21,20
69,2181,1,-170,-4675,23,-45,-18,16
70,2176,7,-156,-4649,23,-42,-19,17
71,2182,-3,-175,-4651,23,-44,-20,18
72,2182,-3,-168,-4657,23,-43,-18,20
73,2174,7,-167,-4655,23,-43,-19,18
74,2181,2,-175,-4655,23,-43,-18,17
75,2181,2,-165,-4660,23,-44,-19,20
76,2180,-9,-173,-4657,23,-43,-21,18
77,2173,-7,-171,-4651,23,-43,-20,19
78,2171,-3,-161,-4666,23,-42,-18,18
79,2183,3,-169,-4668,23,-42,-19,16
80,2175,-7,-163,-4668,23,-46,-19,19
81,2175,3,-168,-4660,23,-44,-20,19
82,2176,-9,-171,-4653,23,-43,-20,17
83,2182,-4,-176,-4670,23,-45,-21,16
84,2173,0,-164,-4650,23,-44,-22,19
85,2173,-2,-177,-4668,23,-45,-21,18
86,2174,-5,-165,-4658,23,-44,-22,17
87,2176,-7,-178,-4651,23,-44,-20,18
88,2181,2,-175,-4662,23,-43,-20,17
89,2181,-6,-179,-4671,23,-44,-19,18
90,2170,8,-176,-4650,23,-43,-21,16
91,2175,-3,-181,-4656,23,-44,-20,19
92,2185,-5,-166,-4663,23,-43,-18,18
93,2181,-6,-170,-4656,23,-44,-20,17
94,2191,-6,-151,-4660,23,-43,-22,18
95,2177,-1,-177,-4663,23,-44,-21,17
96,2178,3,-161,-4666,23,-43,-19,17
97,2180,-3,-176,-4662,23,-43,-20,18
98,2176,-2,-166,-4661,23,-44,-20,17
99,2181,13,-180,-4654,23,-45,-17,17
100,2179,2,-165,-4655,23,-43,-20,15
101,2175,2,-164,-4664,23,-42,-21,17
102,2180,5,-165,-4652,23,-44,-20,17
103,2173,2,-170,-4669,23,-43,-21,17
104,2186,-5,-167,-4662,23,-43,-17,18
105,2177,-7,-168,-4657,23,-45,-21,18
106,2180,-1,-178,-4657,23,-44,-20,16
107,2181,-1,-152,-4659,23,-43,-21,17
108,2177,-5,-155,-4654,23,-45,-19,17
109,2180,4,-165,-4663,23,-43,-19,17
110,2173,-2,-177,-4656,23,-44,-21,17
111,2177,6,-172,-4676,23,-43,-20,19
112,2184,-8,-164,-4675,23,-42,-20,19
113,2174,3,-169,-4659,23,-44,-18,18
114,2172,6,-182,-4647,23,-42,-20,17
115,2172,2,-175,-4653,23,-45,-19,16
116,2172,1,-174,-4657,23,-43,-18,18
117,2173,4,-171,-4652,23,-44,-19,18
118,2177,-9,-160,-4657,23,-41,-19,18
119,2185,4,-181,-4661,23,-42,-19,17
120,2180,-1,-164,-4658,23,-44,-18,18
121,2177,-3,-176,-4666,23,-43,-22,18
122,2178,2,-167,-4659,23,-45,-19,17
123,2179,-10,-168,-4664,23,-44,-19,17
124,2180,4,-166,-4660,23,-43,-21,19
125,2183,1,-172,-4660,23,-45,-21,17
126,2177,1,-160,-4652,23,-43,-19,17
127,2168,5,-181,-4646,23,-45,-19,18
128,2185,-7,-170,-4652,23,-43,-21,16
129,2179,-4,-177,-4663,23,-43,-21,17
130,2171,-2,-178,-4645,23,-43,-20,19
131,2176,5,-156,-4659,23,-43,-19,17
132,2177,5,-167,-4666,23,-45,-19,20
133,2177,3,-167,-4660,23,-43,-19,18
134,2171,-6,-167,-4657,23,-43,-19,16
135,2181,-9,-167,-4660,23,-42,-21,17
136,2169,-2,-173,-4667,23,-42,-17,17
137,2176,-11,-176,-4666,23,-42,-19,16
138,2177,4,-177,-4653,23,-43,-20,18
139,2172,-3,-169,-4659,23,-44,-19,18
140,2177,-2,-165,-4658,23,-43,-19,18
141,2181,0,-162,-4653,23,-43,-19,16
142,2181,3,-173,-4657,23,-43,-20,17
143,2176,-3,-178,-4657,23,-43,-20,17
144,2172,-1,-156,-4657,23,-44,-20,17
145,2183,2,-175,-4647,23,-42,-19,18
146,2180,-5,-196,-4657,23,-42,-19,16
147,2179,7,-175,-4652,23,-44,-20,17
148,2185,0,-167,-4662,23,-43,-17,17
149,2179,7,-169,-4660,23,-44,-19,19
150,2170,5,-171,-4651,23,-45,-19,16
151,2175,-1,-179,-4656,23,-44,-19,19
152,2176,-3,-166,-4667,23,-42,-18,18
153,2185,-7,-175,-4663,23,-44,-20,18
154,2183,-5,-178,-4655,23,-43,-19,18
155,2176,5,-186,-4655,23,-41,-18,17
156,2183,-3,-171,-4644,23,-42,-18,18
157,2177,-9,-182,-4650,23,-43,-20,20
158,2179,-4,-178,-4662,23,-43,-19,16
159,2175,5,-181,-4661,23,-44,-18,17
160,2167,0,-160,-4665,23,-44,-19,19
161,2175,10,-170,-4656,23,-44,-19,19
162,2183,0,-152,-4666,23,-43,-18,17
163,2176,6,-169,-4667,23,-44,-21,16
164,2177,-3,-177,-4659,23,-43,-19,16
165,2184,-6,-161,-4666,23,-43,-18,16
166,2169,-3,-174,-4661,23,-42,-21,17
167,2176,-2,-160,-4661,23,-43,-19,18
168,2178,-15,-176,-4662,23,-42,-18,16
169,2180,-7,-173,-4670,23,-43,-19,18
170,2167,-3,-170,-4663,23,-43,-21,18
171,2175,-9,-176,-4657,23,-42,-22,15
172,2176,-10,-181,-4658,23,-43,-19,18
173,2163,8,-174,-4665,23,-45,-21,17
174,2174,-9,-175,-4661,23,-43,-20,17
175,2161,7,-175,-4660,23,-45,-18,17
176,2178,-1,-176,-4656,23,-42,-20,17
177,2177,-6,-168,-4666,23,-43,-18,15
178,2186,-11,-172,-4670,23,-43,-20,16
179,2176,4,-168,-4667,23,-43,-19,19
180,2171,-5,-182,-4673,23,-46,-19,17
181,2187,2,-183,-4645,23,-45,-20,17
182,2177,-12,-173,-4672,23,-45,-17,18
183,2173,0,-181,-4672,23,-44,-21,18
184,2182,-2,-171,-4669,23,-42,-19,17
185,2169,-2,-177,-4661,23,-43,-21,17
186,2168,3,-169,-4646,23,-45,-22,18
187,2177,-5,-165,-4654,23,-42,-21,17
188,2181,-2,-173,-4659,23,-45,-19,17
189,2174,-1,-180,-4675,23,-42,-19,17
190,2175,-4,-182,-4666,23,-43,-19,16
191,2176,-4,-183,-4665,23,-42,-19,20
192,2188,8,-171,-4664,23,-43,-19,18
193,2180,-8,-177,-4660,23,-44,-18,18
194,2176,-4,-181,-4659,23,-44,-19,16
195,2169,4,-161,-4659,23,-43,-19,18
196,2177,1,-166,-4654,23,-44,-20,18
197,2182,-6,-169,-4652,23,-44,-18,17
198,2176,0,-168,-4663,23,-44,-21,17
199,2177,2,-173,-4668,23,-41,-19,18
200,2182,-5,-166,-4656,23,-42,-20,17
201,2185,-5,-173,-4664,23,-44,-18,17
202,2178,-9,-169,-4685,23,-43,-18,17
203,2177,9,-181,-4655,23,-43,-19,17
204,2171,-8,-177,-4670,23,-42,-19,19
205,2175,3,-175,-4647,23,-44,-20,18
206,2188,0,-159,-4655,23,-43,-20,17
207,2176,-7,-165,-4658,23,-42,-20,17
208,2179,7,-172,-4655,23,-42,-19,19
209,2188,-5,-172,-4660,23,-44,-18,17
210,2175,0,-147,-4671,23,-42,-18,18
211,2176,2,-160,-4668,23,-42,-20,17
212,2182,-6,-171,-4664,23,-44,-20,18
213,2184,0,-163,-4662,23,-43,-19,18
214,2185,-9,-167,-4659,23,-44,-18,18
215,2182,-11,-155,-4654,23,-43,-20,18
216,2176,2,-182,-4655,23,-45,-19,17
217,2180,-5,-159,-4662,23,-45,-18,16
218,2189,-2,-172,-4672,23,-43,-20,16
219,2177,-6,-154,-4655,23,-44,-21,18
220,2178,2,-190,-4658,23,-44,-18,18
221,2184,6,-176,-4644,23,-42,-21,18
222,2173,-2,-178,-4666,23,-43,-21,17
223,2167,-2,-168,-4657,23,-44,-20,18
224,2174,-13,-156,-4651,23,-46,-19,17
225,2180,-4,-174,-4663,23,-43,-19,18
226,2179,1,-172,-4660,23,-45,-18,18
227,2176,6,-171,-4659,23,-45,-20,18
228,2182,-9,-181,-4655,23,-44,-17,19
229,2179,5,-174,-4661,23,-42,-21,17
230,2181,6,-168,-4645,23,-41,-19,20
231,2183,-4,-177,-4669,23,-43,-20,18
232,2174,-2,-185,-4661,23,-43,-19,17
233,2173,-7,-184,-4660,23,-43,-19,18
234,2182,0,-166,-4663,23,-44,-20,17
235,2186,15,-179,-4661,23,-42,-21,17
236,2175,7,-168,-4658,23,-44,-20,18
237,2181,-7,-180,-4648,23,-44,-22,18
238,2186,10,-171,-4658,23,-43,-19,16
239,2185,6,-169,-4664,23,-43,-17,18
240,2173,-1,-174,-4662,23,-44,-19,18
241,2179,-3,-168,-4658,23,-44,-19,16
242,2171,4,-164,-4660,23,-44,-17,18
243,2175,-12,-167,-4673,23,-45,-18,16
244,2176,-6,-173,-4664,23,-42,-18,19
245,2172,6,-182,-4652,23,-43,-17,18
246,2176,-9,-171,-4645,23,-44,-20,17
247,2178,4,-184,-4642,23,-45,-20,19
248,2170,-1,-176,-4660,23,-43,-17,18
249,2188,-10,-184,-4658,23,-43,-18,19
250,2177,-5,-179,-4660,23,-43,-19,16
251,2176,-1,-159,-4658,23,-44,-21,18
252,2178,-1,-167,-4657,23,-44,-20,18
253,2181,11,-178,-4660,23,-43,-18,18
254,2186,7,-173,-4650,23,-43,-22,18
255,2177,-3,-159,-4656,23,-44,-21,17
256,2182,-5,-168,-4657,23,-43,-21,17
257,2173,-8,-171,-4666,23,-43,-18,17
258,2191,5,-167,-4655,23,-43,-21,18
259,2169,-4,-180,-4665,23,-44,-19,18
260,2169,-4,-170,-4647,23,-43,-20,18
261,2175,6,-171,-4654,23,-45,-18,17
262,2172,-3,-181,-4646,23,-42,-19,17
263,2171,5,-174,-4647,23,-44,-19,16
264,2181,-10,-171,-4652,23,-43,-20,18
265,2174,0,-183,-4660,23,-44,-19,19
266,2181,5,-172,-4661,23,-44,-20,19
267,2178,4,-166,-4661,23,-43,-21,18
268,2179,1,-183,-4656,23,-44,-20,16
269,2180,-3,-161,-4674,23,-44,-19,19
270,2174,1,-154,-4653,23,-43,-20,14
271,2174,18,-197,-4669,23,-43,-18,15
272,2183,-4,-185,-4649,23,-44,-18,16
273,2181,-10,-170,-4652,23,-44,-19,18
274,2176,-5,-174,-4646,23,-45,-17,17
275,2181,-1,-169,-4663,23,-42,-18,20
276,2185,-1,-180,-4664,23,-44,-19,18
277,2172,-4,-165,-4664,23,-43,-17,17
278,2176,5,-169,-4671,23,-43,-18,18
279,2174,-9,-165,-4646,23,-41,-17,18
280,2171,0,-167,-4652,23,-44,-20,18
281,2175,-5,-167,-4665,23,-43,-20,17
282,2184,-2,-169,-4654,23,-44,-20,18
283,2183,4,-167,-4639,23,-44,-21,18
284,2180,-9,-183,-4666,23,-44,-19,15
285,2189,-13,-184,-4654,23,-45,-18,18
286,2187,-9,-157,-4673,23,-43,-19,18
287,2178,1,-159,-4669,23,-45,-20,18
288,2175,0,-151,-4654,23,-45,-20,16
289,2177,-2,-170,-4666,23,-43,-21,16
290,2182,0,-179,-4670,23,-43,-17,16
291,2172,-15,-155,-4660,23,-44,-17,17
292,2179,5,-169,-4656,23,-43,-19,18
293,2181,-5,-181,-4657,23,-43,-20,18
294,2185,-4,-165,-4666,23,-44,-19,17
295,2163,-4,-171,-4658,23,-44,-20,17
296,2169,0,-172,-4656,23,-44,-22,17
297,2174,7,-181,-4646,23,-44,-20,18
298,2178,-1,-159,-4658,23,-44,-20,18
299,2183,-2,-176,-4671,23,-44,-20,17
300,2173,5,-169,-4663,23,-44,-18,19
301,2179,2,-163,-4659,23,-44,-20,17
302,2175,-2,-162,-4666,23,-43,-18,16
303,2179,-1,-179,-4647,23,-44,-20,18
304,2177,-9,-176,-4657,23,-45,-21,18
305,2172,4,-159,-4648,23,-45,-17,16
306,2175,-8,-168,-4660,23,-45,-20,17
307,2176,-3,-172,-4655,23,-45,-18,17
308,2172,-9,-178,-4664,23,-43,-21,17
309,2180,-3,-174,-4652,23,-45,-18,17
310,2171,-6,-166,-4669,23,-44,-19,19
311,2183,-6,-166,-4650,23,-45,-21,18
312,2185,0,-171,-4648,23,-44,-19,15
313,2178,1,-170,-4655,23,-45,-19,16
314,2185,-1,-172,-4658,23,-44,-20,16
315,2179,-13,-167,-4662,23,-45,-18,17
316,2172,1,-168,-4659,23,-44,-20,18
317,2181,6,-187,-4666,23,-43,-20,17
318,2182,7,-168,-4658,23,-44,-20,17
319,2176,-15,-180,-4666,23,-44,-20,17
320,2173,4,-166,-4666,23,-43,-20,20
321,2168,0,-173,-4652,23,-44,-18,18
322,2188,7,-172,-4670,23,-44,-20,19
323,2176,0,-173,-4645,23,-43,-17,17
324,2169,2,-180,-4663,23,-43,-17,19
325,2184,-4,-161,-4657,23,-44,-18,18
326,2183,-1,-175,-4666,23,-42,-19,18
327,2189,3,-180,-4653,23,-43,-17,18
328,2177,-2,-167,-4661,23,-44,-22,16
329,2169,5,-168,-4669,23,-45,-20,17
330,2174,-13,-171,-4669,23,-45,-20,16
331,2189,-5,-153,-4651,23,-44,-19,15
332,2173,6,-168,-4653,23,-43,-20,15
333,2175,1,-166,-4647,23,-42,-21,18
334,2180,6,-168,-4646,23,-43,-18,19
335,2170,2,-174,-4655,23,-45,-20,17
336,2180,-5,-189,-4663,23,-41,-20,18
337,2180,-1,-184,-4669,23,-43,-19,18
338,2181,-6,-173,-4661,23,-45,-18,19
339,2175,-11,-175,-4659,23,-43,-20,16
340,2171,-4,-171,-4664,23,-44,-20,16
341,2174,9,-178,-4666,23,-42,-20,17
342,2187,6,-181,-4660,23,-44,-19,18
343,2174,-10,-168,-4654,23,-44,-20,18
344,2180,0,-170,-4656,23,-42,-19,18
345,2173,6,-173,-4651,23,-43,-20,16
346,2165,-1,-179,-4658,23,-42,-20,18
347,2177,-2,-172,-4664,23,-45,-22,18
348,2175,0,-156,-4658,23,-45,-19,17
349,2186,0,-177,-4661,23,-44,-20,18
350,2172,-7,-179,-4649,23,-43,-18,19
351,2181,0,-184,-4662,23,-44,-21,18
352,2176,1,-177,-4663,23,-43,-19,18
353,2177,-2,-175,-4652,23,-43,-21,18
354,2173,-3,-177,-4658,23,-43,-17,18
355,2177,1,-169,-4658,23,-45,-19,18
356,2188,-2,-171,-4659,23,-44,-20,17
357,2183,4,-157,-4662,23,-43,-18,18
358,2173,-5,-175,-4656,23,-44,-19,18
359,2179,6,-175,-4646,23,-44,-19,18
360,2173,-4,-158,-4670,23,-43,-21,18
361,2178,-3,-166,-4651,23,-43,-18,17
362,2180,2,-160,-4659,23,-43,-19,17
363,2178,-13,-170,-4655,23,-44,-20,19
364,2181,2,-159,-4668,23,-43,-21,19
365,2175,-5,-149,-4655,23,-44,-20,17
366,2177,6,-172,-4653,23,-43,-20,17
367,2176,0,-173,-4646,23,-44,-20,17
368,2184,-13,-178,-4655,23,-43,-19,18
369,2178,-6,-163,-4660,23,-44,-18,20
370,2175,-4,-167,-4660,23,-44,-20,17
371,2164,-9,-164,-4661,23,-45,-21,18
372,2172,-6,-172,-4653,23,-44,-19,18
373,2177,0,-168,-4662,23,-44,-20,18
374,2190,-13,-163,-4653,23,-43,-20,16
375,2176,-4,-173,-4660,23,-43,-19,18
376,2179,7,-164,-4652,23,-44,-20,17
377,2182,4,-171,-4655,23,-45,-21,19
378,2182,-5,-159,-4659,23,-44,-20,17
379,2190,-3,-167,-4658,23,-44,-19,18
380,2175,7,-173,-4641,23,-44,-18,18
381,2171,0,-171,-4653,23,-44,-19,17
382,2177,9,-165,-4658,23,-45,-20,17
383,2182,2,-176,-4657,23,-43,-21,18
384,2180,-10,-160,-4657,23,-45,-22,16
385,2172,0,-168,-4670,23,-43,-21,19
386,2171,2,-176,-4655,23,-43,-20,19
387,2171,0,-149,-4661,23,-43,-22,18
388,2176,-9,-162,-4661,23,-44,-19,17
389,2173,-6,-177,-4663,23,-43,-20,18
390,2189,-4,-170,-4661,23,-43,-18,16
391,2175,-3,-169,-4652,23,-42,-18,17
392,2176,2,-175,-4661,23,-44,-19,18
393,2172,-2,-179,-4663,23,-43,-19,19
394,2187,-12,-176,-4650,23,-44,-18,18
395,2171,0,-167,-4651,23,-43,-19,19
396,2179,5,-163,-4669,23,-44,-20,19
397,2175,4,-170,-4674,23,-45,-18,16
398,2178,5,-161,-4658,23,-44,-20,18
399,2177,1,-190,-4653,23,-45,-21,18
400,2188,2,-179,-4665,23,-42,-19,19
401,2181,8,-173,-4659,23,-42,-19,17
402,2174,-14,-160,-4662,23,-45,-21,17
403,2167,6,-174,-4668,23,-44,-17,16
404,2169,-7,-174,-4653,23,-44,-20,18
405,2182,-6,-161,-4669,23,-44,-18,16
406,2178,7,-163,-4657,23,-44,-20,18
407,2170,5,-179,-4669,23,-43,-18,17
408,2183,-6,-176,-4661,23,-44,-18,16
409,2172,2,-170,-4657,23,-45,-21,19
410,2169,3,-161,-4643,23,-42,-18,17
411,2173,0,-157,-4653,23,-42,-21,20
412,2188,-9,-183,-4659,23,-43,-17,17
413,2183,0,-171,-4657,23,-43,-21,17
414,2177,1,-171,-4665,23,-44,-20,16
415,2179,7,-183,-4673,23,-43,-19,18
416,2176,-6,-165,-4659,23,-44,-21,18
417,2179,-3,-167,-4664,23,-46,-19,18
418,2185,1,-163,-4661,23,-44,-20,17
419,2186,0,-171,-4664,23,-44,-18,17
420,2172,-9,-179,-4644,23,-44,-20,17
421,2181,3,-173,-4656,23,-44,-19,17
422,2178,-11,-175,-4657,23,-42,-19,18
423,2181,3,-181,-4659,23,-45,-20,19
424,2177,-2,-169,-4663,23,-43,-19,18
425,2182,3,-180,-4670,23,-45,-19,17
426,2173,-4,-166,-4661,23,-43,-19,18
427,2181,2,-179,-4636,23,-45,-20,16
428,2176,-8,-168,-4647,23,-44,-20,19
429,2185,2,-162,-4665,23,-43,-20,18
430,2175,1,-169,-4649,23,-44,-21,16
431,2177,7,-179,-4652,23,-43,-19,17
432,2174,-3,-175,-4652,23,-43,-19,18
433,2182,7,-177,-4657,23,-45,-18,15
434,2175,-3,-179,-4653,23,-45,-19,16
435,2175,-1,-186,-4659,23,-44,-22,18
436,2173,-4,-157,-4659,23,-44,-18,16
437,2175,-6,-178,-4654,23,-43,-19,16
438,2169,-6,-179,-4657,23,-44,-19,17
439,2178,-15,-175,-4667,23,-43,-20,16
440,2178,-5,-181,-4661,23,-42,-21,18
441,2173,-9,-173,-4651,23,-43,-21,17
442,2176,-4,-182,-4657,23,-44,-21,18
443,2179,1,-190,-4659,23,-46,-18,19
444,2182,-4,-176,-4659,23,-44,-18,17
445,2180,1,-168,-4649,23,-43,-20,18
446,2182,-8,-168,-4661,23,-41,-19,17
447,2174,-1,-179,-4657,23,-45,-20,16
448,2178,-5,-179,-4659,23,-42,-20,19
449,2168,-1,-178,-4659,23,-44,-20,17
450,2177,-3,-168,-4664,23,-43,-19,17
451,2175,-6,-168,-4650,23,-43,-22,18
452,2172,2,-163,-4658,23,-43,-20,17
453,2175,4,-169,-4670,23,-44,-21,17
454,2170,-1,-161,-4650,23,-44,-20,18
455,2177,3,-158,-4650,23,-44,-20,18
456,2182,-13,-172,-4646,23,-44,-19,19
457,2176,-2,-174,-4654,23,-45,-18,18
458,2169,3,-176,-4659,23,-46,-18,17
459,2181,0,-158,-4659,23,-42,-20,17
460,2178,7,-168,-4654,23,-44,-19,17
461,2179,-3,-169,-4661,23,-45,-19,16
462,2177,-2,-190,-4656,23,-43,-20,16
463,2170,3,-185,-4664,23,-45,-20,19
464,2178,-4,-178,-4663,23,-44,-19,17
465,2181,-5,-173,-4657,23,-43,-20,17
466,2180,2,-178,-4669,23,-42,-18,17
467,2174,-9,-172,-4662,23,-44,-21,19
468,2182,-2,-194,-4651,23,-45,-18,17
469,2178,2,-172,-4660,23,-46,-18,17
470,2174,-3,-164,-4671,23,-45,-19,17
471,2179,-5,-178,-4665,23,-44,-19,17
472,2178,10,-176,-4647,23,-43,-20,16
473,2171,-9,-164,-4654,23,-45,-19,17
474,2178,1,-162,-4658,23,-46,-19,18
475,2178,4,-180,-4663,23,-43,-20,17
476,2177,-1,-156,-4661,23,-41,-18,19
477,2176,-4,-173,-4658,23,-44,-19,17
478,2179,-10,-173,-4663,23,-44,-20,17
479,2172,0,-169,-4659,23,-43,-19,16
480,2178,-2,-164,-4662,23,-45,-20,17
481,2183,-6,-171,-4655,23,-43,-22,16
482,2178,4,-168,-4659,23,-42,-19,20
483,2179,-3,-178,-4661,23,-44,-20,18
484,2173,-3,-164,-4662,23,-44,-21,18
485,2172,-5,-168,-4669,23,-44,-19,18
486,2166,-2,-177,-4655,23,-44,-21,18
487,2172,-1,-179,-4656,23,-44,-21,16
488,2167,10,-173,-4658,23,-44,-19,17
489,2170,5,-171,-4669,23,-43,-20,17
490,2179,0,-172,-4654,23,-43,-20,18
491,2178,-5,-168,-4659,23,-45,-19,18
492,2174,1,-182,-4662,23,-44,-22,17
493,2186,-1,-179,-4684,23,-43,-19,18
494,2183,-2,-172,-4655,23,-43,-20,16
495,2173,-1,-172,-4659,23,-42,-21,17
496,2179,-6,-169,-4655,23,-43,-20,18
497,2178,1,-182,-4663,23,-44,-20,18
498,2182,0,-167,-4659,23,-42,-18,17
499,2170,3,-188,-4662,23,-43,-20,16
500,2184,-2,-170,-4657,23,-45,-21,18
501,2175,7,-173,-4665,23,-42,-19,16
502,2179,-3,-173,-4666,23,-44,-19,17
503,2176,0,-167,-4682,23,-43,-19,19
504,2180,-7,-177,-4645,23,-43,-19,19
505,2171,-1,-168,-4657,23,-41,-20,17
506,2185,-7,-158,-4663,23,-43,-19,19
507,2184,6,-171,-4643,23,-44,-21,17
508,2187,3,-170,-4662,23,-43,-21,17
509,2175,1,-175,-4662,23,-44,-18,17
510,2179,-6,-157,-4657,23,-42,-18,17
511,2169,10,-166,-4666,23,-43,-18,16
512,2183,0,-171,-4667,23,-43,-19,15
513,2179,7,-162,-4664,23,-43,-21,18
514,2178,-1,-171,-4651,23,-43,-21,17
515,2177,0,-177,-4653,23,-44,-19,18
516,2182,-6,-161,-4676,23,-43,-20,18
517,2175,4,-166,-4660,23,-43,-22,16
518,2179,7,-169,-4646,23,-44,-19,16
519,2174,-1,-177,-4655,23,-43,-19,18
520,2177,5,-185,-4658,23,-43,-20,19
521,2180,3,-174,-4661,23,-43,-18,18
522,2177,1,-168,-4652,23,-42,-19,19
523,2172,4,-173,-4679,23,-44,-20,18
524,2175,0,-167,-4675,23,-45,-18,18
525,2180,1,-178,-4660,23,-44,-20,18
526,2173,7,-167,-4662,23,-43,-18,16
527,2172,-1,-169,-4661,23,-45,-20,18
528,2184,-12,-174,-4657,23,-45,-22,17
529,2177,-7,-158,-4655,23,-44,-19,18
530,2178,-4,-172,-4658,23,-45,-19,18
531,2167,0,-175,-4657,23,-42,-19,18
532,2177,1,-172,-4660,23,-44,-21,18
533,2193,-2,-173,-4656,23,-46,-18,17
534,2181,-3,-155,-4669,23,-44,-18,17
535,2177,4,-170,-4649,23,-44,-18,18
536,2174,-1,-176,-4663,23,-43,-19,17
537,2184,2,-185,-4667,23,-44,-19,18
538,2183,11,-165,-4641,23,-44,-18,16
539,2178,-3,-165,-4659,23,-45,-22,17
540,2176,-8,-177,-4667,23,-44,-19,19
541,2175,14,-169,-4652,23,-42,-20,19
542,2180,4,-188,-4662,23,-42,-19,16
543,2180,-3,-157,-4651,23,-45,-17,16
544,2178,1,-170,-4649,23,-41,-21,17
545,2176,7,-176,-4668,23,-44,-19,19
546,2182,-10,-182,-4652,23,-44,-20,17
547,2175,4,-181,-4662,23,-43,-19,17
548,2181,3,-177,-4663,23,-44,-19,16
549,2185,9,-184,-4663,23,-45,-22,17
550,2185,0,-172,-4652,23,-43,-21,17
551,2175,4,-163,-4674,23,-44,-20,18
552,2179,1,-175,-4670,23,-43,-18,18
553,2183,-6,-171,-4663,23,-43,-20,18
554,2178,-1,-174,-4653,23,-45,-20,18
555,2172,0,-180,-4649,23,-44,-20,17
556,2171,5,-169,-4663,23,-44,-21,18
557,2177,1,-176,-4661,23,-42,-19,16
558,2187,2,-181,-4664,23,-44,-20,16
559,2185,3,-178,-4662,23,-45,-18,16
560,2165,0,-168,-4668,23,-43,-20,18
561,2181,-11,-172,-4659,23,-43,-19,17
562,2183,-9,-171,-4662,23,-44,-19,19
563,2173,3,-153,-4663,23,-44,-19,17
564,2178,-6,-169,-4654,23,-44,-20,18
565,2172,5,-159,-4661,23,-43,-18,17
566,2175,-1,-176,-4655,23,-42,-19,17
567,2188,2,-185,-4652,23,-43,-20,16
568,2179,-4,-190,-4661,23,-42,-17,17
569,2177,-2,-165,-4667,23,-43,-20,17
570,2177,-9,-183,-4660,23,-43,-19,19
571,2186,-15,-168,-4649,23,-43,-20,19
572,2183,-9,-172,-4660,23,-44,-19,18
573,2189,0,-179,-4665,23,-44,-20,19
574,2180,0,-173,-4656,23,-46,-20,18
575,2162,-1,-179,-4654,23,-44,-17,18
576,2174,1,-154,-4654,23,-43,-19,18
577,2180,-6,-181,-4661,23,-45,-21,19
578,2173,-4,-171,-4656,23,-45,-18,17
579,2176,7,-183,-4669,23,-44,-18,17
580,2165,3,-181,-4668,23,-43,-19,15
581,2182,-4,-167,-4663,23,-45,-18,19
582,2170,2,-162,-4648,23,-43,-20,16
583,2191,-3,-163,-4659,23,-41,-19,19
584,2182,3,-146,-4667,23,-44,-20,17
585,2177,-4,-178,-4667,23,-43,-19,18
586,2180,-5,-176,-4676,23,-42,-19,17
587,2173,-5,-158,-4662,23,-44,-19,17
588,2181,-5,-166,-4667,23,-44,-20,17
589,2168,4,-174,-4657,23,-43,-20,18
590,2175,-1,-178,-4662,23,-45,-20,19
591,2180,0,-175,-4660,23,-43,-18,17
592,2178,1,-162,-4666,23,-42,-22,19
593,2178,4,-171,-4661,23,-41,-21,17
594,2175,-2,-173,-4663,23,-44,-20,19
595,2177,-1,-160,-4665,23,-43,-21,17
596,2181,-3,-188,-4670,23,-42,-21,17
597,2175,0,-173,-4660,23,-43,-18,16
598,2170,2,-169,-4649,23,-44,-21,18
599,2174,3,-173,-4672,23,-43,-20,18
600,2180,-4,-174,-4656,23,-45,-18,17
601,2177,-5,-165,-4650,23,-45,-18,16
602,2185,6,-180,-4660,23,-44,-19,17
603,2174,0,-170,-4667,23,-45,-19,17
604,2187,1,-180,-4655,23,-43,-19,16
605,2187,1,-183,-4675,23,-45,-21,19
606,2176,-9,-188,-4654,23,-43,-19,17
607,2176,-6,-160,-4661,23,-42,-21,16
608,2186,3,-183,-4660,23,-42,-22,18
609,2175,1,-170,-4683,23,-43,-20,17
610,2182,1,-153,-4666,23,-44,-19,17
611,2180,10,-162,-4655,23,-45,-21,18
612,2187,6,-168,-4668,23,-42,-18,16
613,2178,-2,-164,-4666,23,-45,-20,17
614,2178,14,-172,-4653,23,-44,-19,17
615,2179,-12,-165,-4665,23,-44,-19,17
616,2185,9,-181,-4664,23,-44,-21,17
617,2180,4,-169,-4651,23,-45,-20,18
618,2183,3,-172,-4662,23,-41,-20,17
619,2173,4,-175,-4657,23,-43,-18,17
620,2177,0,-174,-4649,23,-43,-19,17
621,2172,2,-189,-4657,23,-44,-17,16
622,2187,8,-173,-4656,23,-43,-20,19
623,2175,7,-169,-4669,23,-43,-18,18
624,2180,7,-175,-4668,23,-43,-21,17
625,2188,-9,-168,-4660,23,-43,-18,17
626,2175,0,-187,-4670,23,-44,-20,17
627,2190,2,-170,-4666,23,-44,-19,18
628,2177,4,-175,-4660,23,-43,-21,18
629,2181,4,-172,-4661,23,-43,-20,17
630,2181,10,-181,-4663,23,-43,-22,18
631,2178,14,-164,-4661,23,-44,-21,17
632,2189,-3,-167,-4670,23,-44,-21,17
633,2184,-8,-177,-4655,23,-46,-19,18
634,2177,5,-165,-4657,23,-43,-20,17
635,2179,-14,-168,-4659,23,-44,-21,18
636,2176,-3,-173,-4657,23,-44,-19,18
637,2181,-6,-174,-4657,23,-44,-19,17
638,2177,-2,-168,-4656,23,-44,-17,18
639,2178,-10,-166,-4660,23,-44,-18,18
640,2176,-2,-170,-4669,23,-43,-18,18
641,2179,-1,-181,-4662,23,-42,-19,19
642,2185,-7,-178,-4663,23,-43,-20,17
643,2176,-2,-162,-4649,23,-45,-20,18
644,2176,3,-184,-4670,23,-45,-19,17
645,2169,-5,-161,-4654,23,-42,-17,18
646,2189,0,-160,-4654,23,-43,-19,19
647,2174,2,-167,-4649,23,-42,-19,18
648,2177,-3,-168,-4672,23,-42,-19,17
649,2179,14,-168,-4667,23,-42,-18,17
650,2172,-5,-171,-4656,23,-42,-18,17
651,2178,-4,-173,-4659,23,-43,-18,18
652,2180,-8,-168,-4671,23,-43,-20,16
653,2179,-4,-153,-4667,23,-44,-19,16
654,2170,-10,-161,-4652,23,-45,-18,16
655,2172,-2,-165,-4649,23,-42,-18,17
656,2177,-7,-175,-4645,23,-43,-17,18
657,2186,0,-173,-4660,23,-44,-19,17
658,2177,0,-185,-4667,23,-43,-21,17
659,2169,4,-172,-4661,23,-44,-21,18
660,2173,-10,-159,-4652,23,-43,-19,17
661,2186,10,-172,-4668,23,-43,-19,18
662,2171,0,-154,-4660,23,-43,-18,18
663,2191,2,-162,-4661,23,-44,-17,17
664,2179,3,-160,-4661,23,-43,-20,17
665,2174,6,-182,-4659,23,-43,-18,17
666,2181,-2,-154,-4654,23,-44,-20,16
667,2181,-6,-168,-4654,23,-43,-19,19
668,2180,1,-165,-4662,23,-42,-19,18
669,2180,9,-175,-4662,23,-44,-20,18
670,2176,-2,-178,-4663,23,-43,-20,17
671,2182,3,-160,-4673,23,-44,-17,18
672,2184,-4,-159,-4660,23,-44,-17,19
673,2179,-1,-160,-4660,23,-45,-20,17
674,2170,12,-173,-4647,23,-42,-18,18
675,2171,-3,-167,-4660,23,-43,-18,18
676,2181,-7,-160,-4651,23,-44,-20,18
677,2182,1,-162,-4656,23,-44,-19,17
678,2176,-4,-166,-4662,23,-43,-20,17
679,2172,-1,-157,-4668,23,-43,-18,17
680,2189,4,-182,-4665,23,-43,-19,18
681,2183,-1,-176,-4663,23,-43,-20,18
682,2176,-1,-162,-4665,23,-45,-18,16
683,2176,-11,-178,-4663,23,-43,-21,20
684,2178,0,-171,-4661,23,-42,-20,17
685,2178,12,-167,-4656,23,-43,-20,15
686,2171,-1,-178,-4651,23,-43,-21,16
687,2180,5,-177,-4651,23,-42,-21,19
688,2170,-7,-158,-4662,23,-43,-18,17
689,2173,2,-158,-4650,23,-42,-17,18
690,2182,-12,-166,-4659,23,-43,-19,16
691,2176,0,-167,-4649,23,-44,-18,18
692,2173,-5,-171,-4656,23,-44,-18,18
693,2178,0,-162,-4671,23,-41,-20,17
694,2180,-3,-181,-4656,23,-44,-21,17
695,2180,0,-170,-4639,23,-45,-19,16
696,2169,-4,-170,-4654,23,-42,-20,18
697,2183,4,-183,-4658,23,-44,-18,18
698,2165,-11,-166,-4654,23,-44,-18,18
699,2180,-6,-166,-4645,23,-45,-20,17
700,2180,5,-172,-4674,23,-45,-18,17
701,2172,1,-167,-4660,23,-44,-19,16
702,2184,-4,-170,-4670,23,-44,-19,17
703,2175,5,-179,-4673,23,-44,-20,19
704,2179,0,-176,-4657,23,-43,-18,17
705,2180,5,-171,-4662,23,-44,-18,18
706,2177,-1,-175,-4657,23,-44,-19,17
707,2177,-5,-172,-4655,23,-42,-20,19
708,2175,-1,-162,-4652,23,-45,-19,17
709,2177,3,-184,-4660,23,-44,-19,16
710,2179,-4,-176,-4659,23,-42,-22,16
711,2179,4,-187,-4641,23,-42,-19,18
712,2177,1,-161,-4653,23,-43,-21,16
713,2171,-12,-173,-4666,23,-44,-18,17
714,2171,9,-177,-4655,23,-43,-20,18
715,2177,-6,-181,-4658,23,-43,-20,18
716,2180,-4,-176,-4668,23,-43,-20,17
717,2180,2,-188,-4647,23,-44,-18,15
718,2179,-4,-169,-4667,23,-44,-18,18
719,2169,-5,-173,-4649,23,-40,-21,17
720,2181,1,-178,-4661,23,-41,-20,18
721,2174,-8,-167,-4648,23,-45,-20,18
722,2179,10,-175,-4650,23,-44,-20,16
723,2177,-5,-192,-4659,23,-43,-19,19
724,2182,7,-178,-4653,23,-45,-20,17
725,2172,5,-159,-4661,23,-43,-19,19
726,2178,-7,-163,-4659,23,-43,-18,17
727,2168,0,-167,-4655,23,-44,-20,18
728,2182,-7,-170,-4648,23,-43,-19,19
729,2173,3,-175,-4649,23,-43,-21,17
730,2175,7,-160,-4664,23,-43,-19,18
731,2178,4,-180,-4660,23,-43,-20,18
732,2178,-2,-161,-4652,23,-43,-18,18
733,2173,-5,-176,-4673,23,-44,-19,17
734,2180,-2,-169,-4662,23,-44,-19,18
735,2184,5,-171,-4649,23,-45,-16,16
736,2178,2,-175,-4656,23,-44,-19,18
737,2173,1,-180,-4653,23,-45,-19,17
738,2173,-6,-164,-4666,23,-43,-20,17
739,2176,0,-184,-4655,23,-45,-19,19
740,2182,0,-167,-4655,23,-44,-21,18
741,2181,-5,-176,-4659,23,-41,-19,18
742,2176,2,-174,-4650,23,-45,-19,16
743,2186,2,-163,-4651,23,-45,-19,18
744,2174,-7,-165,-4656,23,-44,-20,17
745,2177,-7,-167,-4648,23,-45,-20,18
746,2179,-3,-165,-4652,23,-45,-22,16
747,2177,2,-170,-4656,23,-42,-20,18
748,2185,-2,-187,-4661,23,-43,-19,18
749,2177,-3,-160,-4664,23,-44,-20,16
750,2188,-17,-175,-4664,23,-43,-19,19
751,2172,6,-168,-4659,23,-43,-20,18
752,2187,-5,-180,-4670,23,-44,-20,16
753,2174,1,-169,-4653,23,-43,-20,16
754,2175,8,-162,-4668,23,-44,-20,17
755,2186,-4,-186,-4656,23,-44,-20,17
756,2176,-4,-173,-4662,23,-44,-19,18
757,2180,-11,-165,-4663,23,-44,-20,18
758,2180,1,-171,-4663,23,-43,-19,18
759,2178,2,-172,-4656,23,-45,-19,17
760,2175,2,-161,-4649,23,-43,-19,17
761,2176,0,-177,-4659,23,-43,-19,18
762,2187,5,-171,-4656,23,-43,-18,17
763,2181,1,-181,-4671,23,-44,-21,17
764,2188,-4,-172,-4656,23,-43,-21,17
765,2174,-1,-162,-4657,23,-43,-20,17
766,2180,4,-181,-4659,23,-45,-19,19
767,2174,-10,-161,-4664,23,-44,-18,17
768,2187,-8,-166,-4653,23,-45,-18,18
769,2168,-3,-178,-4664,23,-43,-19,16
770,2185,14,-170,-4646,23,-41,-21,16
771,2184,-7,-168,-4657,23,-42,-21,19
772,2187,-1,-184,-4649,23,-42,-20,19
773,2187,5,-163,-4651,23,-45,-18,16
774,2180,0,-184,-4655,23,-42,-20,16
775,2171,-9,-170,-4657,23,-44,-20,19
776,2182,5,-163,-4652,23,-43,-19,17
777,2177,7,-160,-4668,23,-45,-20,18
778,2183,2,-171,-4653,23,-44,-19,18
779,2171,-4,-168,-4658,23,-43,-18,16
780,2186,-8,-171,-4654,23,-42,-21,17
781,2180,0,-182,-4641,23,-43,-20,17
782,2165,7,-167,-4659,23,-44,-20,19
783,2182,6,-161,-4659,23,-43,-18,18
784,2190,-5,-186,-4658,23,-44,-21,16
785,2177,-3,-171,-4656,23,-44,-18,17
786,2186,-7,-164,-4643,23,-43,-19,17
787,2170,-5,-171,-4665,23,-44,-20,18
788,2182,-6,-170,-4659,23,-42,-21,18
789,2179,0,-170,-4662,23,-43,-19,17
790,2186,-3,-169,-4650,23,-41,-20,17
791,2178,-11,-176,-4650,23,-43,-21,18
792,2176,0,-173,-4667,23,-44,-19,18
793,2176,3,-181,-4656,23,-44,-21,18
794,2173,0,-165,-4658,23,-43,-20,18
795,2177,2,-170,-4651,23,-43,-19,19
796,2177,0,-173,-4653,23,-45,-21,17
797,2170,-4,-182,-4652,23,-44,-22,18
798,2175,-1,-176,-4655,23,-45,-19,17
799,2172,1,-172,-4655,23,-44,-19,16
800,2185,2,-181,-4657,23,-45,-20,16
801,2176,0,-170,-4661,23,-43,-19,17
802,2180,4,-176,-4653,23,-43,-19,18
803,2174,-15,-168,-4652,23,-45,-19,17
804,2165,-10,-175,-4665,23,-45,-19,17
805,2170,-4,-165,-4653,23,-43,-19,17
806,2184,6,-171,-4656,23,-44,-21,17
807,2191,-5,-179,-4670,23,-45,-20,17
808,2172,-7,-182,-4661,23,-43,-21,19
809,2176,-3,-161,-4655,23,-43,-21,18
810,2170,-5,-163,-4655,23,-44,-19,17
811,2177,-2,-174,-4652,23,-42,-22,17
812,2179,8,-176,-4632,23,-43,-20,19
813,2185,-3,-175,-4671,23,-43,-21,17
814,2183,11,-164,-4659,23,-44,-18,18
815,2188,-7,-172,-4657,23,-44,-16,17
816,2182,9,-180,-4663,23,-44,-19,17
817,2175,-3,-175,-4644,23,-43,-19,17
818,2168,-1,-166,-4655,23,-44,-19,16
819,2179,5,-176,-4653,23,-43,-20,16
820,2171,2,-170,-4653,23,-44,-20,18
821,2181,-12,-172,-4666,23,-42,-20,18
822,2179,-3,-166,-4648,23,-43,-19,18
823,2179,-12,-168,-4657,23,-42,-18,18
824,2181,-6,-176,-4663,23,-43,-20,17
825,2181,-6,-164,-4659,23,-44,-19,17
826,2175,2,-172,-4660,23,-42,-21,17
827,2164,-6,-168,-4659,23,-44,-18,18
828,2184,-5,-169,-4668,23,-44,-19,17
829,2178,3,-165,-4658,23,-44,-18,17
830,2179,-2,-165,-4656,23,-42,-20,18
831,2173,3,-181,-4665,23,-42,-18,16
832,2177,-11,-171,-4652,23,-44,-20,18
833,2168,11,-171,-4658,23,-44,-18,17
834,2178,-6,-186,-4652,23,-42,-19,19
835,2186,-3,-171,-4661,23,-43,-19,16
836,2193,2,-178,-4661,23,-43,-20,17
837,2186,5,-176,-4654,23,-43,-19,18
838,2167,-3,-160,-4653,23,-43,-20,18
839,2181,3,-153,-4651,23,-44,-19,17
840,2174,10,-169,-4643,23,-44,-18,17
841,2182,-2,-179,-4657,23,-42,-22,17
842,2181,-6,-149,-4663,23,-41,-18,19
843,2179,-1,-169,-4661,23,-45,-21,17
844,2167,-6,-173,-4652,23,-45,-19,17
845,2180,3,-172,-4655,23,-42,-20,18
846,2177,4,-152,-4657,23,-45,-19,17
847,2180,3,-171,-4683,23,-43,-19,18
848,2186,-4,-166,-4649,23,-43,-20,18
849,2167,3,-177,-4658,23,-42,-19,17
850,2172,1,-158,-4645,23,-43,-21,17
851,2180,2,-167,-4657,23,-44,-19,20
852,2184,11,-176,-4653,23,-45,-20,16
853,2180,-3,-163,-4647,23,-43,-19,18
854,2180,1,-171,-4659,23,-44,-16,18
855,2176,1,-160,-4658,23,-39,-20,17
856,2176,0,-171,-4657,23,-44,-18,16
857,2175,-5,-169,-4653,23,-44,-18,19
858,2175,-1,-175,-4650,23,-45,-21,18
859,2174,-6,-171,-4654,23,-45,-20,18
860,2182,-5,-164,-4663,23,-44,-19,15
861,2177,-5,-165,-4662,23,-44,-18,17
862,2171,-4,-171,-4669,23,-44,-19,17
863,2182,-3,-168,-4652,23,-45,-21,16
864,2182,-3,-168,-4663,23,-43,-19,16
865,2179,-6,-163,-4663,23,-44,-21,19
866,2183,3,-185,-4653,23,-43,-20,16
867,2171,-1,-172,-4645,23,-43,-19,16
868,2176,-14,-172,-4658,23,-44,-20,17
869,2181,3,-169,-4652,23,-42,-19,16
870,2182,2,-170,-4657,23,-43,-18,17
871,2182,0,-161,-4655,23,-45,-18,19
872,2173,-3,-172,-4658,23,-41,-18,18
873,2188,-5,-177,-4656,23,-45,-20,19
874,2176,-7,-176,-4656,23,-42,-20,17
875,2175,-9,-166,-4665,23,-43,-19,16
876,2175,3,-163,-4651,23,-43,-19,17
877,2174,8,-149,-4659,23,-42,-19,18
878,2176,-5,-176,-4656,23,-44,-18,15
879,2184,-2,-164,-4644,23,-42,-20,18
880,2175,-1,-170,-4656,23,-45,-20,17
881,2187,-2,-165,-4664,23,-43,-20,19
882,2177,-11,-182,-4658,23,-43,-20,17
883,2187,1,-182,-4645,23,-44,-20,19
884,2178,7,-172,-4669,23,-43,-22,17
885,2180,8,-167,-4664,23,-43,-20,18
886,2180,-7,-176,-4649,23,-44,-17,17
887,2176,-10,-170,-4649,23,-45,-18,17
888,2186,4,-187,-4647,23,-43,-21,16
889,2186,-4,-161,-4657,23,-44,-18,18
890,2176,5,-176,-4659,23,-44,-17,18
891,2175,-5,-181,-4659,23,-43,-18,18
892,2186,-1,-180,-4655,23,-43,-19,18
893,2171,-1,-163,-4655,23,-43,-19,19
894,2180,-1,-177,-4666,23,-43,-21,18
895,2179,-4,-176,-4646,23,-43,-21,19
896,2180,3,-171,-4659,23,-43,-20,16
897,2181,9,-178,-4657,23,-44,-19,16
898,2181,5,-166,-4657,23,-45,-19,18
899,2182,-6,-166,-4642,23,-43,-20,18
900,2173,2,-168,-4648,23,-45,-20,16
901,2176,-4,-162,-4651,23,-43,-18,18
902,2172,-3,-181,-4657,23,-42,-20,17
903,2187,-8,-150,-4655,23,-45,-19,15
904,2176,-4,-171,-4653,23,-43,-20,17
905,2177,-2,-172,-4661,23,-44,-19,17
906,2179,-3,-185,-4659,23,-44,-20,19
907,2187,0,-177,-4654,23,-43,-19,18
908,2184,-8,-163,-4651,23,-42,-20,16
909,2175,-5,-168,-4659,23,-43,-21,18
910,2176,-7,-163,-4660,23,-43,-19,17
911,2173,-9,-172,-4653,23,-45,-21,17
912,2185,3,-176,-4657,23,-43,-18,18
913,2177,-8,-169,-4659,23,-45,-22,18
914,2170,-5,-153,-4664,23,-42,-18,16
915,2178,0,-163,-4642,23,-43,-19,18
916,2181,-11,-184,-4659,23,-44,-22,18
917,2180,-5,-175,-4651,23,-42,-22,19
918,2179,-9,-179,-4654,23,-42,-18,18
919,2177,0,-183,-4660,23,-43,-19,17
920,2181,6,-170,-4657,23,-45,-20,19
921,2188,1,-181,-4651,23,-45,-19,19
922,2188,-10,-179,-4661,23,-43,-20,19
923,2174,-7,-169,-4654,23,-44,-21,18
924,2186,-14,-179,-4656,23,-43,-21,19
925,2185,-2,-183,-4650,23,-44,-20,16
926,2183,-1,-171,-4653,23,-43,-19,17
927,2178,-3,-167,-4643,23,-44,-21,17
928,2178,-6,-167,-4660,23,-42,-20,17
929,2174,2,-172,-4647,23,-44,-20,18
930,2194,-6,-167,-4667,23,-44,-21,18
931,2181,-6,-176,-4658,23,-44,-20,18
932,2171,3,-168,-4658,23,-44,-20,19
933,2185,-4,-158,-4653,23,-42,-21,16
934,2182,8,-182,-4660,23,-44,-20,16
935,2177,3,-166,-4666,23,-42,-17,17
936,2182,1,-168,-4675,23,-43,-19,15
937,2177,3,-168,-4653,23,-43,-21,17
938,2179,-9,-174,-4644,23,-43,-19,15
939,2184,-2,-159,-4653,23,-44,-19,17
940,2186,0,-180,-4655,23,-43,-19,17
941,2177,3,-161,-4651,23,-45,-20,19
942,2187,-7,-184,-4647,23,-44,-19,17
943,2170,-5,-159,-4652,23,-45,-22,18
944,2172,1,-167,-4664,23,-45,-19,18
945,2188,5,-171,-4657,23,-43,-19,18
946,2186,-1,-178,-4657,23,-44,-20,16
947,2179,-1,-163,-4651,23,-43,-19,17
948,2178,-2,-178,-4650,23,-45,-21,17
949,2177,2,-177,-4650,23,-43,-19,18
950,2177,8,-176,-4661,23,-44,-21,16
951,2177,-5,-159,-4648,23,-42,-18,19
952,2189,8,-172,-4665,23,-43,-21,17
953,2175,2,-157,-4672,23,-44,-18,18
954,2179,-4,-163,-4663,23,-42,-20,17
955,2172,-5,-173,-4660,23,-43,-19,17
956,2174,5,-169,-4644,23,-44,-21,17
957,2174,-10,-172,-4658,23,-44,-18,17
958,2190,0,-165,-4669,23,-44,-19,17
959,2184,9,-178,-4652,23,-43,-18,17
960,2179,9,-166,-4671,23,-45,-20,18
961,2187,1,-183,-4660,23,-43,-18,18
962,2179,-3,-174,-4660,23,-45,-20,17
963,2186,-5,-179,-4667,23,-44,-18,17
964,2178,7,-169,-4659,23,-44,-20,18
965,2172,10,-165,-4659,23,-42,-18,21
966,2183,-1,-170,-4671,23,-43,-19,18
967,2171,6,-173,-4661,23,-44,-18,18
968,2176,1,-169,-4651,23,-45,-21,19
969,2186,3,-162,-4661,23,-43,-19,15
970,2182,0,-162,-4659,23,-45,-18,18
971,2186,-7,-178,-4668,23,-44,-20,18
972,2179,0,-168,-4646,23,-43,-20,16
973,2179,-1,-170,-4663,23,-44,-19,18
974,2184,-12,-185,-4654,23,-42,-19,19
975,2172,5,-164,-4651,23,-44,-20,19
976,2175,1,-169,-4658,23,-42,-19,18
977,2182,8,-164,-4663,23,-42,-20,18
978,2178,3,-182,-4664,23,-43,-19,17
979,2185,4,-187,-4652,23,-44,-18,19
980,2170,5,-178,-4644,23,-43,-21,17
981,2190,-7,-167,-4660,23,-43,-21,17
982,2181,-7,-187,-4656,23,-43,-21,17
983,2178,10,-190,-4656,23,-43,-19,18
984,2190,2,-165,-4648,23,-43,-18,18
985,2183,-4,-173,-4649,23,-44,-21,17
986,2177,1,-155,-4656,23,-46,-18,17
987,2183,-4,-159,-4672,23,-43,-19,18
988,2176,-7,-175,-4656,23,-44,-20,18
989,2170,-2,-168,-4661,23,-43,-20,18
990,2181,-14,-160,-4643,23,-44,-18,18
991,2171,-1,-164,-4646,23,-44,-18,19
992,2175,-4,-167,-4655,23,-43,-21,18
993,2180,-13,-163,-4661,23,-45,-21,17
994,2174,8,-165,-4658,23,-43,-18,19
995,2188,9,-174,-4649,23,-44,-20,17
996,2178,-5,-181,-4654,23,-43,-20,17
997,2180,-3,-160,-4656,23,-41,-20,17
998,2184,-7,-171,-4647,23,-44,-21,18
