,acc_X,acc_Y,acc_Z,temp,tempC,gyr_X,gyr_Y,gyr_Z
0,-15142,8,726,-4727,23,-346,-151,140
1,-15142,16,726,-4727,23,-346,-152,139
2,-15146,10,718,-4726,23,-347,-150,137
3,-15142,4,732,-4727,23,-348,-150,138
4,-15140,-6,736,-4724,23,-349,-150,138
5,-15152,-18,738,-4724,23,-349,-150,139
6,-15160,-16,738,-4724,23,-350,-150,139
7,-15160,-8,744,-4723,23,-350,-149,141
8,-15156,-12,746,-4722,23,-349,-149,139
9,-15168,-14,742,-4724,23,-348,-148,139
10,-15172,-12,744,-4725,23,-348,-148,138
11,-15168,-10,744,-4725,23,-348,-148,142
12,-15156,-6,738,-4724,23,-345,-148,140
13,-15158,0,728,-4725,23,-345,-150,139
14,-15166,-6,730,-4726,23,-342,-149,139
15,-15158,-6,736,-4727,23,-343,-150,141
16,-15152,-6,732,-4725,23,-342,-150,140
17,-15148,-12,732,-4723,23,-343,-152,141
18,-15148,-18,720,-4723,23,-345,-155,138
19,-15154,-14,724,-4723,23,-346,-155,138
20,-15152,-16,710,-4721,23,-348,-153,138
21,-15158,-14,718,-4718,23,-348,-155,138
22,-15154,-18,738,-4716,23,-348,-157,139
23,-15156,-12,748,-4717,23,-347,-156,138
24,-15154,-8,750,-4716,23,-346,-155,137
25,-15146,-6,742,-4719,23,-347,-160,138
26,-15154,-12,726,-4718,23,-349,-160,139
27,-15152,-14,734,-4720,23,-349,-158,142
28,-15152,-6,746,-4720,23,-348,-156,142
29,-15154,0,758,-4718,23,-346,-156,141
30,-15154,0,774,-4717,23,-346,-153,140
31,-15154,0,780,-4718,23,-346,-151,140
32,-15158,-4,776,-4716,23,-348,-152,140
33,-15154,-4,782,-4715,23,-346,-154,138
34,-15152,-6,766,-4716,23,-346,-151,139
35,-15146,6,756,-4715,23,-344,-150,138
36,-15148,-2,754,-4717,23,-343,-152,139
37,-15148,-14,744,-4716,23,-345,-153,140
38,-15146,-10,740,-4715,23,-345,-153,141
39,-15140,-10,746,-4714,23,-344,-154,141
40,-15144,-14,762,-4714,23,-344,-152,140
41,-15136,-18,760,-4715,23,-344,-152,138
42,-15140,-16,766,-4715,23,-347,-155,140
43,-15140,0,764,-4715,23,-349,-153,142
44,-15146,10,760,-4715,23,-349,-153,141
45,-15152,4,758,-4715,23,-347,-154,141
46,-15140,4,740,-4716,23,-347,-155,142
47,-15136,8,736,-4717,23,-345,-154,140
48,-15134,0,748,-4714,23,-344,-155,139
49,-15138,-10,764,-4714,23,-345,-153,138
50,-15144,-2,768,-4712,23,-345,-153,138
51,-15152,-14,762,-4710,23,-346,-151,138
52,-15148,-14,746,-4711,23,-345,-151,138
53,-15152,-12,744,-4711,23,-346,-149,137
54,-15160,-10,726,-4710,23,-346,-150,136
55,-15152,-16,738,-4710,23,-348,-149,138
56,-15158,-12,734,-4711,23,-347,-147,140
57,-15150,-8,716,-4710,23,-348,-149,138
58,-15146,0,708,-4710,23,-348,-149,139
59,-15148,10,722,-4710,23,-350,-150,139
60,-15154,6,724,-4710,23,-350,-152,140
61,-15156,4,732,-4709,23,-349,-153,142
62,-15158,-6,740,-4709,23,-350,-153,141
63,-15160,-4,742,-4709,23,-348,-153,139
64,-15164,-10,744,-4710,23,-348,-152,141
65,-15154,-6,746,-4709,23,-348,-153,141
66,-15156,-8,744,-4709,23,-350,-154,142
67,-15158,-14,756,-4706,23,-349,-154,143
68,-15158,-4,756,-4707,23,-348,-153,143
69,-15152,0,760,-4706,23,-350,-154,142
70,-15156,2,762,-4704,23,-349,-153,143
71,-15158,2,742,-4703,23,-348,-153,142
72,-15152,12,722,-4705,23,-348,-155,139
73,-15162,16,734,-4705,23,-350,-152,140
74,-15166,18,738,-4705,23,-349,-150,141
75,-15160,12,756,-4704,23,-349,-152,140
76,-15160,6,760,-4703,23,-348,-152,141
77,-15162,4,762,-4701,23,-348,-151,140
78,-15160,-10,746,-4701,23,-348,-153,143
79,-15156,-12,744,-4700,23,-349,-152,142
80,-15162,-12,748,-4699,23,-350,-154,144
81,-15146,-14,750,-4699,23,-351,-153,143
82,-15144,-2,758,-4701,23,-349,-155,143
83,-15148,-8,752,-4700,23,-347,-153,141
84,-15158,-16,750,-4700,23,-345,-154,142
85,-15164,-6,758,-4699,23,-344,-152,142
86,-15162,-6,744,-4699,23,-344,-153,142
87,-15150,-10,734,-4698,23,-343,-154,143
88,-15152,-10,754,-4699,23,-346,-153,144
89,-15156,-4,750,-4698,23,-345,-150,142
90,-15156,-4,742,-4697,23,-346,-150,140
91,-15164,0,744,-4699,23,-345,-151,140
92,-15162,-6,734,-4701,23,-346,-152,140
93,-15160,-8,750,-4701,23,-346,-153,137
94,-15154,-8,754,-4701,23,-348,-154,137
95,-15150,-10,754,-4700,23,-349,-154,137
96,-15152,-12,742,-4701,23,-348,-152,138
97,-15152,-16,736,-4702,23,-348,-153,138
98,-15154,-18,720,-4701,23,-349,-151,138
99,-15146,-16,724,-4701,23,-348,-151,138
100,-15146,-14,728,-4701,23,-347,-153,138
101,-15150,-18,736,-4701,23,-346,-157,138
102,-15138,-30,740,-4700,23,-345,-158,138
103,-15138,-28,758,-4699,23,-345,-159,140
104,-15138,-26,758,-4699,23,-345,-157,140
105,-15146,-14,752,-4699,23,-347,-155,138
106,-15162,-12,758,-4698,23,-347,-155,139
107,-15164,-12,750,-4699,23,-347,-156,138
108,-15162,-16,756,-4700,23,-346,-152,138
109,-15156,-24,746,-4699,23,-345,-149,140
110,-15156,-18,738,-4697,23,-346,-149,141
111,-15154,-22,754,-4699,23,-347,-149,141
112,-15154,-18,762,-4697,23,-347,-149,140
113,-15156,-10,744,-4696,23,-346,-151,141
114,-15156,-16,744,-4696,23,-347,-150,140
115,-15164,-18,738,-4696,23,-347,-152,141
116,-15164,-18,744,-4696,23,-345,-152,140
117,-15164,10,736,-4696,23,-345,-153,139
118,-15162,-2,744,-4698,23,-346,-153,139
119,-15164,6,762,-4696,23,-344,-156,139
120,-15164,8,772,-4696,23,-347,-153,139
121,-15158,14,754,-4696,23,-347,-153,138
122,-15158,18,746,-4693,23,-348,-153,139
123,-15150,16,748,-4693,23,-349,-155,137
124,-15148,2,750,-4693,23,-348,-152,138
125,-15144,-4,740,-4690,23,-346,-153,141
126,-15140,6,726,-4691,23,-344,-149,141
127,-15142,6,722,-4690,23,-344,-148,141
128,-15144,8,730,-4690,23,-346,-149,139
129,-15148,0,730,-4691,23,-347,-149,139
130,-15154,-16,728,-4692,23,-349,-149,138
131,-15148,-20,726,-4690,23,-346,-149,137
132,-15154,-24,724,-4690,23,-348,-148,138
133,-15156,-28,728,-4690,23,-348,-151,137
134,-15166,-24,734,-4690,23,-346,-154,140
135,-15160,-12,746,-4689,23,-349,-152,140
136,-15154,-14,738,-4691,23,-349,-147,142
137,-15158,-6,742,-4690,23,-348,-149,138
138,-15158,-18,742,-4690,23,-348,-149,138
139,-15156,-14,754,-4690,23,-349,-151,139
140,-15152,-8,752,-4690,23,-350,-152,139
141,-15140,0,750,-4689,23,-349,-153,141
142,-15136,0,756,-4688,23,-348,-153,140
143,-15136,0,768,-4688,23,-349,-153,140
144,-15136,-10,774,-4689,23,-350,-155,141
145,-15138,-14,766,-4688,23,-349,-153,141
146,-15138,-24,784,-4689,23,-347,-152,142
147,-15144,-20,798,-4689,23,-346,-153,141
148,-15142,-12,786,-4689,23,-347,-151,139
149,-15138,-4,772,-4688,23,-349,-150,137
150,-15150,0,772,-4688,23,-347,-150,140
151,-15154,-10,770,-4688,23,-347,-150,139
152,-15148,-12,768,-4689,23,-347,-150,141
153,-15142,-12,756,-4687,23,-344,-149,141
154,-15148,-14,748,-4687,23,-348,-149,141
155,-15150,-6,746,-4688,23,-350,-151,140
156,-15158,0,770,-4688,23,-349,-150,140
157,-15156,-4,770,-4688,23,-349,-150,140
158,-15158,-4,782,-4690,23,-349,-152,141
159,-15162,-8,778,-4689,23,-347,-151,140
160,-15160,-6,754,-4690,23,-349,-152,140
161,-15168,-12,760,-4689,23,-347,-153,141
162,-15158,-4,764,-4689,23,-346,-150,139
163,-15152,-6,768,-4689,23,-346,-151,140
164,-15154,-6,778,-4689,23,-346,-152,137
165,-15156,-4,776,-4687,23,-347,-151,138
166,-15150,-4,766,-4688,23,-347,-153,139
167,-15146,2,766,-4688,23,-346,-153,139
168,-15160,0,768,-4688,23,-347,-152,141
169,-15154,-2,784,-4685,23,-349,-151,139
170,-15154,-2,784,-4686,23,-348,-151,136
171,-15144,0,786,-4688,23,-347,-152,137
172,-15144,-12,774,-4686,23,-347,-150,135
173,-15148,-6,776,-4685,23,-348,-153,137
174,-15152,-6,774,-4686,23,-344,-154,139
175,-15152,-10,772,-4686,23,-345,-152,138
176,-15160,-16,756,-4685,23,-347,-155,140
177,-15160,-6,752,-4685,23,-347,-153,141
178,-15158,-12,740,-4685,23,-347,-152,142
179,-15168,-12,738,-4683,23,-346,-155,143
180,-15158,-16,744,-4684,23,-347,-153,142
181,-15152,-16,744,-4684,23,-350,-155,142
182,-15152,-8,746,-4684,23,-350,-156,141
183,-15146,-2,752,-4683,23,-349,-155,141
184,-15142,0,740,-4684,23,-349,-155,138
185,-15146,-2,738,-4683,23,-347,-156,137
186,-15152,-2,756,-4682,23,-343,-156,137
187,-15162,-12,754,-4682,23,-341,-154,138
188,-15156,-14,736,-4681,23,-344,-154,138
189,-15156,-6,740,-4681,23,-344,-153,141
190,-15154,-4,748,-4680,23,-345,-150,141
191,-15146,-8,736,-4681,23,-347,-150,139
192,-15140,-14,732,-4681,23,-345,-150,140
193,-15154,2,738,-4681,23,-346,-150,141
194,-15150,10,746,-4682,23,-346,-150,142
195,-15152,10,742,-4683,23,-345,-151,141
196,-15146,4,746,-4683,23,-345,-153,141
197,-15138,-4,750,-4683,23,-344,-152,140
198,-15136,-2,762,-4680,23,-344,-150,140
199,-15142,6,760,-4681,23,-344,-150,140
200,-15150,2,762,-4682,23,-346,-153,142
201,-15146,-4,756,-4683,23,-345,-152,143
202,-15146,-8,756,-4682,23,-348,-152,143
203,-15150,-8,756,-4681,23,-346,-154,141
204,-15146,-10,760,-4681,23,-348,-157,141
205,-15148,-18,766,-4682,23,-348,-155,140
206,-15148,-20,766,-4682,23,-349,-155,141
207,-15158,-22,774,-4683,23,-349,-155,140
208,-15162,-24,776,-4684,23,-348,-154,142
209,-15174,-18,758,-4681,23,-348,-153,141
210,-15178,-24,746,-4680,23,-346,-152,141
211,-15168,-14,734,-4681,23,-349,-150,142
212,-15164,-8,742,-4680,23,-348,-152,142
213,-15162,-14,746,-4680,23,-349,-150,140
214,-15164,-10,742,-4681,23,-350,-148,141
215,-15164,-8,738,-4682,23,-351,-149,142
216,-15154,-12,746,-4682,23,-350,-153,142
217,-15146,-18,764,-4682,23,-350,-155,141
218,-15138,-22,764,-4680,23,-351,-154,143
219,-15138,-22,758,-4678,23,-349,-156,142
220,-15128,-18,750,-4677,23,-347,-155,141
221,-15136,-10,758,-4678,23,-348,-153,141
222,-15144,-20,766,-4678,23,-348,-155,140
223,-15144,-16,766,-4677,23,-349,-154,140
224,-15148,-20,768,-4676,23,-346,-154,139
225,-15156,-18,756,-4674,23,-348,-156,140
226,-15164,-14,764,-4674,23,-346,-157,139
227,-15166,-6,762,-4673,23,-346,-158,139
228,-15170,-14,760,-4674,23,-346,-155,141
229,-15154,-14,756,-4675,23,-346,-156,141
230,-15156,0,766,-4673,23,-345,-152,140
231,-15150,-2,738,-4675,23,-345,-154,139
232,-15142,-4,744,-4675,23,-345,-154,141
233,-15154,4,740,-4674,23,-346,-156,141
234,-15164,-2,756,-4674,23,-347,-155,143
235,-15156,-4,752,-4675,23,-348,-154,144
236,-15156,-4,754,-4675,23,-349,-154,145
237,-15158,-4,754,-4675,23,-350,-154,143
238,-15160,-14,746,-4675,23,-349,-157,142
239,-15170,-14,744,-4674,23,-347,-156,142
240,-15158,-4,744,-4673,23,-347,-153,142
241,-15160,2,742,-4675,23,-348,-151,140
242,-15156,-6,734,-4677,23,-349,-151,140
243,-15150,-12,734,-4679,23,-349,-151,139
244,-15156,-12,748,-4679,23,-350,-151,139
245,-15148,-24,750,-4678,23,-349,-151,139
246,-15160,-26,750,-4676,23,-351,-152,138
247,-15152,-20,758,-4678,23,-348,-153,135
248,-15152,-14,758,-4677,23,-348,-153,137
249,-15154,-16,750,-4675,23,-348,-153,137
250,-15158,-12,748,-4675,23,-348,-153,137
251,-15166,-4,750,-4677,23,-347,-153,139
252,-15158,-8,746,-4678,23,-347,-152,138
253,-15152,-12,758,-4678,23,-349,-152,139
254,-15156,-12,760,-4678,23,-348,-151,140
255,-15148,-2,768,-4676,23,-347,-153,142
256,-15138,-10,762,-4676,23,-348,-152,142
257,-15152,-10,770,-4677,23,-348,-153,143
258,-15160,-10,766,-4676,23,-347,-151,143
259,-15156,-12,778,-4677,23,-348,-153,143
260,-15154,-8,778,-4677,23,-349,-155,143
261,-15160,-6,774,-4676,23,-348,-153,143
262,-15160,-2,766,-4676,23,-348,-153,144
263,-15158,6,762,-4677,23,-350,-153,141
264,-15160,12,756,-4675,23,-348,-154,141
265,-15162,16,734,-4674,23,-348,-154,144
266,-15162,6,740,-4675,23,-347,-154,142
267,-15166,2,734,-4675,23,-348,-152,142
268,-15164,0,750,-4673,23,-345,-154,142
269,-15162,0,762,-4674,23,-346,-154,142
270,-15162,-8,760,-4676,23,-346,-156,143
271,-15150,-18,768,-4675,23,-347,-154,144
272,-15156,-16,770,-4675,23,-347,-152,142
273,-15146,-10,772,-4674,23,-349,-154,142
274,-15148,-10,766,-4673,23,-347,-153,142
275,-15156,-10,762,-4673,23,-346,-154,141
276,-15156,-8,750,-4674,23,-346,-150,141
277,-15148,-4,764,-4674,23,-347,-151,140
278,-15148,-2,756,-4673,23,-349,-151,141
279,-15142,0,762,-4674,23,-350,-152,141
280,-15144,8,766,-4674,23,-348,-150,139
281,-15158,8,776,-4673,23,-350,-150,139
282,-15168,6,766,-4673,23,-352,-149,140
283,-15164,-6,778,-4673,23,-349,-149,141
284,-15158,-6,768,-4672,23,-350,-150,141
285,-15162,-4,754,-4673,23,-350,-150,141
286,-15158,10,742,-4675,23,-349,-150,143
287,-15162,10,756,-4675,23,-348,-148,142
288,-15158,4,766,-4675,23,-350,-151,141
289,-15156,8,768,-4674,23,-347,-153,141
290,-15160,10,758,-4672,23,-350,-153,141
291,-15158,8,754,-4671,23,-351,-154,140
292,-15162,2,762,-4670,23,-349,-152,138
293,-15160,-2,770,-4669,23,-347,-150,138
294,-15142,4,774,-4669,23,-349,-151,136
295,-15140,-2,778,-4671,23,-348,-151,137
296,-15134,-10,770,-4670,23,-349,-152,138
297,-15136,0,766,-4671,23,-349,-152,139
298,-15144,-2,752,-4670,23,-351,-150,141
299,-15152,8,756,-4668,23,-351,-151,141
300,-15148,-4,746,-4670,23,-352,-150,140
301,-15136,-6,758,-4671,23,-350,-149,141
302,-15140,-2,752,-4670,23,-346,-149,138
303,-15142,-4,748,-4671,23,-346,-151,137
304,-15136,-14,748,-4672,23,-347,-150,136
305,-15134,-12,756,-4670,23,-348,-151,137
306,-15134,-14,752,-4671,23,-348,-150,139
307,-15126,-16,746,-4671,23,-349,-151,140
308,-15126,-8,746,-4670,23,-349,-154,140
309,-15132,-16,736,-4670,23,-348,-154,142
310,-15136,-12,736,-4669,23,-346,-155,143
311,-15144,-26,732,-4669,23,-347,-153,144
312,-15146,-24,728,-4669,23,-348,-151,141
313,-15142,-12,720,-4668,23,-347,-155,139
314,-15152,-14,740,-4669,23,-348,-156,139
315,-15154,-24,752,-4668,23,-349,-154,138
316,-15146,-18,762,-4670,23,-348,-151,139
317,-15154,-26,762,-4670,23,-349,-153,139
318,-15152,-18,746,-4668,23,-350,-152,142
319,-15160,-14,746,-4668,23,-348,-152,144
320,-15164,-10,748,-4668,23,-346,-151,146
321,-15166,-22,760,-4669,23,-347,-151,143
322,-15160,-12,762,-4668,23,-347,-150,143
323,-15164,-2,750,-4667,23,-347,-149,139
324,-15154,2,754,-4668,23,-350,-152,143
325,-15146,8,758,-4668,23,-348,-150,142
326,-15160,2,770,-4667,23,-348,-151,143
327,-15150,-2,752,-4669,23,-346,-150,144
328,-15160,-12,752,-4666,23,-347,-149,141
329,-15160,-12,754,-4666,23,-347,-150,141
330,-15156,-16,748,-4667,23,-346,-151,140
331,-15164,-12,760,-4669,23,-346,-152,139
332,-15152,-12,762,-4668,23,-346,-152,139
333,-15162,-4,766,-4669,23,-347,-150,138
334,-15158,-6,780,-4668,23,-348,-150,139
335,-15148,2,774,-4668,23,-349,-149,141
336,-15162,0,780,-4666,23,-349,-147,142
337,-15164,-4,786,-4666,23,-349,-146,141
338,-15156,6,776,-4666,23,-349,-146,140
339,-15156,0,772,-4664,23,-349,-147,141
340,-15148,-2,786,-4663,23,-351,-146,141
341,-15154,-8,784,-4661,23,-353,-147,139
342,-15164,-8,770,-4664,23,-352,-151,137
343,-15158,-6,770,-4664,23,-352,-151,138
344,-15160,-2,776,-4664,23,-351,-150,139
345,-15152,-2,786,-4665,23,-351,-150,143
346,-15154,-12,756,-4666,23,-349,-149,140
347,-15166,-6,760,-4666,23,-351,-148,141
348,-15156,-2,750,-4665,23,-351,-149,141
349,-15144,0,752,-4666,23,-351,-148,140
350,-15148,-10,744,-4666,23,-349,-148,142
351,-15150,-14,734,-4665,23,-349,-148,143
352,-15146,-20,750,-4664,23,-349,-150,142
353,-15140,-20,742,-4664,23,-349,-151,142
354,-15150,-18,754,-4664,23,-349,-150,141
355,-15150,-10,746,-4665,23,-348,-152,141
356,-15146,-8,748,-4664,23,-348,-155,141
357,-15148,-4,758,-4662,23,-348,-153,141
358,-15144,2,758,-4661,23,-349,-155,141
359,-15146,-2,752,-4662,23,-349,-155,142
360,-15140,-4,744,-4663,23,-351,-152,141
361,-15134,4,748,-4662,23,-349,-154,140
362,-15132,-2,746,-4661,23,-347,-154,141
363,-15130,-6,736,-4661,23,-347,-152,139
364,-15134,2,752,-4661,23,-347,-153,140
365,-15136,2,748,-4663,23,-348,-150,139
366,-15140,-4,746,-4662,23,-347,-152,138
367,-15148,-2,742,-4662,23,-345,-151,138
368,-15158,-4,756,-4662,23,-345,-151,139
369,-15158,-2,750,-4661,23,-345,-150,139
370,-15160,0,748,-4662,23,-347,-149,139
371,-15158,-10,734,-4662,23,-346,-147,140
372,-15166,-6,728,-4663,23,-346,-149,140
373,-15164,-6,740,-4662,23,-345,-151,142
374,-15160,2,752,-4662,23,-347,-151,142
375,-15158,-8,746,-4662,23,-350,-152,142
376,-15154,-20,750,-4661,23,-350,-150,142
377,-15162,-18,754,-4662,23,-352,-149,141
378,-15170,-18,776,-4662,23,-352,-148,139
379,-15166,-10,776,-4662,23,-349,-148,142
380,-15156,-16,756,-4662,23,-348,-148,142
381,-15148,-10,746,-4663,23,-349,-151,142
382,-15142,-14,750,-4664,23,-348,-152,141
383,-15142,-12,750,-4665,23,-351,-153,140
384,-15142,-6,756,-4663,23,-348,-156,139
385,-15138,-10,744,-4665,23,-348,-153,137
386,-15144,-14,742,-4666,23,-348,-155,138
387,-15148,-6,744,-4665,23,-348,-154,142
388,-15146,-2,754,-4664,23,-351,-151,142
389,-15154,-2,766,-4663,23,-350,-150,141
390,-15150,-4,752,-4664,23,-350,-151,141
391,-15152,-6,768,-4663,23,-349,-150,143
392,-15160,4,770,-4661,23,-347,-150,142
393,-15174,2,774,-4660,23,-348,-152,143
394,-15168,2,772,-4660,23,-347,-151,142
395,-15172,4,772,-4661,23,-348,-152,140
396,-15174,8,784,-4660,23,-346,-149,140
397,-15164,-4,776,-4660,23,-347,-147,141
398,-15174,-2,776,-4660,23,-345,-150,139
399,-15174,-2,768,-4658,23,-345,-151,139
400,-15176,-4,760,-4659,23,-347,-149,140
401,-15172,-6,752,-4660,23,-350,-151,141
402,-15166,-8,750,-4657,23,-349,-150,138
403,-15160,-10,752,-4656,23,-351,-150,138
404,-15170,-8,754,-4657,23,-353,-149,139
405,-15160,-2,748,-4659,23,-352,-150,141
406,-15154,0,756,-4658,23,-351,-148,140
407,-15156,-4,750,-4658,23,-351,-148,141
408,-15158,-2,756,-4658,23,-351,-148,141
409,-15150,-2,754,-4659,23,-352,-152,142
410,-15156,-16,774,-4659,23,-348,-151,141
411,-15144,-16,758,-4659,23,-347,-151,142
412,-15152,-12,752,-4659,23,-348,-150,139
413,-15154,-8,746,-4660,23,-347,-150,140
414,-15144,-18,748,-4659,23,-347,-151,141
415,-15152,-24,746,-4658,23,-347,-152,139
416,-15154,-18,750,-4659,23,-349,-152,139
417,-15156,-16,744,-4659,23,-347,-151,140
418,-15162,-14,754,-4658,23,-347,-152,138
419,-15154,-12,754,-4657,23,-349,-151,139
420,-15154,-14,752,-4656,23,-351,-152,139
421,-15144,-14,760,-4656,23,-350,-151,141
422,-15146,-16,764,-4655,23,-352,-150,141
423,-15140,-8,758,-4656,23,-351,-148,141
424,-15146,-2,762,-4656,23,-352,-151,144
425,-15162,-8,758,-4657,23,-351,-152,144
426,-15162,-14,760,-4657,23,-349,-151,141
427,-15166,-12,758,-4656,23,-348,-152,140
428,-15154,-8,752,-4655,23,-347,-152,139
429,-15152,0,768,-4655,23,-347,-151,141
430,-15154,-6,760,-4655,23,-346,-150,142
431,-15144,-12,760,-4654,23,-346,-149,141
432,-15150,-16,760,-4656,23,-346,-148,141
433,-15154,-20,750,-4655,23,-347,-148,139
434,-15150,-20,734,-4656,23,-349,-149,139
435,-15150,-22,728,-4656,23,-351,-151,140
436,-15150,-20,734,-4657,23,-352,-152,140
437,-15146,-10,738,-4655,23,-352,-155,140
438,-15154,-10,738,-4656,23,-352,-153,142
439,-15158,0,746,-4655,23,-353,-153,141
440,-15158,-2,746,-4655,23,-352,-154,139
441,-15152,0,766,-4655,23,-349,-152,140
442,-15144,-2,774,-4656,23,-348,-153,142
443,-15142,-4,768,-4655,23,-349,-150,144
444,-15156,-12,756,-4653,23,-349,-153,142
445,-15160,-10,766,-4654,23,-349,-153,141
446,-15158,-10,756,-4654,23,-349,-151,142
447,-15148,-10,762,-4654,23,-346,-152,141
448,-15152,-14,760,-4654,23,-346,-152,142
449,-15152,-10,762,-4654,23,-348,-153,141
450,-15158,-16,764,-4654,23,-347,-152,142
451,-15160,-24,756,-4652,23,-350,-152,143
452,-15162,-20,768,-4652,23,-348,-152,143
453,-15162,-12,772,-4654,23,-348,-153,141
454,-15174,-6,768,-4654,23,-349,-154,142
455,-15168,-8,784,-4655,23,-349,-150,140
456,-15168,-8,784,-4654,23,-346,-147,138
457,-15162,-6,784,-4653,23,-350,-147,139
458,-15160,-6,778,-4653,23,-349,-150,138
459,-15154,-6,772,-4652,23,-349,-152,139
460,-15152,-10,758,-4652,23,-350,-152,140
461,-15146,-22,760,-4652,23,-350,-152,140
462,-15150,-16,772,-4652,23,-346,-151,140
463,-15156,-6,766,-4651,23,-345,-153,141
464,-15150,-4,754,-4652,23,-345,-154,142
465,-15156,0,746,-4655,23,-345,-153,142
466,-15164,4,740,-4655,23,-348,-154,142
467,-15158,-4,750,-4653,23,-350,-154,142
468,-15156,-6,758,-4651,23,-350,-154,143
469,-15168,-6,760,-4652,23,-352,-154,143
470,-15162,-6,750,-4655,23,-350,-152,141
471,-15160,-6,758,-4655,23,-350,-150,142
472,-15150,0,748,-4653,23,-349,-148,141
473,-15136,2,752,-4653,23,-348,-151,140
474,-15140,2,744,-4655,23,-347,-152,141
475,-15160,2,760,-4656,23,-348,-155,140
476,-15160,4,770,-4655,23,-349,-153,140
477,-15166,2,766,-4654,23,-347,-152,140
478,-15164,2,750,-4654,23,-349,-148,140
479,-15166,2,756,-4655,23,-347,-150,138
480,-15164,10,762,-4654,23,-346,-152,140
481,-15156,4,776,-4653,23,-345,-151,141
482,-15160,-4,768,-4653,23,-345,-151,141
483,-15168,-2,780,-4654,23,-346,-152,140
484,-15174,-2,774,-4653,23,-346,-154,140
485,-15174,8,776,-4652,23,-347,-154,142
486,-15164,6,772,-4652,23,-349,-154,142
487,-15172,-4,778,-4650,23,-348,-153,142
488,-15158,-2,766,-4651,23,-345,-152,142
489,-15156,8,762,-4652,23,-347,-154,141
490,-15162,8,760,-4652,23,-348,-155,141
491,-15158,6,772,-4654,23,-349,-153,141
492,-15166,4,760,-4655,23,-350,-153,140
493,-15170,0,758,-4654,23,-348,-153,140
494,-15174,2,764,-4653,23,-347,-152,140
495,-15182,-4,764,-4651,23,-349,-150,140
496,-15172,6,760,-4651,23,-349,-151,142
497,-15168,8,766,-4652,23,-349,-152,141
498,-15164,4,770,-4651,23,-348,-152,141
499,-15158,2,766,-4650,23,-349,-152,138
500,-15170,2,768,-4650,23,-349,-152,140
501,-15164,0,788,-4650,23,-348,-151,142
502,-15154,2,772,-4650,23,-349,-151,142
503,-15156,2,782,-4650,23,-346,-150,139
504,-15156,-6,778,-4651,23,-344,-150,140
505,-15156,-20,772,-4650,23,-346,-150,138
506,-15148,-16,770,-4650,23,-346,-150,136
507,-15146,-18,778,-4649,23,-346,-150,139
508,-15150,-20,770,-4649,23,-345,-147,139
509,-15156,-22,766,-4650,23,-346,-148,140
510,-15156,-28,776,-4650,23,-347,-150,141
511,-15152,-16,776,-4649,23,-346,-150,139
512,-15152,-10,766,-4650,23,-347,-152,139
513,-15162,-6,764,-4651,23,-346,-151,139
514,-15160,0,766,-4649,23,-350,-149,139
515,-15160,2,764,-4648,23,-349,-151,140
516,-15160,2,770,-4649,23,-348,-154,140
517,-15160,10,778,-4650,23,-346,-155,142
518,-15158,12,778,-4650,23,-344,-155,141
519,-15166,10,766,-4652,23,-343,-156,140
520,-15152,6,760,-4651,23,-343,-156,141
521,-15154,12,756,-4652,23,-343,-156,141
522,-15158,10,760,-4654,23,-344,-157,140
523,-15146,6,758,-4653,23,-345,-153,139
524,-15152,4,760,-4652,23,-346,-153,138
525,-15154,0,756,-4650,23,-348,-151,140
526,-15154,2,766,-4649,23,-349,-148,140
527,-15160,4,748,-4650,23,-353,-149,140
528,-15162,2,740,-4651,23,-353,-148,138
529,-15166,2,726,-4648,23,-352,-149,137
530,-15168,-6,734,-4648,23,-351,-147,138
531,-15160,-12,740,-4647,23,-350,-149,138
532,-15162,-14,736,-4646,23,-348,-150,138
533,-15160,-20,738,-4646,23,-347,-151,138
534,-15158,-14,732,-4648,23,-346,-151,138
535,-15158,-18,724,-4648,23,-344,-152,138
536,-15158,-12,716,-4648,23,-346,-151,139
537,-15164,-8,732,-4648,23,-346,-153,139
538,-15166,-12,746,-4648,23,-346,-155,136
539,-15164,-6,750,-4647,23,-351,-155,136
540,-15170,-12,736,-4647,23,-352,-153,135
541,-15174,-12,742,-4648,23,-350,-153,136
542,-15164,-14,744,-4648,23,-350,-155,135
543,-15172,-18,750,-4648,23,-349,-155,136
544,-15168,-22,750,-4648,23,-349,-154,136
545,-15168,-20,760,-4647,23,-348,-154,137
546,-15160,-6,764,-4648,23,-348,-153,136
547,-15158,6,762,-4649,23,-350,-152,137
548,-15164,12,772,-4648,23,-351,-152,138
549,-15164,16,762,-4647,23,-351,-150,139
550,-15156,14,760,-4646,23,-352,-150,140
551,-15146,10,766,-4648,23,-349,-151,141
552,-15146,14,768,-4648,23,-351,-151,142
553,-15154,10,774,-4651,23,-353,-151,144
554,-15160,10,776,-4651,23,-351,-149,143
555,-15150,6,784,-4650,23,-351,-149,144
556,-15152,10,776,-4650,23,-351,-149,143
557,-15148,4,774,-4649,23,-351,-151,141
558,-15152,-2,784,-4648,23,-351,-150,140
559,-15148,-2,784,-4648,23,-352,-152,139
560,-15156,-2,780,-4647,23,-352,-150,140
561,-15166,-12,774,-4645,23,-350,-150,139
562,-15166,-4,774,-4647,23,-349,-151,139
563,-15160,-8,762,-4648,23,-351,-150,139
564,-15168,-6,768,-4648,23,-353,-151,139
565,-15160,-8,774,-4647,23,-350,-152,140
566,-15158,-6,766,-4646,23,-349,-151,138
567,-15158,-12,760,-4646,23,-351,-150,139
568,-15150,-10,756,-4646,23,-350,-151,139
569,-15152,-10,760,-4645,23,-351,-150,140
570,-15158,-14,752,-4644,23,-351,-151,143
571,-15156,-8,770,-4643,23,-350,-154,142
572,-15164,-4,758,-4644,23,-349,-154,142
573,-15154,-8,758,-4645,23,-348,-152,141
574,-15158,-8,752,-4647,23,-348,-151,142
575,-15166,-14,778,-4646,23,-348,-152,141
576,-15166,-4,764,-4648,23,-350,-153,139
577,-15164,-10,762,-4646,23,-349,-154,143
578,-15152,-14,756,-4645,23,-347,-152,144
579,-15152,-12,750,-4646,23,-347,-150,143
580,-15158,-2,738,-4645,23,-350,-152,141
581,-15158,-10,742,-4644,23,-348,-152,139
582,-15154,4,746,-4644,23,-348,-153,137
583,-15156,2,758,-4644,23,-348,-152,139
584,-15156,6,756,-4645,23,-348,-153,139
585,-15152,6,764,-4644,23,-347,-156,138
586,-15152,0,750,-4645,23,-348,-154,138
587,-15152,-6,754,-4645,23,-346,-153,137
588,-15150,4,732,-4644,23,-346,-154,138
589,-15154,-2,736,-4643,23,-347,-155,139
590,-15142,-6,750,-4644,23,-349,-152,138
591,-15142,-2,752,-4644,23,-348,-152,137
592,-15142,-2,756,-4644,23,-349,-152,137
593,-15152,-2,770,-4643,23,-349,-152,137
594,-15162,0,782,-4642,23,-348,-154,136
595,-15160,0,774,-4642,23,-349,-154,138
596,-15158,16,766,-4643,23,-349,-154,139
597,-15154,16,750,-4643,23,-347,-154,140
598,-15156,8,752,-4641,23,-349,-152,139
599,-15160,-4,762,-4641,23,-350,-153,140
600,-15150,-8,758,-4642,23,-351,-151,141
601,-15144,-10,754,-4642,23,-353,-152,141
602,-15140,-10,764,-4642,23,-351,-152,139
603,-15148,-10,762,-4642,23,-350,-154,141
604,-15150,-2,752,-4642,23,-351,-150,142
605,-15156,-12,748,-4642,23,-347,-149,141
606,-15150,-10,736,-4642,23,-347,-153,141
607,-15154,-12,736,-4641,23,-347,-154,140
608,-15144,-14,728,-4642,23,-346,-155,139
609,-15156,-12,742,-4639,23,-346,-154,140
610,-15154,-22,746,-4640,23,-348,-154,142
611,-15156,-20,748,-4641,23,-347,-151,144
612,-15158,-10,772,-4640,23,-348,-153,143
613,-15158,-12,748,-4644,23,-347,-151,142
614,-15168,-8,750,-4644,23,-346,-151,140
615,-15170,-4,766,-4646,23,-347,-151,142
616,-15158,0,770,-4644,23,-348,-151,139
617,-15152,10,770,-4643,23,-347,-152,139
618,-15162,12,788,-4645,23,-343,-151,139
619,-15164,10,774,-4645,23,-345,-152,140
620,-15156,10,756,-4645,23,-347,-153,140
621,-15148,0,744,-4644,23,-351,-151,140
622,-15156,6,754,-4643,23,-352,-154,141
623,-15162,10,760,-4643,23,-350,-155,141
624,-15152,-2,770,-4643,23,-349,-154,141
625,-15154,-8,746,-4642,23,-350,-152,141
626,-15152,-16,748,-4642,23,-350,-154,141
627,-15148,-14,748,-4642,23,-350,-152,140
628,-15146,-2,748,-4641,23,-350,-152,142
629,-15142,8,740,-4643,23,-348,-153,139
630,-15148,12,750,-4643,23,-350,-152,139
631,-15152,12,746,-4643,23,-349,-152,141
632,-15154,4,762,-4642,23,-348,-153,139
633,-15152,-4,772,-4641,23,-348,-151,139
634,-15162,-6,752,-4641,23,-347,-154,138
635,-15156,-6,750,-4641,23,-349,-155,138
636,-15156,4,748,-4641,23,-348,-155,138
637,-15164,-6,738,-4643,23,-348,-154,141
638,-15164,-6,732,-4644,23,-346,-152,141
639,-15164,2,740,-4645,23,-346,-153,140
640,-15162,8,750,-4644,23,-346,-150,142
641,-15162,10,744,-4644,23,-345,-152,142
642,-15154,6,754,-4643,23,-345,-152,141
643,-15152,-4,750,-4641,23,-349,-152,143
644,-15160,-10,760,-4642,23,-348,-151,142
645,-15164,-18,766,-4641,23,-348,-154,143
646,-15166,-14,752,-4641,23,-347,-155,141
647,-15166,-30,774,-4642,23,-347,-153,141
648,-15158,-42,780,-4643,23,-348,-153,141
649,-15166,-38,778,-4643,23,-348,-155,141
650,-15154,-30,758,-4642,23,-347,-153,141
651,-15154,-22,758,-4642,23,-349,-156,141
652,-15152,-20,748,-4644,23,-346,-155,142
653,-15154,-14,732,-4644,23,-345,-156,141
654,-15150,-8,748,-4644,23,-347,-153,140
655,-15152,-8,752,-4644,23,-344,-152,141
656,-15156,-16,750,-4644,23,-346,-153,141
657,-15156,-14,750,-4644,23,-351,-153,141
658,-15152,4,748,-4643,23,-350,-153,140
659,-15152,2,762,-4643,23,-348,-153,141
660,-15150,12,764,-4641,23,-348,-153,140
661,-15154,4,748,-4641,23,-350,-150,140
662,-15156,2,748,-4641,23,-347,-149,139
663,-15160,10,744,-4641,23,-350,-152,139
664,-15160,-2,746,-4641,23,-349,-151,139
665,-15164,-8,754,-4642,23,-349,-151,140
666,-15152,-2,754,-4643,23,-350,-150,140
667,-15150,2,742,-4642,23,-350,-150,141
668,-15148,-6,740,-4642,23,-348,-150,141
669,-15152,0,742,-4642,23,-346,-149,141
670,-15150,-12,738,-4642,23,-347,-152,142
671,-15158,-18,762,-4641,23,-348,-152,140
672,-15160,-20,766,-4642,23,-347,-151,140
673,-15168,-12,762,-4641,23,-348,-154,139
674,-15164,-2,762,-4641,23,-346,-154,138
675,-15164,-2,750,-4641,23,-347,-153,139
676,-15168,0,762,-4641,23,-347,-154,141
677,-15170,-12,768,-4641,23,-348,-153,139
678,-15166,-10,778,-4640,23,-349,-153,140
679,-15160,-14,790,-4640,23,-351,-153,139
680,-15168,-12,782,-4642,23,-350,-152,140
681,-15168,-10,792,-4640,23,-350,-153,140
682,-15164,-2,794,-4639,23,-350,-151,141
683,-15148,4,776,-4639,23,-351,-152,141
684,-15160,-4,774,-4635,23,-347,-151,141
685,-15134,-10,762,-4637,23,-348,-149,144
686,-15132,-14,774,-4638,23,-347,-147,144
687,-15128,-20,774,-4640,23,-346,-148,144
688,-15136,-12,768,-4640,23,-345,-150,144
689,-15130,-4,752,-4640,23,-346,-150,143
690,-15136,-8,752,-4637,23,-348,-147,141
691,-15138,-4,762,-4637,23,-348,-146,140
692,-15154,-10,752,-4638,23,-349,-149,139
693,-15158,8,748,-4639,23,-349,-149,140
694,-15154,10,754,-4637,23,-350,-151,142
695,-15146,10,776,-4638,23,-349,-151,142
696,-15136,-2,770,-4638,23,-349,-151,141
697,-15138,-2,754,-4640,23,-350,-151,142
698,-15144,0,744,-4640,23,-349,-153,142
699,-15154,-10,770,-4639,23,-348,-153,142
700,-15148,-12,754,-4639,23,-349,-154,141
701,-15144,-10,756,-4641,23,-348,-154,139
702,-15146,-12,770,-4639,23,-348,-152,139
703,-15152,-8,758,-4639,23,-348,-152,141
704,-15140,-12,750,-4640,23,-348,-152,141
705,-15152,-6,764,-4640,23,-348,-154,144
706,-15158,0,766,-4641,23,-348,-151,143
707,-15160,-2,762,-4642,23,-348,-152,142
708,-15152,4,778,-4641,23,-351,-152,141
709,-15156,8,780,-4642,23,-352,-150,140
710,-15158,18,776,-4640,23,-351,-148,142
711,-15168,20,774,-4639,23,-352,-148,143
712,-15168,20,778,-4638,23,-351,-149,141
713,-15174,10,776,-4639,23,-349,-151,141
714,-15162,10,768,-4639,23,-349,-147,140
715,-15160,12,756,-4640,23,-350,-149,139
716,-15162,0,754,-4640,23,-351,-148,139
717,-15150,4,764,-4642,23,-352,-150,139
718,-15152,2,754,-4641,23,-351,-151,141
719,-15150,0,756,-4642,23,-350,-151,139
720,-15154,-4,758,-4640,23,-351,-152,139
721,-15152,-4,756,-4640,23,-351,-151,139
722,-15166,-4,750,-4639,23,-351,-150,140
723,-15162,-16,740,-4639,23,-350,-149,142
724,-15160,-12,740,-4637,23,-350,-152,140
725,-15158,-6,754,-4635,23,-350,-150,140
726,-15148,6,766,-4637,23,-349,-149,142
727,-15160,-4,786,-4638,23,-350,-149,142
728,-15152,-4,792,-4637,23,-350,-149,141
729,-15156,-12,780,-4638,23,-350,-151,139
730,-15160,-16,770,-4637,23,-348,-151,141
731,-15158,-14,764,-4636,23,-350,-149,141
732,-15156,-12,768,-4637,23,-350,-149,139
733,-15166,-12,760,-4636,23,-349,-152,141
734,-15172,-6,762,-4637,23,-348,-150,140
735,-15176,-10,756,-4636,23,-347,-150,141
736,-15168,-12,750,-4635,23,-347,-150,140
737,-15168,-6,770,-4636,23,-345,-152,140
738,-15164,4,776,-4636,23,-346,-152,141
739,-15164,-10,766,-4637,23,-346,-151,142
740,-15158,-6,760,-4637,23,-346,-151,142
741,-15160,-8,756,-4636,23,-344,-152,141
742,-15164,-8,760,-4635,23,-346,-153,141
743,-15164,-6,760,-4636,23,-348,-152,139
744,-15166,-10,770,-4635,23,-349,-150,139
745,-15162,-12,780,-4636,23,-349,-151,138
746,-15160,-8,766,-4636,23,-349,-153,140
747,-15156,-6,764,-4638,23,-350,-154,141
748,-15160,-2,754,-4637,23,-351,-154,140
749,-15162,-2,750,-4638,23,-351,-157,140
750,-15162,2,740,-4639,23,-352,-155,141
751,-15162,-8,750,-4638,23,-350,-152,139
752,-15152,-14,746,-4640,23,-349,-154,138
753,-15154,-10,760,-4640,23,-349,-151,139
754,-15154,-12,756,-4640,23,-348,-152,141
755,-15156,-16,766,-4640,23,-349,-152,141
756,-15150,-20,764,-4639,23,-352,-154,140
757,-15144,-26,768,-4638,23,-353,-153,139
758,-15150,-28,776,-4637,23,-352,-152,140
759,-15148,-16,788,-4638,23,-351,-151,140
760,-15140,-4,776,-4637,23,-350,-153,141
761,-15146,-14,764,-4638,23,-349,-149,141
762,-15154,-14,766,-4638,23,-349,-150,138
763,-15154,-18,760,-4636,23,-350,-150,137
764,-15158,-6,752,-4636,23,-352,-150,136
765,-15152,-8,766,-4636,23,-352,-153,137
766,-15152,-10,756,-4635,23,-350,-152,136
767,-15160,2,764,-4634,23,-352,-153,138
768,-15162,6,762,-4632,23,-352,-153,137
769,-15154,0,752,-4631,23,-351,-150,137
770,-15148,-8,742,-4632,23,-350,-151,137
771,-15146,-14,744,-4632,23,-349,-152,136
772,-15148,-8,732,-4633,23,-348,-153,136
773,-15162,-12,740,-4634,23,-349,-153,135
774,-15154,-10,740,-4635,23,-348,-154,136
775,-15150,-4,754,-4635,23,-350,-155,137
776,-15144,-6,746,-4634,23,-350,-154,139
777,-15138,-8,760,-4634,23,-348,-152,139
778,-15140,-12,752,-4633,23,-351,-153,139
779,-15136,4,746,-4635,23,-350,-154,141
780,-15150,8,750,-4634,23,-347,-153,141
781,-15146,6,750,-4632,23,-348,-152,141
782,-15146,6,752,-4635,23,-349,-152,141
783,-15128,-2,764,-4635,23,-348,-152,142
784,-15132,8,774,-4635,23,-349,-151,142
785,-15144,6,762,-4635,23,-349,-150,142
786,-15148,6,768,-4634,23,-350,-152,140
787,-15148,-6,770,-4634,23,-349,-152,138
788,-15148,-4,784,-4635,23,-348,-152,138
789,-15140,4,778,-4635,23,-351,-154,140
790,-15144,10,774,-4636,23,-349,-153,138
791,-15150,14,772,-4635,23,-349,-153,140
792,-15152,8,764,-4636,23,-351,-153,140
793,-15144,4,758,-4635,23,-349,-152,140
794,-15146,-4,760,-4636,23,-347,-152,141
795,-15148,-4,752,-4635,23,-347,-154,140
796,-15148,-2,746,-4636,23,-347,-154,141
797,-15162,-8,746,-4636,23,-349,-155,141
798,-15156,-18,734,-4636,23,-350,-157,139
799,-15156,-22,730,-4635,23,-352,-154,141
800,-15148,-20,728,-4636,23,-352,-151,140
801,-15144,-16,734,-4633,23,-351,-151,141
802,-15150,-20,740,-4634,23,-350,-151,141
803,-15154,-22,746,-4635,23,-352,-152,141
804,-15152,-20,744,-4635,23,-353,-152,140
805,-15158,-24,756,-4635,23,-353,-151,139
806,-15154,-24,764,-4636,23,-352,-152,138
807,-15156,-14,766,-4634,23,-351,-151,138
808,-15164,-12,770,-4635,23,-349,-149,139
809,-15160,-14,754,-4633,23,-348,-149,139
810,-15152,-16,768,-4634,23,-349,-149,140
811,-15146,-20,756,-4634,23,-350,-150,140
812,-15156,-14,760,-4635,23,-349,-151,141
813,-15154,-20,752,-4635,23,-351,-153,142
814,-15148,-18,758,-4634,23,-351,-151,141
815,-15138,-18,760,-4635,23,-352,-151,141
816,-15140,-22,768,-4637,23,-352,-148,141
817,-15138,-20,758,-4637,23,-351,-150,140
818,-15150,-22,776,-4638,23,-353,-147,140
819,-15154,-22,748,-4636,23,-353,-147,141
820,-15168,-24,758,-4634,23,-353,-147,139
821,-15160,-26,766,-4635,23,-353,-149,140
822,-15156,-26,770,-4635,23,-352,-151,141
823,-15156,-26,760,-4635,23,-349,-151,142
824,-15142,-26,762,-4635,23,-348,-150,143
825,-15154,-32,764,-4634,23,-349,-151,142
826,-15164,-28,758,-4634,23,-349,-151,144
827,-15160,-20,752,-4635,23,-348,-150,142
828,-15162,-12,748,-4635,23,-346,-152,141
829,-15158,-14,748,-4636,23,-348,-152,142
830,-15168,-6,750,-4637,23,-347,-153,141
831,-15166,2,758,-4635,23,-347,-154,141
832,-15168,4,758,-4634,23,-346,-154,140
833,-15166,6,754,-4633,23,-346,-154,139
834,-15160,4,762,-4633,23,-349,-154,136
835,-15148,4,758,-4634,23,-349,-155,139
836,-15150,2,758,-4634,23,-349,-155,140
837,-15150,4,752,-4632,23,-348,-154,139
838,-15152,-4,760,-4630,23,-350,-155,139
839,-15156,-4,770,-4630,23,-349,-151,139
840,-15156,-10,756,-4630,23,-350,-151,139
841,-15158,-8,772,-4632,23,-350,-152,139
842,-15156,-10,776,-4633,23,-350,-155,139
843,-15156,-6,784,-4631,23,-351,-154,141
844,-15150,2,776,-4633,23,-352,-155,141
845,-15150,4,784,-4631,23,-351,-154,142
846,-15160,-2,774,-4632,23,-351,-154,141
847,-15152,0,766,-4630,23,-353,-151,141
848,-15152,-2,756,-4629,23,-352,-151,141
849,-15156,-8,760,-4631,23,-352,-153,143
850,-15156,-10,752,-4632,23,-350,-155,143
851,-15142,-16,764,-4631,23,-349,-154,141
852,-15134,-18,756,-4633,23,-346,-155,139
853,-15144,-14,754,-4634,23,-346,-155,139
854,-15160,-14,768,-4632,23,-347,-154,138
855,-15162,-16,762,-4631,23,-347,-152,138
856,-15164,-16,770,-4633,23,-348,-148,136
857,-15172,-14,776,-4634,23,-350,-149,138
858,-15172,-4,778,-4634,23,-348,-150,139
859,-15154,-4,780,-4634,23,-348,-151,139
860,-15144,-6,768,-4635,23,-349,-151,141
861,-15148,-10,768,-4636,23,-350,-150,141
862,-15152,-10,758,-4637,23,-349,-150,140
863,-15156,-16,762,-4637,23,-348,-149,141
864,-15154,-14,768,-4637,23,-347,-150,140
865,-15160,-10,766,-4636,23,-348,-151,140
866,-15152,-12,758,-4633,23,-348,-153,140
867,-15160,-12,758,-4633,23,-348,-154,143
868,-15150,-16,762,-4632,23,-347,-157,142
869,-15148,-6,748,-4631,23,-348,-154,140
870,-15148,-12,752,-4632,23,-349,-157,141
871,-15148,-14,756,-4630,23,-348,-154,141
872,-15160,-18,758,-4632,23,-347,-153,139
873,-15158,-18,756,-4632,23,-348,-152,141
874,-15150,-16,754,-4632,23,-349,-151,143
875,-15146,-16,762,-4631,23,-349,-153,143
876,-15150,-4,764,-4631,23,-351,-153,141
877,-15146,-4,776,-4632,23,-350,-157,145
878,-15152,2,782,-4631,23,-349,-156,146
879,-15156,4,774,-4632,23,-349,-155,146
880,-15160,2,766,-4632,23,-347,-153,145
881,-15158,0,762,-4631,23,-348,-151,141
882,-15160,-2,762,-4631,23,-347,-151,141
883,-15164,0,764,-4632,23,-348,-150,140
884,-15166,2,752,-4631,23,-350,-149,142
885,-15160,-4,754,-4631,23,-349,-149,140
886,-15162,-6,760,-4632,23,-346,-148,140
887,-15162,-8,750,-4632,23,-343,-150,142
888,-15160,-4,754,-4632,23,-344,-150,141
889,-15166,-4,750,-4633,23,-344,-150,140
890,-15166,-2,734,-4633,23,-346,-150,141
891,-15168,4,730,-4634,23,-346,-148,139
892,-15166,-4,740,-4635,23,-345,-149,140
893,-15170,-4,750,-4633,23,-344,-147,139
894,-15156,-6,748,-4634,23,-344,-147,142
895,-15154,-4,750,-4634,23,-345,-146,142
896,-15156,-4,748,-4635,23,-344,-146,140
897,-15160,8,762,-4633,23,-345,-145,140
898,-15160,0,774,-4633,23,-344,-147,139
899,-15166,-4,784,-4634,23,-345,-147,139
900,-15162,-8,782,-4634,23,-348,-149,139
901,-15162,-12,780,-4635,23,-350,-150,137
902,-15156,-8,770,-4634,23,-347,-152,138
903,-15154,-8,774,-4632,23,-348,-154,139
904,-15152,-2,772,-4633,23,-348,-151,138
905,-15148,-2,764,-4635,23,-347,-153,138
906,-15154,2,756,-4635,23,-347,-153,136
907,-15160,10,762,-4636,23,-348,-155,139
908,-15158,12,766,-4635,23,-349,-154,139
909,-15154,18,772,-4634,23,-349,-152,141
910,-15144,10,776,-4635,23,-351,-150,141
911,-15144,12,772,-4633,23,-350,-149,143
912,-15144,10,768,-4632,23,-348,-148,145
913,-15142,8,764,-4631,23,-349,-150,144
914,-15142,6,764,-4632,23,-347,-150,141
915,-15146,-4,766,-4631,23,-347,-152,141
916,-15146,2,776,-4631,23,-351,-153,139
917,-15152,2,768,-4632,23,-350,-152,141
918,-15160,-4,752,-4632,23,-351,-154,141
919,-15166,-8,770,-4632,23,-351,-155,139
920,-15164,-8,768,-4630,23,-350,-154,138
921,-15166,-14,762,-4631,23,-350,-154,138
922,-15170,-8,780,-4631,23,-347,-153,139
923,-15166,-8,778,-4631,23,-351,-154,140
924,-15172,4,780,-4630,23,-351,-156,141
925,-15168,-4,782,-4631,23,-350,-155,140
926,-15162,6,766,-4631,23,-349,-154,142
927,-15160,2,768,-4632,23,-349,-155,142
928,-15148,-4,766,-4633,23,-347,-156,143
929,-15150,-4,770,-4632,23,-347,-155,140
930,-15150,-2,768,-4633,23,-348,-153,140
931,-15144,0,762,-4635,23,-347,-154,140
932,-15140,-4,764,-4635,23,-348,-151,140
933,-15150,-10,768,-4634,23,-348,-151,141
934,-15156,2,760,-4634,23,-349,-153,142
935,-15146,6,762,-4632,23,-350,-152,141
936,-15148,6,762,-4632,23,-347,-152,140
937,-15148,-4,778,-4629,23,-350,-150,138
938,-15152,-8,780,-4629,23,-351,-150,137
939,-15158,-4,776,-4630,23,-350,-152,139
940,-15156,-2,760,-4631,23,-348,-150,139
941,-15154,-6,756,-4630,23,-349,-149,137
942,-15160,-6,760,-4631,23,-349,-149,139
943,-15156,-12,760,-4630,23,-348,-150,141
944,-15150,-14,742,-4630,23,-347,-151,139
945,-15164,-16,736,-4630,23,-347,-153,142
946,-15172,-10,722,-4631,23,-347,-153,143
947,-15180,-4,718,-4631,23,-347,-155,142
948,-15176,0,730,-4633,23,-346,-156,140
949,-15172,-2,728,-4632,23,-345,-157,142
950,-15166,-6,738,-4630,23,-346,-155,141
951,-15170,4,746,-4631,23,-345,-155,142
952,-15158,-2,746,-4632,23,-346,-155,143
953,-15156,0,754,-4632,23,-347,-156,140
954,-15158,2,756,-4633,23,-349,-155,140
955,-15166,4,754,-4633,23,-351,-154,140
956,-15170,4,748,-4632,23,-351,-155,141
957,-15170,-2,736,-4631,23,-349,-155,143
958,-15156,4,754,-4631,23,-348,-153,143
959,-15150,-4,748,-4630,23,-348,-154,142
960,-15154,-4,752,-4630,23,-347,-154,140
961,-15152,-4,760,-4630,23,-346,-153,141
962,-15154,4,772,-4628,23,-344,-151,141
963,-15156,-4,762,-4628,23,-344,-151,140
964,-15156,-2,758,-4628,23,-342,-152,140
965,-15158,-2,756,-4628,23,-344,-151,140
966,-15158,0,748,-4627,23,-345,-149,141
967,-15164,-10,758,-4629,23,-346,-148,143
968,-15172,-2,762,-4630,23,-347,-151,142
969,-15164,-6,768,-4628,23,-347,-151,142
970,-15160,-6,772,-4629,23,-348,-149,141
971,-15166,-8,756,-4632,23,-347,-152,141
972,-15164,-8,738,-4631,23,-347,-150,142
973,-15158,-12,732,-4632,23,-349,-151,140
974,-15156,-18,736,-4633,23,-350,-150,139
975,-15156,-18,742,-4631,23,-350,-149,140
976,-15154,-12,766,-4632,23,-350,-147,142
977,-15154,-8,746,-4631,23,-350,-153,142
978,-15154,-12,744,-4630,23,-351,-150,143
979,-15156,-2,752,-4631,23,-353,-149,144
980,-15156,-18,750,-4631,23,-352,-152,145
981,-15156,-22,740,-4632,23,-349,-152,144
982,-15158,-20,754,-4629,23,-349,-152,144
983,-15160,-24,752,-4628,23,-348,-151,144
984,-15158,-18,756,-4628,23,-346,-151,143
985,-15158,-12,744,-4628,23,-347,-151,141
986,-15158,-14,744,-4628,23,-350,-151,141
987,-15166,-8,752,-4630,23,-351,-153,142
988,-15164,-4,756,-4629,23,-350,-153,141
989,-15168,-16,756,-4628,23,-347,-153,142
990,-15160,-12,760,-4628,23,-345,-154,142
991,-15156,-14,748,-4628,23,-346,-154,142
992,-15154,-8,762,-4628,23,-347,-154,142
993,-15150,-4,766,-4628,23,-349,-155,142
994,-15148,-4,766,-4627,23,-349,-154,142
995,-15152,0,760,-4628,23,-348,-156,141
