,acc_X,acc_Y,acc_Z,temp,tempC,gyr_X,gyr_Y,gyr_Z
0,-15144,22,732,-4744,23,-87,-38,34
1,-15154,22,722,-4743,23,-88,-39,34
2,-15150,14,756,-4742,23,-87,-39,34
3,-15152,6,756,-4742,23,-87,-38,34
4,-15150,-8,752,-4740,23,-87,-39,34
5,-15164,-20,762,-4740,23,-87,-39,34
6,-15152,-30,758,-4739,23,-87,-38,34
7,-15156,-14,766,-4740,23,-87,-39,34
8,-15160,0,764,-4741,23,-88,-38,34
9,-15148,2,762,-4744,23,-87,-38,34
10,-15160,6,782,-4742,23,-87,-39,34
11,-15168,-2,748,-4740,23,-86,-38,34
12,-15152,-28,742,-4740,23,-86,-38,33
13,-15146,-14,718,-4738,23,-86,-38,33
14,-15152,-18,722,-4737,23,-87,-37,33
15,-15170,-24,724,-4737,23,-87,-37,34
16,-15156,-8,728,-4736,23,-87,-37,34
17,-15148,2,732,-4737,23,-88,-38,33
18,-15148,-8,712,-4735,23,-87,-38,34
19,-15168,-10,742,-4732,23,-87,-39,34
20,-15168,-24,750,-4733,23,-88,-38,33
21,-15164,-16,714,-4737,23,-87,-38,33
22,-15162,2,710,-4738,23,-87,-38,34
23,-15156,6,742,-4735,23,-88,-38,35
24,-15144,0,738,-4734,23,-88,-36,34
25,-15130,-12,740,-4735,23,-88,-38,35
26,-15150,-22,732,-4733,23,-88,-37,35
27,-15168,-8,712,-4735,23,-88,-38,35
28,-15164,-28,740,-4733,23,-88,-37,35
29,-15162,0,746,-4732,23,-87,-38,35
30,-15172,-8,748,-4731,23,-86,-38,35
31,-15184,-4,734,-4730,23,-87,-38,34
32,-15166,-4,756,-4728,23,-87,-39,34
33,-15158,-28,732,-4729,23,-87,-38,34
34,-15160,-20,742,-4729,23,-86,-38,33
35,-15148,-30,736,-4729,23,-87,-38,33
36,-15122,-16,722,-4731,23,-87,-37,34
37,-15168,-6,720,-4729,23,-87,-38,35
38,-15162,-8,740,-4728,23,-87,-38,35
39,-15160,-2,758,-4729,23,-87,-38,35
40,-15152,-10,754,-4729,23,-87,-39,35
41,-15144,-14,760,-4728,23,-86,-39,34
42,-15144,-14,764,-4729,23,-87,-39,35
43,-15158,-4,746,-4731,23,-87,-38,32
44,-15166,4,718,-4730,23,-87,-38,32
45,-15166,-6,712,-4729,23,-86,-38,34
46,-15160,-18,694,-4725,23,-85,-38,35
47,-15146,-24,716,-4727,23,-86,-39,35
48,-15140,-4,744,-4729,23,-87,-39,34
49,-15138,-28,756,-4725,23,-87,-39,34
50,-15152,-20,750,-4725,23,-87,-39,34
51,-15158,-8,770,-4728,23,-86,-39,34
52,-15150,-8,754,-4724,23,-86,-38,35
53,-15164,2,728,-4725,23,-85,-38,35
54,-15168,4,718,-4726,23,-86,-39,35
55,-15158,2,742,-4726,23,-85,-40,36
56,-15164,-24,748,-4724,23,-86,-39,35
57,-15154,-30,770,-4726,23,-86,-39,34
58,-15148,-26,754,-4726,23,-86,-38,34
59,-15140,-6,762,-4726,23,-86,-38,35
60,-15142,-10,768,-4727,23,-87,-39,34
61,-15146,-14,758,-4724,23,-86,-39,34
62,-15158,-2,758,-4726,23,-87,-39,34
63,-15172,2,770,-4726,23,-86,-38,34
64,-15152,-12,748,-4726,23,-87,-38,34
65,-15140,-10,764,-4726,23,-87,-37,36
66,-15138,-4,766,-4726,23,-87,-37,35
67,-15140,-18,758,-4726,23,-87,-37,35
68,-15136,-20,740,-4723,23,-87,-38,34
69,-15138,-20,762,-4725,23,-86,-38,35
70,-15126,-4,742,-4721,23,-87,-38,34
71,-15134,6,744,-4722,23,-87,-38,33
72,-15150,-12,756,-4723,23,-88,-38,33
73,-15140,-22,764,-4723,23,-88,-38,34
74,-15134,-8,738,-4722,23,-88,-37,34
75,-15136,-30,740,-4719,23,-88,-38,33
76,-15138,-8,736,-4720,23,-87,-38,34
77,-15144,-2,732,-4720,23,-87,-38,33
78,-15148,0,728,-4718,23,-86,-39,35
79,-15168,4,754,-4721,23,-87,-38,34
80,-15166,2,744,-4722,23,-87,-39,34
81,-15158,-6,776,-4718,23,-87,-39,34
82,-15152,-8,764,-4721,23,-86,-39,34
83,-15166,-8,770,-4723,23,-86,-39,35
84,-15154,-36,750,-4720,23,-87,-38,35
85,-15158,2,760,-4721,23,-88,-38,34
86,-15134,10,756,-4717,23,-89,-39,34
87,-15156,-8,772,-4717,23,-87,-38,34
88,-15164,-2,730,-4718,23,-87,-38,33
89,-15146,4,738,-4716,23,-87,-39,35
90,-15144,-8,764,-4717,23,-87,-38,35
91,-15144,-24,748,-4718,23,-88,-39,35
92,-15140,-30,742,-4719,23,-87,-40,35
93,-15152,-10,750,-4719,23,-87,-39,35
94,-15148,-14,748,-4720,23,-87,-39,34
95,-15144,-6,758,-4719,23,-86,-38,35
96,-15150,0,754,-4723,23,-86,-38,36
97,-15150,-4,764,-4720,23,-86,-39,35
98,-15138,-18,732,-4719,23,-86,-39,35
99,-15134,-18,734,-4719,23,-87,-39,35
100,-15142,-30,722,-4716,23,-88,-39,35
101,-15144,-14,762,-4717,23,-87,-39,34
102,-15142,-26,758,-4718,23,-87,-38,34
103,-15144,-26,760,-4719,23,-88,-38,35
104,-15136,0,750,-4717,23,-88,-38,35
105,-15150,-10,762,-4717,23,-88,-39,35
106,-15160,8,744,-4717,23,-87,-38,35
107,-15146,-12,738,-4716,23,-87,-39,35
108,-15144,-20,732,-4718,23,-87,-37,35
109,-15150,-16,732,-4714,23,-87,-38,35
110,-15142,-12,752,-4717,23,-88,-38,34
111,-15162,-16,770,-4716,23,-86,-37,34
112,-15158,-18,790,-4717,23,-87,-36,34
113,-15138,-8,790,-4715,23,-86,-37,35
114,-15134,-12,754,-4718,23,-87,-37,36
115,-15134,-14,764,-4715,23,-87,-37,35
116,-15156,-34,768,-4713,23,-88,-39,35
117,-15168,-22,760,-4711,23,-87,-38,35
118,-15152,-14,748,-4712,23,-88,-38,35
119,-15128,8,772,-4711,23,-87,-39,34
120,-15124,-2,762,-4709,23,-88,-39,34
121,-15138,-24,758,-4710,23,-87,-39,35
122,-15154,-20,764,-4707,23,-87,-39,35
123,-15126,-28,758,-4709,23,-87,-39,34
124,-15138,-12,770,-4711,23,-87,-39,34
125,-15140,-2,780,-4710,23,-88,-37,35
126,-15152,-14,758,-4712,23,-88,-37,35
127,-15160,-18,748,-4711,23,-88,-38,35
128,-15140,-20,726,-4708,23,-87,-39,34
129,-15152,-10,742,-4706,23,-88,-39,34
130,-15144,6,742,-4708,23,-88,-39,34
131,-15158,-2,724,-4713,23,-88,-39,34
132,-15160,-10,720,-4713,23,-88,-38,35
133,-15172,10,748,-4709,23,-87,-39,35
134,-15180,20,756,-4709,23,-87,-38,34
135,-15174,20,764,-4709,23,-87,-38,35
136,-15158,16,764,-4706,23,-87,-39,35
137,-15156,-4,788,-4705,23,-87,-39,35
138,-15160,-2,782,-4705,23,-87,-38,33
139,-15148,-8,784,-4707,23,-87,-39,33
140,-15164,-4,782,-4704,23,-87,-38,33
141,-15160,2,746,-4704,23,-87,-38,33
142,-15156,4,716,-4705,23,-87,-39,34
143,-15152,10,710,-4707,23,-86,-38,34
144,-15170,-2,732,-4708,23,-86,-38,34
145,-15172,-18,732,-4705,23,-86,-38,34
146,-15164,-2,756,-4707,23,-87,-37,35
147,-15140,-8,774,-4704,23,-86,-37,34
148,-15158,2,764,-4705,23,-87,-38,35
149,-15142,-12,758,-4706,23,-86,-38,35
150,-15136,-8,760,-4704,23,-86,-38,35
151,-15156,-22,772,-4704,23,-86,-39,35
152,-15154,-10,776,-4703,23,-87,-39,34
153,-15136,-10,764,-4702,23,-87,-38,33
154,-15152,-14,794,-4704,23,-88,-39,34
155,-15160,4,772,-4705,23,-88,-39,34
156,-15152,-6,776,-4703,23,-88,-38,35
157,-15154,6,792,-4705,23,-88,-39,35
158,-15152,-6,778,-4703,23,-87,-38,33
159,-15154,-10,744,-4702,23,-87,-39,34
160,-15154,-4,746,-4700,23,-87,-39,34
161,-15160,-8,750,-4703,23,-87,-38,34
162,-15150,-14,740,-4703,23,-87,-39,35
163,-15158,-2,754,-4702,23,-87,-38,35
164,-15152,-10,764,-4701,23,-87,-38,35
165,-15156,-16,754,-4704,23,-87,-38,35
166,-15162,-6,764,-4703,23,-87,-39,35
167,-15146,2,722,-4703,23,-87,-38,35
168,-15144,-8,740,-4704,23,-88,-37,34
169,-15164,-20,740,-4702,23,-87,-38,34
170,-15162,-14,752,-4704,23,-88,-37,34
171,-15174,-16,752,-4700,23,-88,-39,34
172,-15142,-24,744,-4701,23,-88,-39,34
173,-15158,-28,748,-4700,23,-87,-38,34
174,-15160,-14,766,-4700,23,-87,-38,33
175,-15158,-10,768,-4699,23,-87,-38,34
176,-15156,-6,752,-4702,23,-88,-37,34
177,-15166,-6,748,-4701,23,-87,-37,35
178,-15158,-6,754,-4700,23,-87,-38,35
179,-15156,-10,768,-4702,23,-87,-38,35
180,-15152,-28,760,-4702,23,-88,-39,35
181,-15164,-32,770,-4701,23,-88,-38,35
182,-15166,-34,732,-4701,23,-87,-38,34
183,-15168,-38,714,-4699,23,-87,-39,35
184,-15174,-38,742,-4696,23,-87,-39,34
185,-15160,-18,728,-4699,23,-86,-39,34
186,-15162,-26,752,-4698,23,-86,-39,35
187,-15156,-26,734,-4695,23,-87,-39,35
188,-15148,-8,722,-4697,23,-87,-39,35
189,-15136,0,726,-4698,23,-86,-37,34
190,-15138,2,726,-4697,23,-86,-37,34
191,-15156,-16,708,-4697,23,-87,-38,35
192,-15152,-18,720,-4697,23,-88,-39,35
193,-15156,-8,746,-4695,23,-87,-40,35
194,-15170,-8,734,-4697,23,-87,-40,35
195,-15152,6,754,-4698,23,-88,-38,36
196,-15160,-10,762,-4701,23,-86,-40,36
197,-15168,-26,808,-4697,23,-86,-39,35
198,-15148,-6,778,-4702,23,-87,-38,35
199,-15128,-20,780,-4701,23,-88,-39,34
200,-15158,-16,752,-4703,23,-87,-38,35
201,-15170,-16,746,-4700,23,-86,-38,35
202,-15166,-16,778,-4697,23,-87,-38,36
203,-15166,-12,786,-4695,23,-87,-38,36
204,-15172,-18,802,-4696,23,-86,-38,35
205,-15156,-20,784,-4697,23,-87,-39,35
206,-15158,-30,756,-4696,23,-87,-39,35
207,-15144,-20,774,-4692,23,-89,-39,35
208,-15140,-16,768,-4691,23,-88,-39,34
209,-15130,-16,770,-4694,23,-88,-38,34
210,-15132,-20,794,-4693,23,-86,-39,35
211,-15154,-22,804,-4694,23,-88,-37,35
212,-15160,-10,790,-4691,23,-87,-38,35
213,-15166,-6,774,-4693,23,-87,-38,35
214,-15166,-12,780,-4693,23,-87,-38,35
215,-15148,0,768,-4695,23,-87,-39,35
216,-15156,-12,766,-4699,23,-87,-39,35
217,-15148,-12,768,-4698,23,-87,-38,34
218,-15160,-12,766,-4697,23,-87,-40,34
219,-15148,-32,756,-4697,23,-87,-38,35
220,-15168,-34,752,-4700,23,-87,-38,35
221,-15160,-30,746,-4701,23,-87,-39,35
222,-15162,-20,770,-4697,23,-86,-39,34
223,-15160,-16,738,-4699,23,-86,-38,34
224,-15160,-14,726,-4699,23,-86,-39,35
225,-15146,-4,728,-4696,23,-87,-39,35
226,-15134,4,724,-4694,23,-87,-39,34
227,-15128,6,716,-4692,23,-86,-38,35
228,-15132,-4,734,-4693,23,-88,-37,34
229,-15148,-16,770,-4692,23,-87,-38,34
230,-15140,-28,760,-4693,23,-87,-38,35
231,-15154,-20,756,-4695,23,-88,-38,35
232,-15144,-30,750,-4692,23,-87,-39,34
233,-15140,-26,764,-4691,23,-88,-38,35
234,-15158,-18,762,-4694,23,-88,-38,36
235,-15152,-14,764,-4690,23,-88,-39,35
236,-15162,-24,764,-4691,23,-88,-39,36
237,-15158,0,738,-4692,23,-87,-39,35
238,-15162,2,732,-4692,23,-88,-38,35
239,-15170,10,724,-4695,23,-88,-38,35
240,-15168,2,716,-4695,23,-88,-38,35
241,-15154,16,752,-4696,23,-88,-38,34
242,-15166,16,706,-4697,23,-87,-39,34
243,-15156,-2,738,-4696,23,-88,-37,34
244,-15162,-6,726,-4698,23,-87,-38,35
245,-15166,-12,752,-4693,23,-87,-38,35
246,-15158,-34,766,-4689,23,-86,-38,35
247,-15160,-10,768,-4690,23,-87,-39,34
248,-15150,-32,774,-4689,23,-87,-39,34
249,-15142,-32,770,-4688,23,-87,-40,35
250,-15144,-14,754,-4690,23,-87,-40,34
251,-15154,-18,738,-4691,23,-87,-38,34
252,-15166,4,754,-4692,23,-86,-39,34
253,-15168,-2,788,-4686,23,-87,-39,34
254,-15178,-6,770,-4684,23,-86,-38,35
255,-15184,0,768,-4688,23,-86,-37,34
256,-15176,-14,732,-4688,23,-86,-39,34
257,-15152,-20,730,-4688,23,-87,-38,34
258,-15152,-6,716,-4688,23,-87,-38,33
259,-15150,4,734,-4691,23,-86,-39,34
260,-15148,-22,736,-4691,23,-86,-39,35
261,-15148,-32,776,-4690,23,-87,-39,34
262,-15172,-22,742,-4693,23,-86,-39,34
263,-15176,-22,740,-4692,23,-88,-38,35
264,-15168,-34,738,-4691,23,-88,-38,34
265,-15172,-18,732,-4692,23,-87,-39,34
266,-15168,0,732,-4692,23,-86,-39,35
267,-15158,6,754,-4691,23,-87,-38,36
268,-15144,-4,730,-4689,23,-87,-38,35
269,-15142,-14,728,-4691,23,-87,-39,35
270,-15148,-14,732,-4691,23,-87,-38,35
271,-15150,-6,740,-4688,23,-88,-38,35
272,-15152,-10,730,-4688,23,-88,-38,34
273,-15136,4,738,-4685,23,-87,-38,35
274,-15136,-14,768,-4686,23,-87,-38,35
275,-15152,-14,774,-4691,23,-87,-38,35
276,-15148,-10,758,-4688,23,-87,-39,36
277,-15140,6,740,-4690,23,-87,-39,36
278,-15152,-18,758,-4686,23,-87,-39,36
279,-15148,-20,768,-4687,23,-87,-38,35
280,-15136,-24,724,-4690,23,-87,-38,35
281,-15156,-10,734,-4692,23,-86,-39,35
282,-15176,-12,736,-4690,23,-86,-39,36
283,-15182,-8,734,-4687,23,-86,-39,35
284,-15174,8,730,-4687,23,-86,-37,35
285,-15164,-4,758,-4685,23,-86,-37,35
286,-15180,-16,748,-4685,23,-87,-38,35
287,-15160,-16,738,-4686,23,-86,-39,34
288,-15150,-10,748,-4689,23,-86,-39,34
289,-15158,-12,730,-4688,23,-87,-39,34
290,-15170,-24,732,-4687,23,-87,-39,33
291,-15162,-20,734,-4688,23,-86,-38,33
292,-15156,-20,750,-4689,23,-87,-37,34
293,-15156,-20,728,-4689,23,-86,-37,34
294,-15176,-12,750,-4685,23,-87,-37,35
295,-15184,-10,754,-4683,23,-87,-38,35
296,-15168,-12,746,-4681,23,-87,-37,35
297,-15160,-12,730,-4682,23,-88,-37,35
298,-15154,2,702,-4685,23,-87,-37,35
299,-15156,16,740,-4687,23,-87,-37,34
300,-15158,-2,762,-4687,23,-88,-37,34
301,-15154,-2,756,-4688,23,-88,-39,34
302,-15168,-16,766,-4687,23,-87,-40,34
303,-15170,-14,736,-4683,23,-87,-39,34
304,-15156,-8,750,-4683,23,-88,-38,34
305,-15154,-24,740,-4682,23,-88,-39,33
306,-15156,-20,722,-4686,23,-88,-38,35
307,-15132,-28,732,-4684,23,-87,-39,35
308,-15146,-4,730,-4684,23,-88,-38,35
309,-15158,6,746,-4685,23,-87,-39,35
310,-15156,-22,750,-4687,23,-88,-37,35
311,-15140,-16,746,-4684,23,-87,-37,35
312,-15144,4,736,-4684,23,-88,-37,34
313,-15154,0,756,-4685,23,-88,-38,34
314,-15158,6,772,-4680,23,-88,-38,35
315,-15168,-2,758,-4680,23,-87,-38,34
316,-15172,-14,754,-4680,23,-88,-39,34
317,-15158,-24,766,-4681,23,-88,-38,34
318,-15178,-24,772,-4677,23,-88,-39,34
319,-15172,-30,768,-4677,23,-87,-39,34
320,-15156,-20,744,-4675,23,-87,-40,35
321,-15156,-4,734,-4676,23,-87,-38,35
322,-15168,-10,714,-4679,23,-86,-38,35
323,-15158,-28,726,-4681,23,-87,-38,35
324,-15176,-28,740,-4685,23,-88,-38,34
325,-15172,-24,744,-4685,23,-88,-39,34
326,-15156,-20,724,-4680,23,-87,-39,35
327,-15158,-8,724,-4683,23,-87,-39,35
328,-15168,2,744,-4681,23,-86,-39,35
329,-15146,-2,744,-4679,23,-87,-39,34
330,-15158,4,744,-4682,23,-88,-39,35
331,-15166,8,766,-4679,23,-87,-39,35
332,-15180,8,748,-4678,23,-88,-40,35
333,-15174,-2,744,-4676,23,-88,-38,35
334,-15172,-2,738,-4676,23,-88,-39,35
335,-15142,-6,750,-4675,23,-86,-39,35
336,-15142,2,746,-4676,23,-87,-39,34
337,-15150,4,746,-4678,23,-88,-39,35
338,-15146,10,756,-4679,23,-88,-39,35
339,-15148,-10,772,-4680,23,-87,-39,34
340,-15158,-6,774,-4676,23,-88,-40,35
341,-15150,-18,762,-4678,23,-87,-40,35
342,-15156,-14,770,-4680,23,-87,-39,34
343,-15186,4,752,-4679,23,-88,-38,35
344,-15184,14,760,-4677,23,-88,-39,35
345,-15170,0,736,-4676,23,-87,-37,34
346,-15166,4,746,-4678,23,-87,-37,34
347,-15146,12,756,-4678,23,-88,-37,34
348,-15156,4,756,-4678,23,-87,-37,36
349,-15162,4,764,-4677,23,-87,-38,36
350,-15146,-4,764,-4679,23,-87,-37,36
351,-15150,-16,762,-4677,23,-87,-36,35
352,-15150,-24,744,-4679,23,-87,-37,35
353,-15160,-10,728,-4683,23,-88,-38,34
354,-15152,-18,738,-4681,23,-88,-38,35
355,-15166,-8,742,-4682,23,-87,-37,35
356,-15166,-14,754,-4684,23,-87,-38,34
357,-15160,10,728,-4681,23,-86,-38,33
358,-15162,2,720,-4681,23,-87,-37,34
359,-15170,-12,756,-4679,23,-86,-38,34
360,-15172,-10,754,-4678,23,-86,-39,35
361,-15194,-14,736,-4680,23,-86,-39,35
362,-15150,-16,738,-4681,23,-87,-39,35
363,-15150,-10,724,-4677,23,-87,-38,34
364,-15148,4,744,-4680,23,-87,-39,35
365,-15140,4,748,-4677,23,-87,-39,36
366,-15150,-4,732,-4677,23,-87,-40,35
367,-15148,-16,746,-4679,23,-87,-40,36
368,-15168,-12,768,-4677,23,-89,-40,34
369,-15168,-10,750,-4676,23,-88,-39,35
370,-15158,-2,756,-4677,23,-88,-39,35
371,-15160,-2,760,-4677,23,-87,-39,34
372,-15160,6,770,-4676,23,-87,-38,34
373,-15164,14,746,-4678,23,-87,-38,34
374,-15158,10,738,-4679,23,-87,-39,35
375,-15160,-4,728,-4681,23,-87,-39,34
376,-15164,-4,700,-4681,23,-87,-38,35
377,-15166,2,726,-4676,23,-88,-38,36
378,-15178,0,730,-4681,23,-88,-38,36
379,-15138,14,732,-4678,23,-88,-37,35
380,-15118,16,740,-4680,23,-88,-37,35
381,-15152,0,742,-4682,23,-87,-37,34
382,-15162,14,756,-4680,23,-87,-38,34
383,-15148,-4,750,-4680,23,-86,-38,34
384,-15170,-26,768,-4680,23,-87,-38,34
385,-15160,-12,752,-4678,23,-87,-39,34
386,-15156,-10,740,-4681,23,-87,-39,34
387,-15142,-20,786,-4679,23,-87,-38,34
388,-15148,-14,756,-4679,23,-87,-38,34
389,-15166,-16,752,-4676,23,-87,-38,35
390,-15150,-6,734,-4678,23,-87,-38,35
391,-15136,-18,750,-4680,23,-87,-39,35
392,-15128,-12,774,-4679,23,-87,-38,35
393,-15132,-12,774,-4680,23,-87,-38,35
394,-15146,0,758,-4678,23,-87,-38,34
395,-15152,-10,758,-4681,23,-87,-39,35
396,-15152,-8,740,-4681,23,-87,-39,35
397,-15152,-12,744,-4682,23,-86,-38,34
398,-15160,-8,742,-4680,23,-86,-39,35
399,-15152,-22,744,-4678,23,-88,-39,36
400,-15134,-46,746,-4680,23,-87,-40,35
401,-15146,-32,754,-4680,23,-87,-39,35
402,-15148,-30,756,-4678,23,-88,-39,36
403,-15132,-22,724,-4680,23,-87,-39,36
404,-15134,2,730,-4679,23,-88,-39,35
405,-15152,-2,712,-4677,23,-87,-38,34
406,-15162,-4,742,-4679,23,-86,-39,35
407,-15152,4,746,-4680,23,-87,-38,35
408,-15156,-16,728,-4677,23,-88,-38,36
409,-15168,8,760,-4675,23,-88,-38,36
410,-15174,-2,760,-4675,23,-87,-37,36
411,-15148,-20,764,-4674,23,-88,-38,35
412,-15148,-6,726,-4676,23,-88,-38,35
413,-15152,-10,716,-4674,23,-87,-38,36
414,-15144,-18,722,-4674,23,-86,-38,36
415,-15138,-8,744,-4672,23,-88,-40,35
416,-15154,-6,758,-4671,23,-87,-39,34
417,-15164,12,768,-4674,23,-88,-40,34
418,-15160,-8,760,-4675,23,-89,-39,34
419,-15162,-16,738,-4674,23,-88,-39,34
420,-15168,-6,762,-4676,23,-88,-39,34
421,-15154,-4,762,-4676,23,-88,-37,34
422,-15158,-22,748,-4678,23,-87,-37,35
423,-15156,-24,744,-4673,23,-86,-37,33
424,-15162,-36,734,-4674,23,-86,-38,34
425,-15160,-20,736,-4673,23,-86,-37,34
426,-15156,-8,744,-4674,23,-86,-37,35
427,-15150,-12,772,-4674,23,-86,-39,34
428,-15154,-24,788,-4675,23,-88,-38,34
429,-15162,-24,764,-4676,23,-87,-39,34
430,-15156,0,746,-4673,23,-87,-40,34
431,-15154,0,754,-4673,23,-87,-40,35
432,-15154,-18,746,-4671,23,-88,-39,34
433,-15156,-20,726,-4671,23,-88,-39,34
434,-15150,-14,720,-4672,23,-88,-37,35
435,-15156,-6,738,-4667,23,-87,-38,35
436,-15154,-16,758,-4670,23,-85,-39,35
437,-15150,-12,750,-4668,23,-86,-38,35
438,-15160,-18,746,-4670,23,-87,-38,34
439,-15164,-46,762,-4671,23,-87,-38,35
440,-15146,-44,760,-4669,23,-87,-38,35
441,-15140,-32,748,-4672,23,-87,-38,35
442,-15142,-20,744,-4672,23,-87,-38,36
443,-15144,-4,740,-4673,23,-88,-37,35
444,-15154,-22,744,-4672,23,-87,-38,35
445,-15154,-30,742,-4674,23,-88,-38,34
446,-15158,-20,764,-4672,23,-88,-36,35
447,-15134,-12,744,-4671,23,-88,-36,35
448,-15162,-16,724,-4676,23,-88,-36,34
449,-15162,-14,724,-4672,23,-88,-38,34
450,-15132,-14,736,-4676,23,-89,-38,34
451,-15140,-2,740,-4675,23,-88,-39,35
452,-15148,22,760,-4670,23,-88,-39,34
453,-15160,4,744,-4672,23,-87,-40,34
454,-15158,-12,746,-4672,23,-88,-39,35
455,-15164,0,774,-4672,23,-88,-39,36
456,-15160,-4,762,-4669,23,-87,-39,35
457,-15168,-6,748,-4666,23,-87,-38,35
458,-15166,4,758,-4667,23,-88,-38,35
459,-15154,4,732,-4669,23,-87,-38,35
460,-15164,10,756,-4672,23,-88,-39,34
461,-15164,10,746,-4673,23,-87,-39,34
462,-15144,-4,748,-4671,23,-88,-39,35
463,-15166,0,720,-4667,23,-89,-39,35
464,-15142,-8,718,-4671,23,-88,-39,35
465,-15156,0,752,-4672,23,-88,-39,35
466,-15168,-12,744,-4674,23,-89,-38,35
467,-15154,2,708,-4674,23,-88,-39,35
468,-15150,4,726,-4673,23,-88,-40,35
469,-15152,8,744,-4669,23,-88,-39,35
470,-15160,-2,744,-4668,23,-87,-39,35
471,-15156,-10,746,-4666,23,-87,-39,36
472,-15138,-32,746,-4665,23,-87,-39,35
473,-15148,-26,750,-4666,23,-87,-39,35
474,-15154,-18,756,-4668,23,-87,-39,35
475,-15150,-16,748,-4668,23,-88,-40,35
476,-15130,-22,740,-4669,23,-88,-40,34
477,-15136,-18,734,-4667,23,-87,-39,34
478,-15138,-6,736,-4670,23,-87,-39,34
479,-15140,-20,776,-4672,23,-86,-39,34
480,-15136,-14,786,-4671,23,-87,-37,34
481,-15146,-12,780,-4674,23,-87,-38,34
482,-15160,0,742,-4674,23,-87,-38,34
483,-15154,6,716,-4671,23,-86,-40,35
484,-15152,-10,732,-4668,23,-87,-39,35
485,-15164,-18,732,-4668,23,-87,-37,35
486,-15162,-36,766,-4668,23,-88,-38,34
487,-15166,-10,756,-4667,23,-88,-38,34
488,-15154,-14,746,-4668,23,-87,-37,34
489,-15164,-2,740,-4668,23,-87,-38,35
490,-15168,-16,730,-4670,23,-87,-38,34
491,-15154,-12,718,-4671,23,-87,-38,34
492,-15154,-34,734,-4671,23,-87,-37,35
493,-15160,-32,720,-4669,23,-87,-38,35
494,-15168,-24,742,-4670,23,-86,-38,34
495,-15172,-22,728,-4668,23,-87,-38,35
496,-15158,-18,738,-4669,23,-88,-38,34
497,-15158,-10,778,-4671,23,-86,-39,34
498,-15138,-2,780,-4675,23,-87,-38,35
499,-15134,4,768,-4675,23,-86,-38,35
500,-15146,-4,734,-4673,23,-87,-39,35
501,-15144,-14,724,-4673,23,-88,-39,34
502,-15156,-8,738,-4673,23,-87,-38,34
503,-15158,-14,734,-4676,23,-88,-38,35
504,-15158,10,736,-4674,23,-88,-38,34
505,-15164,10,712,-4675,23,-88,-39,35
506,-15162,6,744,-4673,23,-89,-40,36
507,-15156,-8,752,-4672,23,-88,-40,36
508,-15156,-6,776,-4672,23,-88,-40,35
509,-15164,-2,780,-4670,23,-88,-38,35
510,-15150,-2,762,-4673,23,-88,-38,34
511,-15174,-2,734,-4673,23,-89,-38,35
512,-15160,-10,732,-4673,23,-88,-38,35
513,-15172,-12,768,-4672,23,-87,-38,35
514,-15152,6,776,-4670,23,-87,-38,34
515,-15152,2,766,-4670,23,-87,-39,36
516,-15134,-10,758,-4668,23,-87,-38,34
517,-15138,-30,780,-4670,23,-86,-39,35
518,-15136,-10,762,-4670,23,-86,-39,34
519,-15158,-4,762,-4671,23,-87,-39,34
520,-15150,6,768,-4670,23,-87,-38,34
521,-15154,32,766,-4670,23,-87,-37,35
522,-15140,22,732,-4671,23,-88,-38,35
523,-15148,2,748,-4668,23,-88,-39,34
524,-15146,-8,754,-4670,23,-88,-40,35
525,-15146,-16,744,-4670,23,-88,-39,35
526,-15146,-20,740,-4669,23,-87,-38,34
527,-15128,-22,760,-4666,23,-87,-38,33
528,-15142,-38,776,-4666,23,-87,-37,33
529,-15146,-26,782,-4665,23,-87,-37,34
530,-15160,-42,730,-4664,23,-87,-39,35
531,-15166,-34,730,-4665,23,-88,-38,34
532,-15180,-32,740,-4667,23,-87,-38,34
533,-15152,-24,734,-4668,23,-88,-38,34
534,-15144,-22,740,-4667,23,-87,-39,34
535,-15150,-34,744,-4671,23,-87,-38,35
536,-15158,-14,758,-4674,23,-87,-40,35
537,-15162,-18,756,-4669,23,-86,-40,35
538,-15156,-22,766,-4669,23,-86,-39,35
539,-15152,-26,786,-4668,23,-87,-40,34
540,-15142,-24,790,-4670,23,-87,-39,36
541,-15146,-24,772,-4666,23,-87,-37,35
542,-15140,-22,728,-4666,23,-87,-37,35
543,-15142,6,728,-4668,23,-87,-37,34
544,-15136,-12,716,-4668,23,-87,-37,34
545,-15134,-8,724,-4666,23,-87,-38,35
546,-15142,-18,738,-4665,23,-87,-39,35
547,-15136,0,738,-4666,23,-87,-39,35
548,-15138,-4,738,-4667,23,-87,-39,35
549,-15164,-18,744,-4666,23,-87,-39,34
550,-15178,-10,728,-4670,23,-87,-38,35
551,-15156,0,736,-4670,23,-87,-38,34
552,-15158,2,736,-4671,23,-88,-37,33
553,-15142,-6,738,-4670,23,-87,-38,33
554,-15120,-10,758,-4669,23,-87,-38,34
555,-15152,-28,782,-4667,23,-87,-38,34
556,-15138,-22,766,-4668,23,-88,-39,34
557,-15156,-2,750,-4666,23,-88,-39,33
558,-15156,-24,730,-4664,23,-87,-39,34
559,-15154,-6,748,-4666,23,-87,-38,34
560,-15166,-6,752,-4669,23,-86,-39,35
561,-15176,-14,730,-4665,23,-86,-38,36
562,-15160,-12,740,-4666,23,-86,-39,35
563,-15154,6,746,-4665,23,-86,-38,34
564,-15154,-8,752,-4666,23,-87,-39,34
565,-15126,-14,748,-4669,23,-87,-38,34
566,-15144,-12,762,-4670,23,-86,-38,34
567,-15146,4,776,-4669,23,-86,-38,35
568,-15154,-18,764,-4666,23,-87,-38,35
569,-15142,-14,752,-4667,23,-88,-39,35
570,-15140,-4,756,-4665,23,-87,-39,35
571,-15150,-12,768,-4665,23,-88,-39,35
572,-15148,-12,788,-4665,23,-88,-39,35
573,-15160,-20,766,-4665,23,-87,-39,34
574,-15158,-16,748,-4666,23,-88,-39,35
575,-15152,-18,754,-4666,23,-88,-38,35
576,-15160,-4,748,-4667,23,-88,-38,34
577,-15156,-18,752,-4668,23,-88,-38,35
578,-15160,-18,760,-4667,23,-89,-39,36
579,-15146,-16,760,-4665,23,-88,-38,34
580,-15158,-18,768,-4666,23,-86,-38,34
581,-15164,-28,746,-4668,23,-87,-38,34
582,-15176,-12,726,-4668,23,-87,-38,35
583,-15174,-16,726,-4666,23,-87,-38,35
584,-15176,-8,758,-4665,23,-87,-37,36
585,-15170,-8,748,-4665,23,-88,-38,35
586,-15166,-4,752,-4666,23,-88,-37,35
587,-15174,2,738,-4665,23,-88,-38,35
588,-15166,-14,756,-4667,23,-87,-39,34
589,-15148,-14,748,-4664,23,-88,-40,34
590,-15164,-24,772,-4664,23,-88,-39,34
591,-15138,-18,752,-4664,23,-88,-38,33
592,-15144,-26,772,-4663,23,-87,-39,33
593,-15166,-22,748,-4661,23,-86,-39,35
594,-15158,-26,746,-4665,23,-87,-39,34
595,-15150,-2,730,-4666,23,-87,-39,34
596,-15140,12,742,-4667,23,-88,-38,34
597,-15154,-4,774,-4665,23,-88,-38,34
598,-15158,-12,760,-4666,23,-87,-39,36
599,-15144,-12,750,-4667,23,-86,-38,34
600,-15148,-14,762,-4668,23,-87,-38,34
601,-15164,-30,774,-4665,23,-87,-38,34
602,-15148,-2,774,-4666,23,-87,-37,34
603,-15136,20,772,-4666,23,-87,-37,35
604,-15158,6,772,-4666,23,-87,-37,34
605,-15138,-10,776,-4665,23,-87,-39,35
606,-15144,-20,772,-4663,23,-86,-39,35
607,-15162,-24,752,-4665,23,-87,-39,35
608,-15146,-10,718,-4663,23,-87,-38,35
609,-15136,-8,738,-4662,23,-88,-37,35
610,-15140,4,734,-4665,23,-88,-38,35
611,-15154,-26,738,-4662,23,-89,-38,35
612,-15148,-28,756,-4667,23,-88,-38,35
613,-15154,-20,758,-4671,23,-87,-39,34
614,-15150,-26,754,-4665,23,-87,-38,34
615,-15158,-32,752,-4665,23,-88,-39,34
616,-15144,-20,754,-4668,23,-87,-38,34
617,-15156,-16,752,-4667,23,-87,-37,35
618,-15150,-12,734,-4660,23,-88,-37,35
619,-15140,-16,738,-4661,23,-87,-38,35
620,-15140,-8,748,-4662,23,-88,-37,35
621,-15170,-12,780,-4661,23,-87,-37,35
622,-15174,-14,766,-4662,23,-87,-39,34
623,-15170,-6,736,-4663,23,-87,-38,34
624,-15146,-6,760,-4663,23,-87,-38,34
625,-15144,-12,760,-4666,23,-88,-38,34
626,-15140,-8,740,-4664,23,-87,-39,35
627,-15170,-16,746,-4666,23,-86,-38,36
628,-15164,-22,760,-4666,23,-86,-38,35
629,-15170,-16,774,-4669,23,-86,-39,35
630,-15160,-10,760,-4667,23,-87,-40,35
631,-15156,-28,752,-4666,23,-86,-39,34
632,-15160,-34,724,-4662,23,-87,-39,34
633,-15162,-20,762,-4665,23,-88,-37,34
634,-15168,-4,788,-4664,23,-87,-38,34
635,-15172,-8,762,-4664,23,-86,-38,35
636,-15164,-12,756,-4664,23,-87,-37,34
637,-15164,-6,766,-4663,23,-87,-38,34
638,-15150,-8,738,-4661,23,-86,-39,34
639,-15142,-6,750,-4663,23,-87,-39,35
640,-15144,-12,770,-4664,23,-88,-40,34
641,-15142,4,762,-4665,23,-88,-40,34
642,-15152,-10,736,-4664,23,-88,-39,34
643,-15174,-4,744,-4663,23,-88,-38,34
644,-15166,0,776,-4664,23,-88,-38,34
645,-15154,0,776,-4666,23,-88,-38,35
646,-15170,0,758,-4667,23,-89,-38,35
647,-15166,-4,764,-4666,23,-88,-38,35
648,-15160,0,784,-4660,23,-89,-39,34
649,-15156,-10,774,-4662,23,-89,-38,35
650,-15144,-2,802,-4661,23,-88,-38,34
651,-15152,-8,808,-4659,23,-88,-39,34
652,-15138,-20,796,-4655,23,-88,-39,35
653,-15154,-18,764,-4657,23,-87,-39,35
654,-15146,-18,766,-4659,23,-87,-39,34
655,-15154,-12,768,-4659,23,-87,-38,34
656,-15150,2,738,-4663,23,-88,-39,34
657,-15146,-12,756,-4661,23,-87,-38,34
658,-15134,-22,756,-4663,23,-87,-38,35
659,-15140,-12,736,-4662,23,-87,-37,34
660,-15158,-8,720,-4661,23,-88,-37,33
661,-15148,2,722,-4659,23,-89,-38,34
662,-15156,2,718,-4658,23,-89,-37,34
663,-15154,12,704,-4658,23,-89,-36,34
664,-15142,12,720,-4663,23,-89,-37,35
665,-15144,-26,748,-4664,23,-88,-38,35
666,-15152,-20,732,-4665,23,-88,-38,35
667,-15142,-16,716,-4663,23,-87,-39,35
668,-15146,-20,770,-4664,23,-87,-39,34
669,-15146,-4,764,-4663,23,-88,-38,34
670,-15152,-4,772,-4661,23,-87,-38,34
671,-15154,8,748,-4657,23,-87,-38,34
672,-15164,-6,754,-4659,23,-88,-39,34
673,-15152,-8,762,-4661,23,-88,-38,34
674,-15152,-20,772,-4661,23,-88,-38,34
675,-15166,-14,794,-4662,23,-88,-38,34
676,-15152,-16,776,-4661,23,-88,-38,34
677,-15168,6,790,-4661,23,-88,-39,34
678,-15162,-6,802,-4659,23,-88,-38,34
679,-15164,-14,784,-4658,23,-88,-39,35
680,-15138,0,758,-4659,23,-88,-39,35
681,-15160,-2,750,-4659,23,-88,-38,35
682,-15144,-4,756,-4661,23,-88,-38,35
683,-15158,0,750,-4664,23,-88,-38,36
684,-15168,-4,776,-4660,23,-88,-39,35
685,-15148,-8,772,-4659,23,-88,-39,34
686,-15160,-14,788,-4662,23,-87,-39,35
687,-15162,-18,796,-4663,23,-87,-39,35
688,-15148,-18,782,-4659,23,-88,-39,35
689,-15132,-18,794,-4659,23,-87,-39,34
690,-15150,-22,766,-4660,23,-86,-40,34
691,-15144,-20,774,-4661,23,-88,-41,33
692,-15154,-26,766,-4661,23,-89,-41,33
693,-15142,-30,746,-4664,23,-88,-41,34
694,-15154,-16,750,-4661,23,-87,-40,35
695,-15170,-26,764,-4662,23,-87,-40,35
696,-15178,-26,772,-4662,23,-87,-39,34
697,-15162,-24,776,-4659,23,-88,-38,34
698,-15142,-22,788,-4658,23,-87,-37,34
699,-15160,-20,766,-4653,23,-87,-39,35
700,-15156,-14,754,-4654,23,-87,-39,35
701,-15174,-30,744,-4658,23,-87,-38,35
702,-15160,-10,738,-4656,23,-87,-37,34
703,-15156,-10,714,-4658,23,-87,-37,34
704,-15166,4,720,-4661,23,-88,-39,35
705,-15138,-14,746,-4660,23,-87,-38,34
706,-15148,-16,752,-4664,23,-88,-38,34
707,-15148,-12,742,-4661,23,-87,-39,34
708,-15144,-10,762,-4661,23,-86,-38,33
709,-15144,-24,754,-4664,23,-87,-39,33
710,-15148,-6,752,-4665,23,-87,-38,33
711,-15142,0,742,-4662,23,-88,-39,34
712,-15156,0,732,-4660,23,-88,-39,35
713,-15156,-4,738,-4659,23,-88,-40,35
714,-15160,10,726,-4657,23,-87,-39,35
715,-15148,-12,746,-4659,23,-88,-40,34
716,-15156,-12,740,-4659,23,-88,-39,34
717,-15170,-18,738,-4660,23,-86,-38,34
718,-15170,-18,752,-4657,23,-86,-38,34
719,-15174,-22,748,-4657,23,-88,-38,34
720,-15164,-14,758,-4656,23,-87,-39,33
721,-15168,-2,732,-4658,23,-88,-39,33
722,-15178,2,746,-4659,23,-88,-39,33
723,-15156,6,746,-4659,23,-88,-37,34
724,-15156,2,760,-4660,23,-87,-37,35
725,-15158,-16,740,-4659,23,-86,-38,34
726,-15146,-16,730,-4659,23,-87,-38,35
727,-15138,-2,738,-4657,23,-87,-38,36
728,-15146,8,754,-4660,23,-87,-38,35
729,-15148,-8,726,-4658,23,-88,-37,36
730,-15142,-8,754,-4660,23,-89,-37,35
731,-15150,-24,758,-4658,23,-88,-38,35
732,-15162,-14,758,-4663,23,-87,-38,36
733,-15156,-4,772,-4660,23,-86,-38,35
734,-15152,-12,768,-4660,23,-88,-39,35
735,-15146,-22,768,-4663,23,-87,-38,35
736,-15174,-14,762,-4664,23,-87,-39,35
737,-15158,-18,756,-4662,23,-87,-39,34
738,-15156,-14,754,-4662,23,-86,-39,35
739,-15138,-30,758,-4661,23,-87,-39,35
740,-15138,-26,766,-4663,23,-86,-39,35
741,-15150,-24,760,-4660,23,-86,-39,35
742,-15154,-8,760,-4660,23,-86,-38,34
743,-15144,-14,756,-4659,23,-87,-38,34
744,-15150,-14,744,-4658,23,-87,-39,34
745,-15142,0,770,-4658,23,-87,-38,35
746,-15152,8,770,-4656,23,-87,-39,35
747,-15172,8,770,-4657,23,-86,-39,35
748,-15178,-16,764,-4656,23,-87,-38,35
749,-15148,-18,768,-4654,23,-88,-37,34
750,-15158,-22,762,-4655,23,-87,-38,34
751,-15146,-32,754,-4653,23,-88,-38,35
752,-15152,-34,740,-4656,23,-87,-39,35
753,-15136,-16,756,-4657,23,-87,-38,35
754,-15136,-8,750,-4659,23,-87,-38,35
755,-15132,8,754,-4659,23,-88,-37,35
756,-15140,10,744,-4658,23,-88,-39,35
757,-15154,16,750,-4659,23,-87,-39,35
758,-15146,22,740,-4658,23,-88,-39,34
759,-15126,14,766,-4658,23,-89,-38,34
760,-15126,-2,732,-4660,23,-88,-39,35
761,-15144,8,742,-4660,23,-87,-37,35
762,-15142,0,718,-4659,23,-88,-38,35
763,-15142,0,720,-4659,23,-89,-39,35
764,-15162,-6,754,-4662,23,-88,-39,35
765,-15174,-8,756,-4660,23,-87,-39,34
766,-15156,-18,746,-4659,23,-87,-37,34
767,-15148,-26,744,-4658,23,-89,-38,34
768,-15160,-22,748,-4662,23,-88,-39,34
769,-15138,0,770,-4659,23,-89,-38,34
770,-15140,-2,762,-4661,23,-89,-38,34
771,-15134,-8,762,-4658,23,-88,-39,35
772,-15136,-10,740,-4657,23,-88,-37,34
773,-15132,-20,724,-4657,23,-88,-37,34
774,-15128,-10,752,-4656,23,-88,-37,34
775,-15148,4,760,-4654,23,-87,-36,35
776,-15152,-6,732,-4654,23,-88,-37,34
777,-15154,-18,724,-4651,23,-88,-38,34
778,-15136,-14,746,-4654,23,-87,-38,36
779,-15142,-4,742,-4656,23,-88,-37,35
780,-15140,-12,762,-4660,23,-88,-36,34
781,-15156,-8,758,-4660,23,-88,-36,34
782,-15152,-14,760,-4661,23,-88,-37,34
783,-15152,-14,758,-4658,23,-87,-37,35
784,-15148,-18,764,-4657,23,-88,-39,34
785,-15142,-6,770,-4661,23,-88,-38,34
786,-15164,-10,764,-4658,23,-87,-39,34
787,-15162,-20,786,-4655,23,-86,-40,34
788,-15162,6,780,-4656,23,-86,-39,35
789,-15158,-32,746,-4655,23,-87,-40,35
790,-15172,-22,768,-4658,23,-86,-39,34
791,-15184,-22,740,-4656,23,-87,-38,34
792,-15178,-30,720,-4656,23,-87,-38,35
793,-15160,-20,730,-4656,23,-87,-38,34
794,-15142,-34,752,-4658,23,-87,-38,34
795,-15122,-26,762,-4660,23,-87,-38,34
796,-15134,-20,752,-4660,23,-87,-38,35
797,-15142,-8,760,-4661,23,-87,-38,35
798,-15148,-8,736,-4657,23,-87,-38,34
799,-15156,-22,720,-4656,23,-87,-38,34
800,-15140,-20,740,-4657,23,-88,-38,34
801,-15146,0,738,-4656,23,-88,-37,34
802,-15138,-8,712,-4656,23,-88,-38,35
803,-15136,0,744,-4656,23,-87,-39,34
804,-15146,-10,736,-4657,23,-87,-38,34
805,-15132,12,754,-4656,23,-87,-38,36
806,-15162,4,760,-4656,23,-85,-38,35
807,-15164,-4,768,-4656,23,-87,-38,35
808,-15168,-8,738,-4656,23,-87,-37,35
809,-15162,-16,726,-4657,23,-88,-38,35
810,-15162,-20,754,-4659,23,-88,-37,34
811,-15150,-14,768,-4660,23,-88,-38,35
812,-15144,-22,784,-4657,23,-88,-39,35
813,-15148,-20,794,-4657,23,-88,-39,34
814,-15152,-16,800,-4655,23,-88,-39,35
815,-15162,-10,772,-4658,23,-87,-39,34
816,-15156,-16,742,-4657,23,-86,-38,34
817,-15146,10,754,-4653,23,-87,-38,34
818,-15152,-6,746,-4653,23,-87,-38,34
819,-15136,-8,756,-4654,23,-88,-38,34
820,-15134,2,770,-4655,23,-87,-38,34
821,-15146,-4,754,-4654,23,-88,-39,34
822,-15144,-8,778,-4651,23,-87,-40,34
823,-15160,-26,762,-4651,23,-87,-39,35
824,-15146,-16,748,-4651,23,-88,-38,34
825,-15146,-10,752,-4655,23,-88,-38,35
826,-15154,-12,736,-4652,23,-89,-38,34
827,-15162,-20,730,-4652,23,-88,-39,34
828,-15160,-34,744,-4652,23,-87,-40,35
829,-15150,-26,738,-4652,23,-86,-39,35
830,-15144,-32,770,-4652,23,-87,-39,35
831,-15156,-8,758,-4649,23,-86,-38,34
832,-15172,2,786,-4649,23,-85,-37,34
833,-15178,2,776,-4654,23,-88,-38,34
834,-15178,-2,780,-4653,23,-88,-38,34
835,-15172,-16,764,-4653,23,-88,-38,35
836,-15158,-30,760,-4651,23,-87,-38,36
837,-15152,-14,756,-4652,23,-87,-39,36
838,-15162,-26,738,-4651,23,-88,-38,36
839,-15164,-14,732,-4654,23,-88,-38,35
840,-15152,-12,764,-4653,23,-88,-38,35
841,-15166,-10,778,-4653,23,-88,-37,34
842,-15164,-10,774,-4653,23,-89,-38,34
843,-15158,-10,740,-4651,23,-87,-39,34
844,-15164,-24,724,-4653,23,-87,-39,34
845,-15154,-8,706,-4653,23,-87,-38,34
846,-15154,-18,722,-4653,23,-88,-40,34
847,-15130,-22,730,-4650,23,-88,-40,35
848,-15150,-8,738,-4652,23,-87,-39,34
849,-15152,-2,770,-4649,23,-87,-39,35
850,-15162,4,738,-4651,23,-86,-39,35
851,-15158,12,732,-4651,23,-87,-39,35
852,-15148,0,752,-4651,23,-87,-39,35
853,-15142,-6,756,-4649,23,-86,-39,34
854,-15150,-8,738,-4649,23,-87,-39,34
855,-15148,6,752,-4650,23,-87,-40,33
856,-15160,0,760,-4652,23,-88,-38,34
857,-15166,-12,774,-4651,23,-88,-38,32
858,-15152,-14,786,-4650,23,-89,-38,33
859,-15152,0,806,-4649,23,-87,-38,34
860,-15154,-8,766,-4654,23,-87,-39,35
861,-15138,-6,776,-4651,23,-88,-38,34
862,-15152,-18,748,-4651,23,-88,-38,34
863,-15150,-2,756,-4650,23,-87,-38,35
864,-15154,-6,760,-4650,23,-88,-37,33
865,-15140,-14,738,-4650,23,-88,-39,35
866,-15130,-8,736,-4651,23,-87,-39,34
867,-15140,-10,766,-4652,23,-86,-38,35
868,-15160,-4,752,-4652,23,-86,-37,35
869,-15146,-28,734,-4651,23,-86,-38,36
870,-15146,-26,770,-4651,23,-87,-38,34
871,-15136,-32,720,-4650,23,-87,-37,35
872,-15148,-20,720,-4652,23,-87,-37,34
873,-15154,0,724,-4650,23,-87,-38,33
874,-15140,-16,728,-4648,23,-87,-39,35
875,-15140,-22,744,-4651,23,-87,-39,35
876,-15134,-38,750,-4653,23,-88,-40,34
877,-15134,-32,746,-4652,23,-88,-38,34
878,-15138,-24,774,-4652,23,-88,-39,33
879,-15154,-22,766,-4652,23,-88,-39,33
880,-15154,-38,736,-4654,23,-88,-39,34
881,-15146,-46,756,-4650,23,-88,-38,35
882,-15156,-20,780,-4649,23,-89,-38,35
883,-15152,-14,782,-4647,23,-88,-37,33
884,-15158,-14,752,-4650,23,-88,-38,34
885,-15158,0,752,-4650,23,-87,-38,34
886,-15152,-8,754,-4649,23,-87,-40,34
887,-15164,-2,744,-4649,23,-87,-40,35
888,-15154,-12,742,-4650,23,-87,-39,35
889,-15164,-26,768,-4651,23,-88,-39,35
890,-15188,-22,756,-4652,23,-87,-39,35
891,-15172,-16,750,-4651,23,-87,-38,34
892,-15156,-20,778,-4652,23,-88,-37,34
893,-15162,2,794,-4655,23,-88,-38,34
894,-15150,-8,782,-4654,23,-88,-39,34
895,-15152,0,776,-4650,23,-88,-39,35
896,-15152,-10,760,-4650,23,-88,-39,34
897,-15156,-12,770,-4649,23,-88,-39,33
898,-15128,-10,768,-4653,23,-86,-39,34
899,-15126,-6,762,-4657,23,-85,-39,34
900,-15152,-12,770,-4655,23,-86,-39,35
901,-15134,-20,772,-4652,23,-86,-39,35
902,-15128,-12,764,-4648,23,-87,-39,35
903,-15138,0,756,-4649,23,-88,-38,35
904,-15140,-22,736,-4651,23,-88,-38,35
905,-15160,0,746,-4652,23,-89,-38,35
906,-15162,-20,766,-4654,23,-89,-38,35
907,-15180,-20,776,-4652,23,-89,-37,34
908,-15170,-16,770,-4652,23,-89,-38,34
909,-15164,-8,784,-4650,23,-89,-39,34
910,-15160,-24,780,-4648,23,-89,-37,34
911,-15164,-26,776,-4649,23,-89,-38,34
912,-15164,-20,768,-4651,23,-89,-39,34
913,-15182,-6,782,-4651,23,-88,-40,35
914,-15182,-4,778,-4649,23,-89,-39,36
915,-15174,-18,750,-4651,23,-88,-39,35
916,-15170,-20,746,-4648,23,-87,-39,34
917,-15152,-34,762,-4651,23,-88,-39,35
918,-15154,-28,756,-4649,23,-87,-39,35
919,-15162,-42,758,-4652,23,-88,-39,35
920,-15164,-10,752,-4650,23,-88,-39,34
921,-15156,-14,750,-4651,23,-88,-38,34
922,-15146,0,754,-4652,23,-88,-39,34
923,-15144,0,752,-4653,23,-87,-39,35
924,-15140,24,766,-4652,23,-87,-39,35
925,-15146,10,758,-4653,23,-87,-40,34
926,-15146,-8,760,-4653,23,-88,-38,34
927,-15136,-6,790,-4649,23,-87,-37,34
928,-15138,-34,776,-4648,23,-89,-37,34
929,-15162,-38,740,-4648,23,-89,-36,35
930,-15172,-40,766,-4649,23,-87,-37,35
931,-15164,-26,768,-4648,23,-87,-38,35
932,-15158,-22,770,-4649,23,-87,-38,35
933,-15160,-20,732,-4651,23,-88,-37,34
934,-15162,-22,732,-4654,23,-89,-37,34
935,-15152,-6,714,-4654,23,-88,-37,34
936,-15142,8,752,-4652,23,-88,-38,35
937,-15136,-2,760,-4652,23,-89,-38,34
938,-15146,14,756,-4651,23,-87,-38,34
939,-15146,10,748,-4651,23,-89,-39,34
940,-15154,-18,748,-4648,23,-89,-39,34
941,-15148,-20,746,-4652,23,-89,-38,34
942,-15154,-20,730,-4651,23,-88,-38,34
943,-15162,-6,730,-4648,23,-88,-38,34
944,-15160,-4,754,-4647,23,-87,-37,34
945,-15144,8,756,-4649,23,-87,-37,34
946,-15154,-8,762,-4647,23,-87,-37,34
947,-15162,-4,742,-4645,23,-87,-37,34
948,-15176,-30,736,-4647,23,-88,-37,35
949,-15152,-30,734,-4649,23,-88,-37,35
950,-15144,-30,752,-4646,23,-88,-38,35
951,-15150,-8,754,-4650,23,-89,-38,35
952,-15146,-28,766,-4651,23,-89,-38,35
953,-15146,-36,744,-4651,23,-88,-38,33
954,-15148,-44,748,-4650,23,-87,-38,34
955,-15150,-22,754,-4650,23,-86,-38,33
956,-15164,-14,740,-4650,23,-88,-38,34
957,-15154,-20,760,-4653,23,-88,-38,35
958,-15154,-24,740,-4650,23,-88,-38,35
959,-15150,-20,754,-4648,23,-89,-38,35
960,-15146,-14,782,-4649,23,-88,-37,36
961,-15156,-26,784,-4650,23,-89,-38,36
962,-15172,-28,780,-4650,23,-89,-38,35
963,-15158,-4,780,-4648,23,-89,-38,34
964,-15160,-6,772,-4649,23,-89,-38,35
965,-15166,-4,770,-4645,23,-87,-38,34
966,-15172,-24,806,-4651,23,-86,-38,35
967,-15164,-20,788,-4649,23,-87,-38,34
968,-15166,-16,750,-4651,23,-87,-39,35
969,-15158,-18,776,-4653,23,-87,-39,34
970,-15146,-14,784,-4652,23,-88,-38,34
971,-15156,4,774,-4652,23,-86,-38,35
972,-15158,-4,758,-4651,23,-87,-38,35
973,-15156,-12,746,-4654,23,-87,-37,35
974,-15144,-10,762,-4651,23,-87,-37,35
975,-15142,-6,742,-4649,23,-87,-38,34
976,-15138,-14,748,-4651,23,-88,-39,34
977,-15160,-12,742,-4647,23,-88,-39,35
978,-15152,10,770,-4652,23,-88,-39,35
979,-15136,0,754,-4648,23,-89,-39,34
980,-15132,-6,766,-4647,23,-88,-39,35
981,-15124,-12,756,-4647,23,-88,-39,34
982,-15154,-14,764,-4649,23,-87,-38,34
983,-15144,-10,756,-4648,23,-88,-38,35
984,-15148,-30,766,-4648,23,-88,-38,35
985,-15162,-40,782,-4646,23,-87,-38,35
986,-15152,-32,758,-4646,23,-87,-38,36
987,-15146,-42,754,-4648,23,-88,-38,36
988,-15138,-24,748,-4649,23,-88,-39,35
989,-15162,-12,762,-4649,23,-87,-38,35
990,-15178,-16,754,-4651,23,-88,-38,35
991,-15166,-20,754,-4648,23,-87,-39,35
992,-15154,-18,746,-4649,23,-88,-38,35
993,-15144,-28,744,-4648,23,-87,-38,34
994,-15142,-18,756,-4646,23,-88,-38,34
995,-15136,-16,776,-4644,23,-88,-38,35
