,acc_X,acc_Y,acc_Z,temp,tempC,gyr_X,gyr_Y,gyr_Z
0,-7583,-19,387,-4582,23,-349,-157,144
1,-7578,-14,376,-4578,23,-351,-159,141
2,-7574,-4,381,-4582,23,-351,-158,142
3,-7576,-7,375,-4582,23,-352,-156,142
4,-7577,-4,380,-4582,23,-353,-151,140
5,-7572,-8,378,-4582,23,-350,-151,139
6,-7580,-16,384,-4582,23,-350,-153,140
7,-7584,-10,366,-4581,23,-350,-153,137
8,-7585,-15,364,-4578,23,-347,-155,135
9,-7589,-9,365,-4577,23,-346,-156,137
10,-7588,-5,366,-4577,23,-347,-156,141
11,-7585,-10,381,-4576,23,-348,-155,139
12,-7581,3,373,-4575,23,-352,-154,140
13,-7572,-1,381,-4579,23,-355,-155,139
14,-7570,-10,384,-4574,23,-355,-154,137
15,-7565,-7,382,-4576,23,-354,-155,139
16,-7569,-8,389,-4577,23,-352,-153,142
17,-7574,-12,387,-4580,23,-352,-155,142
18,-7582,-2,373,-4580,23,-353,-153,144
19,-7574,-5,392,-4581,23,-352,-150,141
20,-7574,-4,374,-4577,23,-349,-154,140
21,-7576,-6,377,-4579,23,-349,-153,140
22,-7572,-1,360,-4579,23,-346,-155,138
23,-7574,-2,366,-4578,23,-348,-156,137
24,-7575,-2,369,-4578,23,-345,-160,139
25,-7574,1,373,-4579,23,-344,-157,143
26,-7582,-13,376,-4579,23,-343,-156,139
27,-7573,-14,372,-4578,23,-346,-156,138
28,-7574,-6,375,-4578,23,-346,-159,138
29,-7575,-3,374,-4577,23,-348,-157,138
30,-7575,0,372,-4579,23,-349,-157,140
31,-7575,-13,374,-4579,23,-350,-160,137
32,-7585,-2,382,-4581,23,-351,-157,135
33,-7582,-8,375,-4583,23,-353,-155,131
34,-7592,-14,377,-4580,23,-348,-154,135
35,-7585,-6,383,-4578,23,-351,-153,132
36,-7575,-11,369,-4579,23,-354,-156,135
37,-7572,-17,366,-4579,23,-352,-157,137
38,-7581,-3,376,-4580,23,-351,-157,136
39,-7586,-15,383,-4580,23,-353,-154,135
40,-7582,-12,372,-4580,23,-355,-156,139
41,-7581,-6,375,-4581,23,-351,-152,138
42,-7582,-11,377,-4583,23,-350,-152,134
43,-7578,-17,373,-4582,23,-351,-155,137
44,-7578,-10,381,-4581,23,-349,-156,133
45,-7578,-13,387,-4582,23,-349,-151,138
46,-7578,-10,394,-4580,23,-350,-152,139
47,-7581,-8,383,-4579,23,-352,-155,141
48,-7580,-8,368,-4578,23,-353,-156,138
49,-7579,-12,383,-4577,23,-352,-160,141
50,-7581,-7,376,-4580,23,-350,-157,142
51,-7582,-2,364,-4582,23,-353,-160,142
52,-7581,-12,373,-4578,23,-350,-153,141
53,-7581,-7,367,-4578,23,-348,-151,142
54,-7579,-16,375,-4580,23,-349,-154,141
55,-7577,-12,383,-4578,23,-348,-157,141
56,-7578,-7,360,-4579,23,-352,-154,140
57,-7582,-9,367,-4579,23,-350,-153,138
58,-7580,1,376,-4577,23,-352,-150,137
59,-7582,-10,373,-4575,23,-350,-155,139
60,-7588,-12,365,-4573,23,-348,-154,136
61,-7582,-17,372,-4577,23,-346,-152,139
62,-7575,-15,371,-4581,23,-346,-152,139
63,-7573,-17,366,-4579,23,-346,-153,137
64,-7575,-16,375,-4576,23,-351,-155,140
65,-7575,-8,380,-4577,23,-351,-154,138
66,-7579,-6,378,-4576,23,-354,-158,135
67,-7580,0,372,-4577,23,-352,-156,138
68,-7575,-2,365,-4580,23,-347,-156,139
69,-7586,-10,381,-4581,23,-345,-159,136
70,-7584,-12,391,-4581,23,-349,-160,140
71,-7577,-4,386,-4580,23,-349,-156,141
72,-7580,-4,384,-4579,23,-351,-154,141
73,-7585,-2,386,-4576,23,-353,-155,141
74,-7577,-6,376,-4575,23,-351,-156,142
75,-7585,-8,388,-4576,23,-352,-155,141
76,-7573,-11,379,-4578,23,-349,-152,147
77,-7574,-9,384,-4579,23,-356,-157,147
78,-7578,-5,380,-4577,23,-354,-157,147
79,-7585,-7,381,-4579,23,-354,-151,145
80,-7577,-10,373,-4577,23,-352,-155,142
81,-7574,-2,375,-4577,23,-350,-155,140
82,-7578,-1,375,-4578,23,-350,-156,136
83,-7571,-1,371,-4581,23,-348,-154,138
84,-7574,-8,368,-4580,23,-345,-152,137
85,-7566,-4,375,-4580,23,-349,-153,140
86,-7572,-3,379,-4579,23,-348,-153,137
87,-7564,-6,362,-4580,23,-352,-151,137
88,-7560,-1,365,-4579,23,-352,-149,137
89,-7563,4,359,-4579,23,-352,-159,137
90,-7571,-10,359,-4580,23,-351,-163,138
91,-7575,-14,374,-4581,23,-348,-157,141
92,-7581,-19,370,-4582,23,-349,-163,144
93,-7576,-16,365,-4580,23,-350,-159,142
94,-7569,-16,374,-4578,23,-347,-155,145
95,-7574,-12,380,-4582,23,-345,-156,145
96,-7581,-9,388,-4582,23,-353,-157,140
97,-7576,-3,399,-4577,23,-355,-159,138
98,-7573,-13,390,-4577,23,-352,-159,139
99,-7580,-2,387,-4576,23,-355,-156,140
100,-7575,-4,387,-4578,23,-350,-161,140
101,-7574,-8,390,-4578,23,-348,-159,139
102,-7577,-6,362,-4577,23,-349,-157,138
103,-7579,-2,362,-4579,23,-350,-157,139
104,-7580,-3,357,-4580,23,-347,-158,140
105,-7584,-1,354,-4578,23,-346,-162,143
106,-7584,-2,372,-4576,23,-349,-161,141
107,-7587,-5,370,-4578,23,-349,-161,139
108,-7582,-3,373,-4580,23,-351,-159,144
109,-7574,-7,383,-4580,23,-351,-159,139
110,-7576,-3,380,-4579,23,-346,-156,136
111,-7580,-10,375,-4579,23,-344,-154,135
112,-7572,-7,377,-4580,23,-348,-153,138
113,-7568,-17,385,-4577,23,-345,-155,137
114,-7573,-4,384,-4576,23,-349,-158,136
115,-7577,-3,369,-4577,23,-351,-157,138
116,-7579,0,369,-4576,23,-348,-159,135
117,-7581,8,377,-4575,23,-347,-156,140
118,-7581,-1,383,-4581,23,-346,-160,139
119,-7581,-5,392,-4583,23,-349,-158,137
120,-7578,3,391,-4583,23,-347,-157,138
121,-7583,-1,384,-4584,23,-347,-154,139
122,-7582,-8,377,-4585,23,-345,-156,136
123,-7585,-12,386,-4583,23,-345,-161,136
124,-7580,-13,379,-4579,23,-350,-158,133
125,-7577,-6,369,-4576,23,-351,-156,134
126,-7570,-3,359,-4578,23,-348,-157,137
127,-7572,4,372,-4577,23,-349,-154,134
128,-7571,-3,384,-4575,23,-350,-150,134
129,-7574,-7,393,-4577,23,-346,-152,133
130,-7575,-11,382,-4579,23,-347,-153,135
131,-7576,-11,385,-4582,23,-350,-152,130
132,-7571,-2,384,-4582,23,-349,-153,131
133,-7571,-3,384,-4579,23,-349,-154,134
134,-7576,-10,386,-4579,23,-348,-154,137
135,-7579,-10,382,-4578,23,-347,-153,141
136,-7577,-9,385,-4582,23,-348,-155,142
137,-7569,-6,402,-4581,23,-348,-154,140
138,-7575,-5,385,-4582,23,-352,-154,137
139,-7572,-4,373,-4581,23,-353,-158,139
140,-7576,-4,374,-4582,23,-351,-161,138
141,-7580,-1,374,-4580,23,-351,-156,138
142,-7576,-4,376,-4579,23,-348,-155,137
143,-7579,0,373,-4580,23,-344,-151,139
144,-7575,-1,379,-4580,23,-346,-155,139
145,-7574,-1,373,-4576,23,-349,-152,136
146,-7569,-8,374,-4576,23,-351,-151,140
147,-7571,-6,378,-4576,23,-353,-152,140
148,-7572,2,383,-4577,23,-351,-155,139
149,-7572,-7,385,-4577,23,-348,-155,141
150,-7581,-3,371,-4577,23,-345,-153,138
151,-7587,-13,372,-4578,23,-347,-153,143
152,-7584,-5,383,-4578,23,-348,-153,140
153,-7582,1,382,-4578,23,-355,-156,141
154,-7585,0,375,-4579,23,-351,-156,141
155,-7579,-6,378,-4582,23,-356,-151,144
156,-7577,-11,375,-4579,23,-353,-152,142
157,-7576,-10,384,-4580,23,-351,-156,140
158,-7578,-8,379,-4581,23,-353,-152,135
159,-7582,-1,385,-4583,23,-351,-150,134
160,-7580,-6,379,-4582,23,-350,-152,136
161,-7583,-7,383,-4588,23,-350,-157,138
162,-7589,-12,378,-4581,23,-348,-159,141
163,-7582,-5,391,-4581,23,-347,-161,141
164,-7581,-1,380,-4579,23,-351,-161,143
165,-7576,-6,384,-4582,23,-348,-156,144
166,-7580,-7,384,-4578,23,-349,-155,145
167,-7578,-3,377,-4579,23,-347,-154,145
168,-7583,-3,374,-4580,23,-347,-154,146
169,-7584,-1,369,-4577,23,-346,-151,141
170,-7588,-5,366,-4579,23,-350,-151,138
171,-7589,-7,372,-4575,23,-345,-154,140
172,-7582,-3,372,-4574,23,-345,-153,139
173,-7574,2,381,-4572,23,-345,-153,141
174,-7573,3,381,-4574,23,-350,-153,141
175,-7579,-5,389,-4576,23,-348,-153,144
176,-7584,-2,373,-4577,23,-349,-151,141
177,-7585,9,371,-4576,23,-348,-148,137
178,-7582,6,368,-4575,23,-349,-149,140
179,-7577,-6,363,-4577,23,-350,-150,141
180,-7568,-12,367,-4577,23,-348,-149,139
181,-7561,-14,369,-4578,23,-349,-149,138
182,-7574,-13,372,-4575,23,-345,-148,138
183,-7571,-13,387,-4576,23,-343,-154,137
184,-7574,-11,365,-4580,23,-345,-154,140
185,-7587,1,373,-4577,23,-344,-154,141
186,-7592,-3,372,-4577,23,-346,-154,139
187,-7591,-9,374,-4577,23,-346,-152,144
188,-7586,-9,372,-4578,23,-347,-150,142
189,-7577,-2,373,-4577,23,-345,-151,140
190,-7579,-6,373,-4580,23,-349,-157,137
191,-7580,-12,386,-4583,23,-352,-159,134
192,-7579,-16,397,-4579,23,-354,-161,134
193,-7585,-8,394,-4579,23,-354,-153,135
194,-7585,-9,390,-4576,23,-354,-150,137
195,-7580,-8,383,-4577,23,-355,-155,135
196,-7572,-2,377,-4578,23,-354,-155,138
197,-7584,-4,386,-4578,23,-353,-156,140
198,-7573,-2,374,-4582,23,-348,-155,137
199,-7583,-1,370,-4582,23,-347,-158,137
200,-7582,-10,375,-4581,23,-353,-155,138
201,-7584,-4,387,-4575,23,-352,-154,132
202,-7580,-4,382,-4575,23,-352,-158,133
203,-7569,-10,401,-4575,23,-351,-155,137
204,-7577,-11,395,-4575,23,-352,-154,135
205,-7585,3,386,-4574,23,-348,-155,135
206,-7582,-2,391,-4575,23,-349,-155,133
207,-7566,-9,389,-4575,23,-346,-158,132
208,-7573,-11,378,-4575,23,-350,-155,140
209,-7567,-9,373,-4575,23,-354,-154,140
210,-7572,-14,390,-4578,23,-356,-155,137
211,-7569,-16,391,-4576,23,-355,-154,136
212,-7575,-12,368,-4573,23,-350,-157,138
213,-7573,-11,371,-4578,23,-349,-157,142
214,-7576,-19,360,-4577,23,-345,-154,141
215,-7582,-20,370,-4576,23,-350,-156,137
216,-7573,-7,370,-4578,23,-349,-153,136
217,-7577,-3,369,-4577,23,-351,-152,137
218,-7585,-4,380,-4578,23,-346,-153,137
219,-7584,-9,387,-4579,23,-351,-156,140
220,-7577,-10,372,-4579,23,-349,-153,141
221,-7582,-10,375,-4575,23,-350,-154,141
222,-7590,-17,373,-4574,23,-348,-158,137
223,-7593,-17,393,-4573,23,-349,-161,136
224,-7595,-19,391,-4575,23,-350,-156,140
225,-7589,-6,379,-4575,23,-351,-162,136
226,-7578,-12,372,-4576,23,-351,-160,139
227,-7575,-8,371,-4579,23,-355,-156,137
228,-7577,-10,378,-4579,23,-351,-158,140
229,-7579,-1,375,-4578,23,-350,-159,138
230,-7574,1,384,-4574,23,-353,-155,140
231,-7584,-4,378,-4574,23,-350,-156,140
232,-7580,-1,386,-4573,23,-346,-151,136
233,-7591,-3,366,-4578,23,-346,-151,138
234,-7577,-8,359,-4576,23,-349,-152,141
235,-7579,-8,357,-4580,23,-349,-150,139
236,-7578,-5,371,-4578,23,-348,-154,139
237,-7576,-12,373,-4578,23,-353,-156,140
238,-7578,-11,373,-4578,23,-351,-157,140
239,-7567,-26,373,-4576,23,-351,-155,139
240,-7571,-16,367,-4573,23,-349,-156,134
241,-7585,-11,368,-4577,23,-349,-151,135
242,-7583,-12,373,-4575,23,-349,-152,133
243,-7577,-14,373,-4579,23,-346,-151,133
244,-7578,-18,375,-4575,23,-349,-149,133
245,-7582,-14,379,-4573,23,-348,-150,138
246,-7575,-10,374,-4577,23,-352,-149,137
247,-7580,-9,382,-4577,23,-353,-152,137
248,-7575,-14,380,-4581,23,-355,-151,138
249,-7571,-8,365,-4578,23,-352,-154,139
250,-7572,-2,375,-4580,23,-352,-158,140
251,-7576,-2,384,-4577,23,-349,-154,136
252,-7579,-1,378,-4576,23,-348,-158,137
253,-7577,-10,386,-4573,23,-350,-156,138
254,-7578,-10,380,-4575,23,-352,-153,136
255,-7579,-12,377,-4575,23,-349,-156,136
256,-7574,-5,381,-4578,23,-350,-154,138
257,-7583,-11,378,-4577,23,-350,-152,140
258,-7583,-15,385,-4578,23,-348,-153,136
259,-7574,-11,374,-4578,23,-347,-153,135
260,-7579,-8,374,-4578,23,-346,-153,139
261,-7583,-6,374,-4578,23,-346,-154,136
262,-7573,-7,372,-4578,23,-344,-159,133
263,-7574,-3,378,-4576,23,-340,-156,136
264,-7569,2,373,-4573,23,-345,-158,137
265,-7571,-4,379,-4573,23,-347,-158,140
266,-7569,-10,371,-4575,23,-347,-158,139
267,-7571,-8,364,-4575,23,-347,-155,136
268,-7570,-10,365,-4578,23,-349,-151,135
269,-7581,-15,377,-4577,23,-352,-153,136
270,-7578,-6,382,-4577,23,-351,-155,136
271,-7577,1,387,-4576,23,-350,-156,136
272,-7569,1,398,-4574,23,-352,-153,136
273,-7565,-3,399,-4576,23,-352,-156,137
274,-7564,-4,391,-4575,23,-352,-154,138
275,-7575,-3,375,-4573,23,-356,-152,140
276,-7574,-7,374,-4575,23,-354,-152,141
277,-7582,-9,369,-4575,23,-357,-155,134
278,-7588,-7,375,-4579,23,-357,-155,136
279,-7588,-5,388,-4579,23,-354,-158,139
280,-7576,-1,382,-4576,23,-352,-162,141
281,-7576,-7,385,-4574,23,-352,-160,141
282,-7582,-8,377,-4576,23,-349,-154,144
283,-7578,-5,376,-4580,23,-349,-153,141
284,-7578,-5,369,-4580,23,-347,-153,140
285,-7569,-15,366,-4579,23,-350,-157,143
286,-7578,-8,377,-4579,23,-348,-155,143
287,-7578,1,369,-4575,23,-344,-155,139
288,-7578,3,385,-4578,23,-345,-156,142
289,-7578,-4,381,-4577,23,-345,-155,140
290,-7583,2,382,-4577,23,-349,-156,135
291,-7586,-10,386,-4579,23,-349,-157,136
292,-7585,-10,392,-4578,23,-350,-158,136
293,-7581,1,384,-4574,23,-349,-158,140
294,-7573,7,377,-4575,23,-351,-154,139
295,-7568,7,369,-4575,23,-348,-153,139
296,-7561,-5,364,-4575,23,-349,-154,139
297,-7570,-4,376,-4574,23,-350,-155,141
298,-7578,-12,371,-4574,23,-346,-153,142
299,-7582,-8,379,-4576,23,-347,-153,144
300,-7588,-12,372,-4576,23,-345,-153,141
301,-7588,-11,379,-4579,23,-347,-154,136
302,-7582,-13,395,-4580,23,-349,-155,136
303,-7582,-19,387,-4580,23,-351,-152,137
304,-7577,-17,383,-4581,23,-353,-155,141
305,-7571,-9,390,-4580,23,-351,-154,140
306,-7571,-13,392,-4577,23,-347,-157,139
307,-7572,-8,383,-4575,23,-345,-158,141
308,-7570,-2,371,-4569,23,-343,-158,137
309,-7582,-11,383,-4572,23,-344,-159,137
310,-7574,0,378,-4573,23,-345,-161,137
311,-7572,-12,387,-4577,23,-348,-159,136
312,-7574,-11,394,-4575,23,-348,-151,134
313,-7576,-12,388,-4578,23,-351,-153,137
314,-7578,-7,386,-4578,23,-350,-158,138
315,-7567,-5,372,-4579,23,-347,-155,140
316,-7573,-5,387,-4583,23,-351,-157,139
317,-7571,-4,381,-4583,23,-350,-161,139
318,-7567,-8,381,-4582,23,-349,-154,140
319,-7576,-7,392,-4579,23,-348,-153,138
320,-7574,-6,376,-4579,23,-353,-158,138
321,-7582,-7,375,-4582,23,-350,-158,139
322,-7577,-4,386,-4581,23,-347,-161,140
323,-7577,-6,377,-4580,23,-348,-155,138
324,-7582,-6,375,-4579,23,-350,-154,140
325,-7587,-2,384,-4578,23,-349,-154,138
326,-7590,-4,386,-4578,23,-349,-150,140
327,-7588,-3,389,-4577,23,-350,-153,139
328,-7591,-13,387,-4579,23,-351,-155,140
329,-7590,-17,389,-4579,23,-346,-154,142
330,-7577,-12,373,-4579,23,-348,-157,140
331,-7571,-2,367,-4579,23,-353,-158,138
332,-7568,-9,386,-4577,23,-351,-157,137
333,-7571,-6,376,-4577,23,-354,-159,141
334,-7572,-16,377,-4577,23,-352,-158,140
335,-7574,-17,381,-4576,23,-355,-150,138
336,-7563,-12,402,-4576,23,-353,-153,137
337,-7568,-8,396,-4575,23,-351,-152,137
338,-7580,-11,389,-4574,23,-353,-152,138
339,-7575,-18,373,-4578,23,-352,-155,138
340,-7582,-10,361,-4577,23,-351,-157,136
341,-7574,-10,377,-4576,23,-352,-151,139
342,-7576,-17,374,-4579,23,-352,-155,142
343,-7574,-12,363,-4580,23,-354,-155,145
344,-7580,-13,367,-4576,23,-351,-157,141
345,-7575,-2,364,-4577,23,-352,-159,140
346,-7578,-8,365,-4575,23,-351,-158,138
347,-7575,-10,372,-4576,23,-349,-156,136
348,-7571,-2,363,-4573,23,-349,-154,137
349,-7572,1,364,-4571,23,-352,-154,134
350,-7580,-6,373,-4572,23,-354,-155,138
351,-7576,1,370,-4572,23,-348,-159,138
352,-7579,5,376,-4573,23,-350,-160,138
353,-7580,5,376,-4574,23,-350,-159,140
354,-7580,3,381,-4577,23,-349,-157,140
355,-7580,-2,372,-4577,23,-351,-161,139
356,-7583,2,379,-4581,23,-351,-154,139
357,-7586,0,375,-4581,23,-350,-156,137
358,-7578,-8,380,-4578,23,-348,-155,137
359,-7579,-11,385,-4575,23,-348,-154,135
360,-7580,-11,374,-4574,23,-351,-152,137
361,-7585,-12,377,-4577,23,-350,-153,138
362,-7581,-8,375,-4577,23,-350,-155,134
363,-7583,-8,380,-4576,23,-351,-155,136
364,-7587,-12,374,-4572,23,-349,-155,135
365,-7580,-17,373,-4577,23,-345,-160,134
366,-7577,-19,366,-4579,23,-347,-159,135
367,-7576,-16,379,-4577,23,-348,-158,138
368,-7569,-16,383,-4579,23,-346,-157,139
369,-7573,-15,396,-4577,23,-349,-161,139
370,-7583,-13,391,-4577,23,-347,-157,139
371,-7585,-7,386,-4577,23,-340,-152,137
372,-7581,-5,387,-4574,23,-345,-152,133
373,-7566,-1,386,-4576,23,-347,-153,137
374,-7564,1,392,-4578,23,-349,-154,141
375,-7567,-1,374,-4575,23,-352,-155,135
376,-7570,-5,378,-4574,23,-349,-160,138
377,-7577,-11,377,-4578,23,-349,-155,140
378,-7576,-7,379,-4575,23,-346,-153,143
379,-7574,-11,383,-4577,23,-345,-153,139
380,-7581,-2,390,-4576,23,-347,-153,135
381,-7576,-5,375,-4573,23,-350,-153,136
382,-7580,-1,366,-4573,23,-349,-155,137
383,-7594,2,372,-4573,23,-350,-154,134
384,-7584,-2,369,-4572,23,-352,-152,135
385,-7587,-5,366,-4571,23,-349,-149,137
386,-7577,-13,354,-4573,23,-347,-151,137
387,-7580,-9,364,-4574,23,-350,-155,140
388,-7580,-11,374,-4571,23,-348,-154,143
389,-7570,-18,368,-4575,23,-350,-154,142
390,-7580,-11,363,-4578,23,-347,-152,141
391,-7569,-2,368,-4575,23,-349,-152,140
392,-7571,-2,370,-4573,23,-348,-158,142
393,-7573,-12,362,-4573,23,-350,-154,140
394,-7569,0,372,-4571,23,-349,-157,140
395,-7568,-5,373,-4572,23,-348,-157,139
396,-7569,-7,361,-4573,23,-348,-157,138
397,-7571,-17,369,-4574,23,-347,-155,139
398,-7586,-12,371,-4574,23,-346,-154,138
399,-7576,-10,377,-4575,23,-348,-153,137
400,-7566,-6,378,-4575,23,-343,-150,138
401,-7567,-1,377,-4573,23,-346,-148,140
402,-7563,-5,366,-4578,23,-347,-150,139
403,-7560,-11,368,-4577,23,-344,-151,136
404,-7564,-13,383,-4579,23,-346,-152,139
405,-7572,-9,382,-4578,23,-347,-153,140
406,-7576,-2,384,-4576,23,-348,-155,143
407,-7574,-5,377,-4575,23,-350,-154,145
408,-7578,-17,375,-4574,23,-349,-155,139
409,-7591,-15,361,-4577,23,-352,-152,136
410,-7585,-10,365,-4575,23,-352,-150,135
411,-7578,-11,374,-4576,23,-349,-152,137
412,-7580,-13,378,-4574,23,-348,-153,144
413,-7577,-8,374,-4576,23,-345,-155,141
414,-7580,-6,377,-4578,23,-344,-152,138
415,-7584,-5,373,-4580,23,-345,-154,138
416,-7581,-1,370,-4578,23,-350,-156,139
417,-7572,-11,372,-4574,23,-350,-155,139
418,-7577,-12,375,-4577,23,-350,-156,138
419,-7578,-11,383,-4577,23,-351,-153,138
420,-7577,-13,376,-4577,23,-352,-155,139
421,-7576,-2,370,-4578,23,-346,-157,135
422,-7585,7,376,-4575,23,-347,-155,140
423,-7575,-3,368,-4576,23,-350,-157,140
424,-7580,-11,382,-4580,23,-345,-156,140
425,-7571,-4,381,-4583,23,-344,-158,139
426,-7572,-4,382,-4582,23,-345,-155,136
427,-7580,-1,370,-4577,23,-344,-159,141
428,-7569,4,368,-4579,23,-343,-154,135
429,-7574,4,381,-4577,23,-346,-155,135
430,-7582,9,358,-4579,23,-346,-157,133
431,-7578,1,368,-4579,23,-343,-154,135
432,-7571,-4,375,-4582,23,-344,-152,135
433,-7576,-5,378,-4580,23,-345,-155,143
434,-7574,-6,391,-4580,23,-347,-155,143
435,-7569,-6,375,-4577,23,-348,-155,143
436,-7573,-14,372,-4578,23,-348,-155,139
437,-7569,-14,372,-4576,23,-350,-155,139
438,-7576,-11,378,-4579,23,-351,-156,141
439,-7570,-7,373,-4575,23,-348,-158,141
440,-7570,-16,374,-4577,23,-346,-159,139
441,-7563,-16,375,-4576,23,-345,-159,141
442,-7571,-21,370,-4577,23,-349,-165,140
443,-7573,-21,361,-4577,23,-349,-164,138
444,-7573,-15,362,-4576,23,-346,-160,138
445,-7570,-2,355,-4573,23,-350,-155,139
446,-7571,3,370,-4573,23,-345,-155,138
447,-7574,-7,366,-4574,23,-342,-155,141
448,-7571,-11,386,-4573,23,-342,-153,138
449,-7569,-14,378,-4577,23,-344,-155,140
450,-7577,-21,368,-4578,23,-347,-152,136
451,-7575,-17,369,-4578,23,-348,-155,133
452,-7576,-15,370,-4576,23,-344,-159,138
453,-7583,-14,377,-4577,23,-349,-158,141
454,-7586,-12,365,-4576,23,-352,-154,140
455,-7589,-8,364,-4578,23,-351,-157,138
456,-7594,-15,362,-4576,23,-352,-155,136
457,-7580,-14,382,-4576,23,-351,-154,138
458,-7583,-12,377,-4577,23,-352,-156,138
459,-7588,-10,381,-4578,23,-351,-151,138
460,-7580,-9,372,-4578,23,-354,-153,136
461,-7577,-12,387,-4576,23,-352,-153,135
462,-7577,-9,393,-4577,23,-353,-154,133
463,-7577,-16,390,-4577,23,-354,-154,132
464,-7574,-12,406,-4578,23,-353,-150,133
465,-7581,-13,395,-4575,23,-350,-151,134
466,-7588,-8,384,-4577,23,-353,-151,136
467,-7588,-9,380,-4577,23,-354,-151,135
468,-7577,-14,377,-4576,23,-354,-155,138
469,-7576,-2,365,-4578,23,-352,-153,138
470,-7577,-1,373,-4577,23,-349,-151,140
471,-7589,-6,375,-4578,23,-349,-151,140
472,-7589,-5,375,-4575,23,-348,-150,140
473,-7577,-2,367,-4577,23,-351,-150,141
474,-7568,-9,374,-4578,23,-344,-153,143
475,-7567,-6,391,-4576,23,-349,-153,140
476,-7577,-13,382,-4573,23,-346,-156,139
477,-7577,-11,377,-4570,23,-348,-157,143
478,-7579,-2,392,-4575,23,-350,-149,138
479,-7571,-4,386,-4575,23,-350,-149,141
480,-7575,-10,375,-4574,23,-346,-150,141
481,-7572,-12,385,-4575,23,-349,-149,143
482,-7573,-3,375,-4572,23,-348,-147,140
483,-7570,5,380,-4571,23,-349,-151,142
484,-7572,9,378,-4571,23,-348,-146,143
485,-7577,2,376,-4573,23,-351,-149,141
486,-7574,6,378,-4578,23,-350,-149,138
487,-7565,0,373,-4578,23,-354,-150,138
488,-7567,-7,369,-4574,23,-353,-151,139
489,-7578,-2,391,-4571,23,-351,-154,142
490,-7584,-8,400,-4570,23,-351,-157,143
491,-7581,-7,395,-4574,23,-345,-160,143
492,-7580,-4,380,-4577,23,-347,-158,144
493,-7578,1,378,-4576,23,-347,-157,142
494,-7574,-13,368,-4578,23,-349,-157,143
495,-7575,-17,376,-4576,23,-351,-157,141
496,-7581,-21,376,-4577,23,-348,-151,142
497,-7587,-17,371,-4575,23,-346,-157,141
498,-7581,-7,365,-4574,23,-347,-155,141
499,-7579,-1,383,-4578,23,-346,-155,138
500,-7576,5,397,-4580,23,-349,-158,136
501,-7577,4,393,-4583,23,-344,-157,141
502,-7577,-2,399,-4582,23,-346,-155,138
503,-7570,0,399,-4580,23,-350,-158,137
504,-7578,-2,406,-4576,23,-349,-153,134
505,-7578,-3,407,-4577,23,-343,-156,136
506,-7580,-8,399,-4577,23,-346,-153,138
507,-7579,-7,391,-4574,23,-343,-153,138
508,-7577,-5,388,-4571,23,-342,-153,139
509,-7566,-5,377,-4573,23,-345,-153,138
510,-7561,1,382,-4574,23,-350,-152,137
511,-7567,8,397,-4570,23,-346,-151,137
512,-7566,10,386,-4569,23,-346,-151,136
513,-7562,7,382,-4571,23,-347,-157,137
514,-7562,1,364,-4573,23,-349,-153,141
515,-7575,3,372,-4574,23,-353,-151,141
516,-7574,-2,374,-4575,23,-349,-153,142
517,-7574,-5,404,-4572,23,-348,-158,140
518,-7574,-3,395,-4572,23,-349,-154,138
519,-7581,1,391,-4572,23,-348,-154,139
520,-7566,1,393,-4571,23,-347,-148,139
521,-7576,-6,394,-4574,23,-350,-154,141
522,-7577,-1,400,-4576,23,-352,-161,139
523,-7578,-8,385,-4575,23,-349,-159,139
524,-7578,-12,371,-4575,23,-349,-158,140
525,-7576,-13,369,-4577,23,-348,-156,142
526,-7579,-15,372,-4574,23,-346,-154,139
527,-7583,-9,367,-4572,23,-347,-157,138
528,-7580,-16,358,-4574,23,-353,-155,138
529,-7570,-16,375,-4574,23,-348,-153,141
530,-7580,-20,394,-4574,23,-344,-153,140
531,-7571,-4,378,-4574,23,-345,-152,140
532,-7570,-4,377,-4570,23,-347,-155,137
533,-7564,-2,379,-4574,23,-345,-155,139
534,-7560,-8,380,-4575,23,-349,-156,138
535,-7564,-3,378,-4577,23,-349,-156,138
536,-7571,-7,369,-4573,23,-347,-160,137
537,-7575,-4,369,-4575,23,-349,-158,142
538,-7572,-3,368,-4576,23,-352,-156,141
539,-7580,-6,369,-4578,23,-350,-155,142
540,-7577,2,382,-4572,23,-350,-153,140
541,-7570,-1,382,-4572,23,-351,-155,139
542,-7571,0,383,-4569,23,-351,-152,139
543,-7580,4,388,-4570,23,-349,-152,141
544,-7576,3,379,-4572,23,-350,-154,142
545,-7574,-5,382,-4571,23,-350,-152,139
546,-7574,-6,378,-4572,23,-347,-153,138
547,-7573,-11,373,-4571,23,-348,-150,139
548,-7572,-18,368,-4569,23,-351,-149,145
549,-7575,-11,370,-4569,23,-349,-151,146
550,-7578,-12,386,-4568,23,-352,-152,142
551,-7586,-10,388,-4571,23,-349,-156,139
552,-7577,-6,393,-4575,23,-347,-152,140
553,-7565,-13,387,-4575,23,-345,-152,142
554,-7559,-16,381,-4573,23,-348,-155,144
555,-7563,-13,380,-4572,23,-346,-156,143
556,-7572,-11,374,-4575,23,-346,-156,140
557,-7580,-17,369,-4577,23,-350,-152,142
558,-7581,-17,369,-4574,23,-349,-158,142
559,-7582,-15,373,-4575,23,-347,-156,136
560,-7581,-4,375,-4573,23,-351,-152,136
561,-7579,2,379,-4574,23,-353,-152,139
562,-7572,0,378,-4578,23,-352,-156,139
563,-7572,-4,364,-4576,23,-348,-159,141
564,-7574,-13,367,-4577,23,-350,-157,139
565,-7576,-5,371,-4576,23,-349,-155,138
566,-7587,-6,364,-4577,23,-351,-158,137
567,-7579,-1,367,-4576,23,-349,-153,139
568,-7581,-6,359,-4575,23,-344,-155,139
569,-7582,-10,369,-4574,23,-351,-156,136
570,-7588,-11,370,-4574,23,-350,-158,137
571,-7585,-9,384,-4575,23,-352,-158,141
572,-7580,-10,383,-4575,23,-354,-152,137
573,-7582,-12,376,-4574,23,-352,-155,139
574,-7585,-10,367,-4574,23,-353,-154,139
575,-7580,-12,363,-4573,23,-347,-158,141
576,-7580,-13,371,-4573,23,-351,-160,139
577,-7580,-3,374,-4576,23,-347,-157,138
578,-7580,0,364,-4573,23,-351,-156,136
579,-7575,-5,369,-4573,23,-349,-154,140
580,-7580,-5,377,-4574,23,-349,-155,137
581,-7579,-3,386,-4574,23,-350,-154,138
582,-7581,-10,397,-4577,23,-352,-155,138
583,-7580,-21,383,-4576,23,-356,-158,138
584,-7582,-10,376,-4576,23,-358,-156,138
585,-7579,-7,376,-4577,23,-352,-153,138
586,-7582,-4,380,-4576,23,-351,-148,142
587,-7578,-5,376,-4576,23,-345,-149,142
588,-7573,-11,382,-4574,23,-346,-150,143
589,-7578,-11,380,-4569,23,-349,-158,145
590,-7580,-9,373,-4572,23,-348,-158,141
591,-7583,-3,375,-4570,23,-345,-157,141
592,-7583,-6,376,-4573,23,-346,-162,139
593,-7583,-8,369,-4573,23,-346,-156,139
594,-7584,-8,379,-4574,23,-345,-163,140
595,-7594,4,391,-4574,23,-347,-160,142
596,-7594,3,387,-4573,23,-349,-160,139
597,-7592,-13,388,-4574,23,-349,-163,137
598,-7580,-11,388,-4573,23,-348,-161,134
599,-7576,-6,375,-4570,23,-350,-158,135
600,-7576,-2,375,-4574,23,-347,-158,137
601,-7579,-7,390,-4570,23,-346,-156,131
602,-7587,-8,376,-4569,23,-346,-154,134
603,-7575,-9,379,-4567,23,-351,-158,136
604,-7583,-6,380,-4571,23,-350,-155,141
605,-7583,2,369,-4574,23,-347,-157,140
606,-7581,6,361,-4575,23,-347,-158,140
607,-7574,8,371,-4573,23,-350,-157,144
608,-7583,3,384,-4573,23,-351,-154,144
609,-7578,-10,380,-4570,23,-354,-154,138
610,-7575,-5,381,-4577,23,-355,-158,138
611,-7580,-6,375,-4579,23,-353,-159,138
612,-7574,-9,374,-4577,23,-353,-161,135
613,-7578,-9,375,-4577,23,-352,-153,139
614,-7579,-4,370,-4576,23,-348,-153,139
615,-7573,0,381,-4576,23,-354,-150,138
616,-7575,-9,377,-4579,23,-352,-155,142
617,-7572,0,378,-4577,23,-351,-158,142
618,-7574,-3,385,-4577,23,-352,-155,141
619,-7577,-13,384,-4574,23,-357,-158,138
620,-7576,-15,377,-4574,23,-354,-159,138
621,-7572,-6,380,-4574,23,-356,-159,138
622,-7571,1,380,-4574,23,-356,-158,139
623,-7575,-2,366,-4572,23,-349,-159,139
624,-7577,-5,380,-4573,23,-345,-158,137
625,-7578,-4,378,-4572,23,-349,-155,138
626,-7570,-1,369,-4574,23,-350,-156,141
627,-7572,-9,376,-4577,23,-347,-157,139
628,-7575,-13,380,-4575,23,-348,-155,138
629,-7580,-17,367,-4574,23,-352,-154,142
630,-7583,-22,355,-4578,23,-351,-156,140
631,-7577,-13,369,-4576,23,-351,-158,141
632,-7579,-2,362,-4576,23,-351,-158,139
633,-7584,-14,360,-4577,23,-349,-159,140
634,-7577,-25,378,-4573,23,-351,-154,138
635,-7562,-21,377,-4574,23,-352,-155,138
636,-7571,-16,377,-4575,23,-350,-156,137
637,-7572,-7,373,-4577,23,-348,-154,137
638,-7570,-8,370,-4574,23,-352,-151,134
639,-7571,-9,379,-4572,23,-354,-152,136
640,-7568,-10,383,-4571,23,-356,-150,138
641,-7570,-11,381,-4572,23,-353,-153,138
642,-7575,-16,376,-4574,23,-349,-157,139
643,-7577,-6,374,-4573,23,-348,-157,137
644,-7575,-1,377,-4573,23,-348,-155,137
645,-7576,-13,375,-4573,23,-352,-155,145
646,-7568,-17,380,-4573,23,-346,-154,144
647,-7570,-17,377,-4574,23,-351,-155,140
648,-7572,-19,366,-4573,23,-351,-155,139
649,-7576,-13,357,-4573,23,-350,-155,139
650,-7575,-12,349,-4574,23,-349,-154,135
651,-7575,-10,357,-4575,23,-349,-156,135
652,-7581,-7,361,-4574,23,-347,-154,138
653,-7585,3,372,-4573,23,-347,-153,137
654,-7576,-12,369,-4576,23,-351,-154,138
655,-7575,-16,379,-4572,23,-350,-155,139
656,-7576,-9,383,-4575,23,-352,-156,138
657,-7576,-10,385,-4572,23,-350,-151,138
658,-7577,-8,386,-4573,23,-348,-158,140
659,-7576,0,391,-4575,23,-349,-157,138
660,-7573,-3,381,-4575,23,-349,-157,145
661,-7577,2,376,-4578,23,-350,-152,145
662,-7581,-10,374,-4578,23,-350,-153,142
663,-7580,-2,371,-4581,23,-350,-153,137
664,-7581,-1,375,-4578,23,-351,-154,138
665,-7580,-6,372,-4573,23,-349,-154,141
666,-7575,-7,374,-4576,23,-343,-154,139
667,-7563,-12,368,-4576,23,-339,-153,139
668,-7564,-5,366,-4576,23,-341,-152,139
669,-7564,-1,381,-4576,23,-348,-151,139
670,-7572,-5,382,-4573,23,-351,-156,140
671,-7573,-6,385,-4572,23,-347,-155,138
672,-7584,-5,379,-4572,23,-347,-156,137
673,-7574,-7,376,-4573,23,-348,-157,137
674,-7566,-6,375,-4576,23,-347,-159,137
675,-7570,-1,361,-4577,23,-344,-154,138
676,-7568,-3,366,-4577,23,-346,-156,140
677,-7574,-13,369,-4573,23,-345,-154,141
678,-7575,-4,378,-4573,23,-351,-157,143
679,-7576,-3,401,-4574,23,-349,-155,142
680,-7579,-9,395,-4575,23,-352,-153,138
681,-7577,-17,380,-4574,23,-350,-158,139
682,-7583,-3,405,-4575,23,-353,-157,136
683,-7578,-2,404,-4574,23,-354,-156,138
684,-7581,-6,390,-4575,23,-354,-155,139
685,-7579,-3,378,-4572,23,-356,-157,143
686,-7571,-5,382,-4571,23,-355,-159,140
687,-7579,-2,371,-4572,23,-351,-156,141
688,-7577,-11,372,-4572,23,-351,-152,142
689,-7577,-7,389,-4576,23,-350,-153,141
690,-7567,-8,401,-4577,23,-350,-155,142
691,-7570,-6,384,-4577,23,-347,-157,142
692,-7566,-4,377,-4573,23,-350,-159,139
693,-7563,-8,380,-4572,23,-343,-154,139
694,-7569,-12,379,-4573,23,-349,-153,136
695,-7574,-14,377,-4573,23,-347,-152,136
696,-7572,-11,384,-4573,23,-349,-150,138
697,-7574,-13,372,-4572,23,-349,-148,139
698,-7575,-13,370,-4574,23,-348,-153,139
699,-7575,-14,389,-4574,23,-352,-152,138
700,-7574,-16,385,-4576,23,-351,-157,141
701,-7577,-4,389,-4578,23,-352,-160,135
702,-7577,3,393,-4580,23,-348,-159,138
703,-7567,3,384,-4578,23,-348,-157,134
704,-7564,8,372,-4576,23,-348,-157,138
705,-7562,9,371,-4577,23,-349,-154,138
706,-7561,2,360,-4574,23,-352,-153,136
707,-7562,-1,360,-4574,23,-353,-152,139
708,-7562,-3,368,-4574,23,-350,-154,141
709,-7577,-12,366,-4576,23,-349,-153,142
710,-7576,-7,375,-4576,23,-348,-152,138
711,-7581,-5,370,-4575,23,-346,-149,140
712,-7576,-2,371,-4577,23,-345,-151,142
713,-7572,0,369,-4577,23,-349,-156,136
714,-7578,-1,379,-4572,23,-351,-157,137
715,-7581,-6,369,-4574,23,-346,-156,138
716,-7582,-3,371,-4571,23,-349,-157,134
717,-7582,2,371,-4572,23,-352,-162,135
718,-7574,8,363,-4571,23,-357,-160,136
719,-7577,6,367,-4570,23,-357,-157,136
720,-7575,-2,390,-4571,23,-353,-156,137
721,-7582,-2,383,-4573,23,-352,-151,139
722,-7579,-4,376,-4576,23,-352,-151,138
723,-7580,-8,368,-4577,23,-351,-156,135
724,-7577,-12,380,-4575,23,-353,-157,136
725,-7577,-11,382,-4575,23,-352,-157,136
726,-7569,-7,389,-4577,23,-352,-155,135
727,-7563,-4,375,-4576,23,-357,-153,138
728,-7561,-6,376,-4575,23,-353,-152,140
729,-7578,-17,381,-4575,23,-356,-156,140
730,-7575,-13,380,-4574,23,-353,-157,137
731,-7578,-10,389,-4572,23,-355,-157,140
732,-7581,-11,377,-4575,23,-354,-157,139
733,-7576,-2,383,-4579,23,-350,-158,139
734,-7577,-1,369,-4577,23,-354,-157,140
735,-7576,-5,362,-4574,23,-352,-159,141
736,-7581,-3,371,-4578,23,-348,-157,139
737,-7585,-13,383,-4573,23,-342,-158,142
738,-7579,-13,383,-4570,23,-347,-155,139
739,-7573,-5,381,-4574,23,-349,-156,139
740,-7575,-6,377,-4572,23,-350,-155,141
741,-7577,-12,387,-4571,23,-353,-155,146
742,-7580,-11,364,-4572,23,-350,-155,144
743,-7575,-12,367,-4571,23,-347,-155,144
744,-7577,-5,368,-4573,23,-347,-156,141
745,-7587,-7,363,-4568,23,-348,-158,142
746,-7585,-6,359,-4569,23,-347,-158,138
747,-7585,-5,373,-4572,23,-349,-153,139
748,-7575,-6,399,-4568,23,-345,-153,141
749,-7581,-8,394,-4571,23,-347,-154,139
750,-7574,-7,389,-4573,23,-350,-154,141
751,-7567,-15,376,-4570,23,-351,-157,141
752,-7574,-11,376,-4571,23,-344,-157,142
753,-7575,-2,382,-4573,23,-340,-154,141
754,-7569,1,379,-4573,23,-342,-162,141
755,-7573,3,379,-4575,23,-346,-155,141
756,-7583,2,368,-4579,23,-346,-158,137
757,-7584,-5,362,-4578,23,-343,-158,134
758,-7583,4,371,-4578,23,-346,-158,138
759,-7581,-3,379,-4575,23,-348,-156,137
760,-7589,-2,385,-4571,23,-349,-156,134
761,-7585,-4,390,-4570,23,-342,-157,137
762,-7591,0,386,-4570,23,-341,-154,140
763,-7588,3,382,-4570,23,-345,-153,138
764,-7585,-1,387,-4571,23,-347,-150,140
765,-7580,-6,388,-4572,23,-347,-154,137
766,-7576,1,372,-4572,23,-348,-154,136
767,-7588,-3,369,-4572,23,-348,-157,138
768,-7584,1,383,-4574,23,-348,-158,143
769,-7588,-5,366,-4576,23,-347,-160,140
770,-7586,-3,364,-4577,23,-348,-157,142
771,-7581,1,374,-4580,23,-348,-155,140
772,-7575,-1,383,-4579,23,-347,-155,138
773,-7575,-3,384,-4575,23,-345,-156,135
774,-7574,-3,386,-4575,23,-341,-159,136
775,-7578,-10,386,-4571,23,-344,-156,137
776,-7580,-9,397,-4573,23,-343,-158,136
777,-7581,-13,399,-4572,23,-345,-158,138
778,-7582,-13,395,-4573,23,-348,-159,138
779,-7577,-9,377,-4574,23,-349,-155,140
780,-7576,-17,373,-4578,23,-349,-159,137
781,-7569,-7,381,-4575,23,-352,-155,136
782,-7565,-10,382,-4574,23,-346,-160,138
783,-7565,-8,381,-4575,23,-349,-153,141
784,-7580,-10,395,-4576,23,-347,-151,139
785,-7580,-11,383,-4573,23,-346,-154,140
786,-7591,-7,370,-4575,23,-347,-152,136
787,-7584,-12,374,-4576,23,-348,-152,137
788,-7574,-9,370,-4575,23,-350,-153,135
789,-7575,-10,374,-4573,23,-352,-156,138
790,-7572,-15,382,-4574,23,-345,-158,134
791,-7576,-13,379,-4571,23,-347,-157,137
792,-7572,-4,364,-4571,23,-345,-155,137
793,-7578,9,363,-4574,23,-346,-153,139
794,-7581,7,373,-4573,23,-350,-155,141
795,-7576,-5,375,-4573,23,-351,-149,139
796,-7582,3,374,-4571,23,-349,-148,136
797,-7587,1,368,-4571,23,-348,-156,137
798,-7579,6,376,-4569,23,-346,-157,139
799,-7573,0,378,-4568,23,-346,-158,137
800,-7575,-3,382,-4570,23,-346,-154,139
801,-7584,-2,380,-4571,23,-352,-155,138
802,-7587,-3,379,-4572,23,-350,-156,143
803,-7577,-1,387,-4567,23,-353,-154,141
804,-7585,-5,393,-4571,23,-349,-153,138
805,-7583,-5,379,-4572,23,-349,-153,139
806,-7584,4,373,-4572,23,-349,-155,138
807,-7578,2,375,-4571,23,-349,-160,136
808,-7582,5,355,-4571,23,-349,-156,139
809,-7570,-15,366,-4572,23,-357,-157,140
810,-7576,-10,362,-4575,23,-355,-154,140
811,-7575,-13,357,-4573,23,-353,-155,140
812,-7579,-10,357,-4573,23,-349,-157,136
813,-7585,-7,365,-4571,23,-346,-159,137
814,-7576,-5,367,-4571,23,-345,-157,141
815,-7582,-6,371,-4571,23,-343,-158,140
816,-7580,-15,377,-4574,23,-344,-155,141
817,-7577,-14,377,-4572,23,-343,-152,140
818,-7578,-10,387,-4573,23,-347,-149,141
819,-7574,-7,375,-4574,23,-349,-148,140
820,-7577,-7,374,-4568,23,-348,-148,137
821,-7573,-3,380,-4568,23,-349,-155,140
822,-7575,4,384,-4570,23,-347,-159,141
823,-7579,7,385,-4572,23,-349,-154,143
824,-7571,10,373,-4570,23,-347,-155,142
825,-7569,2,383,-4575,23,-346,-160,138
826,-7566,0,398,-4574,23,-347,-160,139
827,-7575,7,390,-4574,23,-344,-160,142
828,-7578,8,379,-4575,23,-345,-159,139
829,-7577,6,372,-4572,23,-349,-153,137
830,-7570,1,385,-4573,23,-349,-152,139
831,-7579,-1,372,-4575,23,-348,-148,139
832,-7586,-4,374,-4576,23,-350,-154,137
833,-7575,-2,372,-4572,23,-350,-155,141
834,-7580,7,376,-4572,23,-345,-159,134
835,-7574,-5,389,-4570,23,-346,-157,138
836,-7583,-3,388,-4569,23,-347,-157,139
837,-7581,-11,397,-4572,23,-347,-156,140
838,-7574,-5,392,-4570,23,-348,-157,141
839,-7573,1,384,-4572,23,-344,-157,141
840,-7574,7,381,-4571,23,-347,-158,143
841,-7572,-2,385,-4572,23,-349,-158,141
842,-7573,1,384,-4574,23,-348,-157,142
843,-7580,0,381,-4572,23,-348,-159,141
844,-7579,-2,373,-4574,23,-348,-155,141
845,-7578,-4,380,-4573,23,-348,-156,141
846,-7572,-12,381,-4575,23,-345,-156,139
847,-7573,-7,377,-4574,23,-350,-157,137
848,-7575,-4,372,-4575,23,-350,-154,142
849,-7576,-5,372,-4575,23,-354,-155,139
850,-7571,-10,372,-4571,23,-353,-157,139
851,-7575,-7,374,-4571,23,-350,-151,135
852,-7570,-8,381,-4573,23,-352,-154,140
853,-7579,-13,379,-4574,23,-351,-156,141
854,-7579,-14,381,-4572,23,-355,-154,140
855,-7578,-13,377,-4572,23,-353,-152,144
856,-7575,-2,381,-4576,23,-357,-154,140
857,-7576,6,379,-4576,23,-355,-154,144
858,-7580,9,383,-4574,23,-352,-154,141
859,-7577,4,384,-4574,23,-354,-157,144
860,-7577,0,368,-4573,23,-355,-158,145
861,-7570,-4,363,-4568,23,-354,-154,140
862,-7565,-4,361,-4570,23,-354,-151,139
863,-7572,-9,368,-4571,23,-347,-155,141
864,-7577,-3,358,-4572,23,-346,-153,143
865,-7576,-10,360,-4569,23,-350,-156,136
866,-7569,-6,360,-4567,23,-350,-157,138
867,-7577,-1,371,-4568,23,-354,-157,139
868,-7576,-9,374,-4564,23,-350,-159,136
869,-7574,-16,374,-4566,23,-351,-159,137
870,-7580,-7,381,-4568,23,-353,-153,138
871,-7577,-7,371,-4569,23,-351,-154,134
872,-7591,-11,372,-4567,23,-349,-155,136
873,-7587,-6,369,-4568,23,-348,-157,139
874,-7587,-9,362,-4568,23,-348,-158,140
875,-7583,-4,375,-4567,23,-350,-156,141
876,-7585,-3,372,-4568,23,-350,-152,140
877,-7581,2,371,-4571,23,-356,-156,144
878,-7578,6,391,-4570,23,-351,-156,141
879,-7583,3,403,-4571,23,-353,-153,141
880,-7577,-7,388,-4572,23,-355,-153,142
881,-7575,0,380,-4571,23,-353,-151,140
882,-7572,3,377,-4570,23,-350,-154,142
883,-7569,0,381,-4573,23,-349,-153,137
884,-7564,4,379,-4572,23,-348,-155,136
885,-7564,-4,373,-4574,23,-348,-157,139
886,-7573,7,382,-4574,23,-350,-161,142
887,-7566,5,389,-4573,23,-349,-163,140
888,-7568,2,390,-4575,23,-348,-162,141
889,-7570,-1,376,-4581,23,-350,-156,138
890,-7570,2,381,-4575,23,-351,-155,137
891,-7563,-6,371,-4574,23,-348,-157,138
892,-7571,-15,380,-4573,23,-351,-160,139
893,-7570,-17,381,-4573,23,-348,-166,140
894,-7572,-8,370,-4572,23,-350,-160,139
895,-7571,4,376,-4574,23,-350,-159,139
896,-7575,-9,374,-4572,23,-351,-157,138
897,-7575,-5,369,-4572,23,-352,-155,140
898,-7578,-6,360,-4573,23,-347,-154,137
899,-7582,-9,367,-4572,23,-345,-153,138
900,-7568,-6,367,-4571,23,-349,-151,137
901,-7568,-10,377,-4573,23,-349,-147,136
902,-7574,-9,376,-4571,23,-353,-149,134
903,-7576,-1,386,-4574,23,-353,-149,137
904,-7575,-7,384,-4573,23,-349,-153,140
905,-7586,-7,382,-4575,23,-350,-154,141
906,-7583,-6,385,-4574,23,-349,-153,138
907,-7580,-8,376,-4576,23,-349,-153,135
908,-7584,-17,378,-4575,23,-352,-156,137
909,-7584,-16,383,-4573,23,-349,-150,133
910,-7580,-15,376,-4572,23,-350,-146,133
911,-7572,-15,386,-4570,23,-347,-149,133
912,-7569,-16,367,-4571,23,-349,-153,139
913,-7570,-5,378,-4568,23,-346,-157,141
914,-7576,-2,372,-4570,23,-351,-156,138
915,-7573,-11,367,-4573,23,-351,-152,140
916,-7573,-3,373,-4575,23,-349,-155,137
917,-7564,0,383,-4574,23,-350,-154,137
918,-7569,-1,391,-4573,23,-350,-149,140
919,-7567,-5,392,-4572,23,-348,-151,137
920,-7578,-8,377,-4572,23,-350,-153,138
921,-7582,-6,363,-4568,23,-344,-154,138
922,-7580,0,368,-4571,23,-342,-154,137
923,-7588,-2,364,-4569,23,-348,-157,135
924,-7580,0,353,-4572,23,-351,-158,134
925,-7579,0,369,-4568,23,-347,-155,138
926,-7582,-3,370,-4570,23,-347,-151,135
927,-7584,4,376,-4573,23,-348,-153,136
928,-7580,1,388,-4572,23,-349,-155,135
929,-7581,-5,382,-4572,23,-350,-153,138
930,-7581,-15,385,-4574,23,-346,-158,137
931,-7581,-20,390,-4575,23,-347,-159,135
932,-7576,-12,386,-4575,23,-351,-153,135
933,-7573,-10,403,-4574,23,-352,-154,139
934,-7577,-7,385,-4573,23,-352,-156,140
935,-7582,-7,370,-4572,23,-350,-155,141
936,-7571,-6,369,-4572,23,-352,-154,143
937,-7572,-12,378,-4573,23,-347,-151,143
938,-7581,-9,385,-4574,23,-346,-160,143
939,-7577,-7,392,-4574,23,-348,-154,140
940,-7583,-5,381,-4571,23,-347,-156,138
941,-7585,-5,391,-4573,23,-347,-152,140
942,-7583,-10,395,-4571,23,-346,-156,138
943,-7585,-9,401,-4571,23,-351,-157,141
944,-7577,-5,384,-4573,23,-352,-156,140
945,-7586,-8,398,-4576,23,-346,-155,139
946,-7584,-13,390,-4573,23,-344,-156,140
947,-7579,-17,384,-4573,23,-345,-157,142
948,-7582,-12,386,-4569,23,-347,-158,141
949,-7576,-12,386,-4569,23,-346,-154,138
950,-7571,-13,389,-4572,23,-347,-154,141
951,-7573,-4,402,-4571,23,-349,-153,140
952,-7579,-13,384,-4571,23,-350,-153,138
953,-7578,-13,374,-4572,23,-349,-156,142
954,-7575,-5,382,-4570,23,-350,-157,139
955,-7580,-3,368,-4571,23,-349,-155,144
956,-7576,3,384,-4571,23,-350,-157,139
957,-7575,2,380,-4568,23,-353,-157,141
958,-7580,-1,370,-4567,23,-353,-156,137
959,-7577,-1,361,-4568,23,-350,-157,137
960,-7572,1,362,-4572,23,-350,-155,139
961,-7580,-2,364,-4573,23,-350,-152,135
962,-7583,-7,383,-4570,23,-352,-152,138
963,-7577,-8,375,-4571,23,-351,-153,138
964,-7576,-4,381,-4575,23,-349,-159,140
965,-7575,7,375,-4575,23,-350,-160,136
966,-7578,10,378,-4575,23,-350,-157,136
967,-7580,-8,381,-4575,23,-347,-152,138
968,-7576,-12,388,-4573,23,-346,-152,139
969,-7575,-10,387,-4575,23,-350,-150,142
970,-7576,-3,390,-4573,23,-352,-155,139
971,-7570,-4,386,-4571,23,-349,-151,136
972,-7574,-7,397,-4569,23,-344,-151,138
973,-7577,-8,401,-4573,23,-346,-150,140
974,-7574,-3,401,-4576,23,-350,-153,143
975,-7571,-6,404,-4575,23,-352,-156,143
976,-7577,-11,393,-4573,23,-351,-162,139
977,-7572,-4,379,-4573,23,-354,-157,140
978,-7571,-10,376,-4572,23,-354,-155,141
979,-7575,-11,365,-4575,23,-351,-152,138
980,-7573,-4,364,-4575,23,-351,-152,142
981,-7584,-14,379,-4574,23,-347,-152,141
982,-7581,-5,386,-4576,23,-348,-154,140
983,-7573,3,384,-4576,23,-351,-156,139
984,-7579,3,376,-4573,23,-348,-152,140
985,-7570,1,382,-4572,23,-352,-152,141
986,-7569,-1,376,-4572,23,-352,-153,137
987,-7568,-6,381,-4571,23,-349,-155,135
988,-7562,-13,390,-4570,23,-349,-154,138
989,-7569,-4,384,-4571,23,-347,-157,138
990,-7579,1,387,-4569,23,-350,-157,139
991,-7575,-5,379,-4570,23,-350,-158,140
992,-7578,-8,382,-4573,23,-347,-157,139
993,-7581,-19,376,-4574,23,-348,-154,140
994,-7576,-9,372,-4572,23,-349,-155,140
995,-7573,-11,376,-4571,23,-351,-153,141
996,-7580,-5,367,-4571,23,-346,-155,141
997,-7574,2,389,-4573,23,-349,-160,141
998,-7572,2,377,-4572,23,-348,-156,140
