,acc_X,acc_Y,acc_Z,temp,tempC,gyr_X,gyr_Y,gyr_Z
0,-3792,5,194,-4627,23,-348,-150,143
1,-3791,3,192,-4627,23,-348,-149,141
2,-3792,3,191,-4627,23,-349,-151,141
3,-3789,0,191,-4626,23,-349,-152,140
4,-3787,0,192,-4626,23,-347,-156,143
5,-3786,2,189,-4624,23,-346,-157,141
6,-3785,-4,189,-4624,23,-349,-160,140
7,-3784,-2,188,-4623,23,-349,-158,140
8,-3785,-1,186,-4623,23,-349,-158,139
9,-3785,0,184,-4623,23,-350,-157,139
10,-3785,1,182,-4621,23,-350,-155,138
11,-3786,-2,182,-4622,23,-349,-154,139
12,-3786,-4,183,-4622,23,-351,-156,141
13,-3786,-3,183,-4623,23,-350,-154,140
14,-3786,-3,184,-4624,23,-350,-154,139
15,-3786,-3,185,-4624,23,-351,-153,140
16,-3788,-3,184,-4623,23,-353,-153,141
17,-3786,-3,186,-4624,23,-353,-151,141
18,-3789,-3,188,-4624,23,-353,-151,140
19,-3789,-3,188,-4625,23,-351,-152,139
20,-3788,-3,188,-4623,23,-347,-151,141
21,-3790,-3,183,-4624,23,-347,-151,138
22,-3790,-4,189,-4626,23,-348,-152,139
23,-3788,-4,192,-4625,23,-350,-152,138
24,-3786,-5,193,-4624,23,-348,-154,138
25,-3788,-4,192,-4623,23,-348,-154,140
26,-3789,-1,191,-4619,23,-349,-154,139
27,-3790,0,195,-4620,23,-350,-154,139
28,-3789,-1,196,-4620,23,-350,-155,139
29,-3789,-1,193,-4621,23,-349,-154,139
30,-3789,1,194,-4621,23,-349,-154,138
31,-3791,1,194,-4620,23,-350,-153,137
32,-3791,1,190,-4618,23,-348,-151,137
33,-3792,0,190,-4619,23,-349,-153,138
34,-3790,0,191,-4620,23,-350,-153,137
35,-3787,-1,190,-4621,23,-351,-154,139
36,-3789,0,193,-4620,23,-351,-152,136
37,-3789,-1,191,-4620,23,-350,-151,136
38,-3789,0,192,-4619,23,-348,-152,138
39,-3787,0,189,-4619,23,-348,-155,140
40,-3788,-3,187,-4622,23,-349,-154,139
41,-3788,-4,185,-4620,23,-346,-155,141
42,-3788,-6,187,-4622,23,-347,-153,141
43,-3791,-7,189,-4623,23,-346,-153,142
44,-3790,-5,188,-4624,23,-346,-153,140
45,-3791,-4,185,-4623,23,-347,-153,141
46,-3788,-2,190,-4621,23,-347,-152,142
47,-3789,-2,189,-4619,23,-347,-156,142
48,-3788,-4,190,-4621,23,-346,-155,141
49,-3788,-1,189,-4622,23,-348,-156,143
50,-3789,-1,187,-4620,23,-348,-155,141
51,-3792,0,189,-4621,23,-350,-154,143
52,-3791,-1,186,-4621,23,-348,-152,141
53,-3791,0,191,-4618,23,-349,-154,141
54,-3789,-1,192,-4618,23,-348,-155,140
55,-3791,-3,193,-4618,23,-348,-153,140
56,-3790,-2,191,-4618,23,-348,-150,142
57,-3789,-2,191,-4619,23,-349,-150,141
58,-3790,-3,191,-4618,23,-349,-153,141
59,-3787,-5,192,-4619,23,-350,-153,142
60,-3787,-8,195,-4618,23,-349,-152,141
61,-3788,-6,197,-4618,23,-349,-152,142
62,-3791,-5,196,-4619,23,-347,-153,143
63,-3792,-6,193,-4618,23,-346,-156,143
64,-3787,-5,190,-4619,23,-344,-157,142
65,-3787,-6,186,-4619,23,-346,-156,144
66,-3788,-3,188,-4619,23,-347,-156,142
67,-3789,-2,191,-4619,23,-347,-155,139
68,-3789,0,191,-4620,23,-346,-152,142
69,-3787,0,190,-4619,23,-347,-150,139
70,-3787,-1,192,-4620,23,-345,-149,138
71,-3785,-1,195,-4620,23,-347,-151,139
72,-3785,-2,195,-4620,23,-346,-151,139
73,-3787,-4,198,-4619,23,-345,-152,140
74,-3788,-4,195,-4620,23,-345,-153,141
75,-3789,-4,196,-4621,23,-344,-153,142
76,-3791,-5,194,-4621,23,-343,-151,140
77,-3789,-6,192,-4620,23,-344,-149,141
78,-3789,-5,189,-4620,23,-344,-150,140
79,-3789,-5,189,-4620,23,-345,-152,140
80,-3790,-6,193,-4621,23,-346,-150,142
81,-3790,-7,194,-4620,23,-348,-151,141
82,-3789,-6,190,-4620,23,-349,-152,141
83,-3788,-4,191,-4619,23,-348,-152,142
84,-3789,-4,191,-4619,23,-349,-153,142
85,-3789,-4,190,-4617,23,-348,-151,141
86,-3789,-2,192,-4618,23,-348,-152,143
87,-3789,-2,192,-4619,23,-348,-150,142
88,-3790,-4,191,-4620,23,-348,-149,140
89,-3789,-3,189,-4623,23,-347,-148,139
90,-3787,-5,190,-4623,23,-345,-149,140
91,-3788,-6,192,-4624,23,-347,-149,139
92,-3790,-6,189,-4623,23,-347,-150,139
93,-3790,-4,189,-4623,23,-348,-151,138
94,-3791,-5,190,-4624,23,-350,-152,140
95,-3791,-7,191,-4622,23,-349,-152,139
96,-3791,-9,190,-4622,23,-349,-152,139
97,-3789,-6,190,-4622,23,-349,-151,139
98,-3788,-4,188,-4622,23,-351,-149,139
99,-3787,-3,188,-4622,23,-351,-152,140
100,-3786,-3,186,-4622,23,-350,-152,139
101,-3786,-2,189,-4623,23,-352,-152,141
102,-3787,-3,192,-4624,23,-353,-154,141
103,-3786,-5,191,-4623,23,-351,-153,141
104,-3788,-4,186,-4622,23,-351,-151,139
105,-3787,-2,191,-4622,23,-353,-151,141
106,-3786,-3,191,-4622,23,-351,-153,142
107,-3786,-2,191,-4621,23,-350,-153,141
108,-3788,-2,190,-4620,23,-348,-152,140
109,-3787,-3,190,-4619,23,-348,-151,140
110,-3788,-3,187,-4618,23,-346,-152,140
111,-3787,-2,189,-4620,23,-344,-152,139
112,-3788,-1,189,-4620,23,-343,-153,137
113,-3787,-2,189,-4620,23,-344,-153,139
114,-3788,-2,193,-4619,23,-343,-154,140
115,-3787,-2,192,-4622,23,-345,-151,139
116,-3789,0,188,-4624,23,-346,-150,139
117,-3789,0,187,-4622,23,-346,-150,139
118,-3788,0,187,-4620,23,-345,-149,138
119,-3786,0,187,-4620,23,-345,-150,140
120,-3786,0,189,-4618,23,-348,-150,144
121,-3787,-1,188,-4619,23,-348,-151,143
122,-3786,-1,186,-4620,23,-347,-153,144
123,-3787,-1,186,-4621,23,-346,-153,141
124,-3787,-1,184,-4622,23,-347,-152,140
125,-3785,-3,185,-4622,23,-348,-153,139
126,-3789,-4,187,-4623,23,-349,-152,141
127,-3789,-2,187,-4622,23,-349,-152,140
128,-3790,0,183,-4622,23,-349,-150,141
129,-3788,1,179,-4621,23,-350,-150,140
130,-3791,1,182,-4621,23,-350,-151,140
131,-3788,-3,186,-4621,23,-349,-153,141
132,-3788,-2,188,-4621,23,-351,-151,143
133,-3791,-2,186,-4622,23,-348,-151,142
134,-3790,-2,183,-4621,23,-348,-151,139
135,-3790,-3,184,-4621,23,-349,-151,140
136,-3789,-3,181,-4622,23,-349,-156,140
137,-3789,-1,181,-4620,23,-349,-156,140
138,-3788,-1,185,-4622,23,-349,-154,139
139,-3789,-4,187,-4620,23,-349,-155,141
140,-3790,-4,187,-4619,23,-348,-154,141
141,-3788,-1,185,-4619,23,-348,-151,142
142,-3789,0,187,-4620,23,-350,-153,138
143,-3790,-1,189,-4618,23,-351,-151,137
144,-3792,-3,192,-4620,23,-350,-151,141
145,-3791,-2,193,-4620,23,-348,-153,141
146,-3789,-3,196,-4619,23,-349,-152,139
147,-3790,-3,189,-4620,23,-349,-151,137
148,-3791,-4,188,-4619,23,-349,-152,138
149,-3791,-1,190,-4620,23,-349,-149,139
150,-3791,-2,190,-4620,23,-349,-150,138
151,-3791,-2,186,-4621,23,-348,-150,139
152,-3793,-2,185,-4621,23,-350,-153,140
153,-3794,-3,183,-4621,23,-350,-154,142
154,-3792,-3,185,-4621,23,-351,-156,142
155,-3791,-3,182,-4620,23,-351,-154,142
156,-3791,-3,181,-4620,23,-352,-152,143
157,-3789,-3,181,-4620,23,-351,-152,141
158,-3790,-3,183,-4621,23,-350,-149,143
159,-3790,-1,187,-4621,23,-351,-149,142
160,-3790,0,191,-4623,23,-349,-149,142
161,-3791,0,191,-4622,23,-351,-149,142
162,-3791,-1,191,-4620,23,-352,-149,142
163,-3789,1,188,-4619,23,-352,-149,140
164,-3791,2,191,-4620,23,-352,-150,140
165,-3791,0,190,-4620,23,-353,-150,142
166,-3787,0,187,-4622,23,-353,-150,144
167,-3788,0,184,-4618,23,-350,-150,144
168,-3790,-1,184,-4618,23,-353,-150,141
169,-3790,-1,186,-4616,23,-353,-150,141
170,-3790,0,190,-4618,23,-352,-152,138
171,-3787,0,188,-4618,23,-352,-153,136
172,-3786,0,193,-4619,23,-353,-152,138
173,-3787,1,190,-4619,23,-351,-153,139
174,-3788,1,191,-4618,23,-350,-154,138
175,-3787,-2,192,-4619,23,-348,-152,140
176,-3787,-2,194,-4620,23,-347,-152,139
177,-3786,-1,193,-4620,23,-348,-152,139
178,-3789,0,192,-4619,23,-348,-154,137
179,-3789,1,191,-4619,23,-347,-152,137
180,-3791,0,193,-4619,23,-349,-152,138
181,-3790,-3,193,-4619,23,-347,-152,140
182,-3792,-3,190,-4620,23,-349,-154,140
183,-3791,-6,192,-4621,23,-349,-155,140
184,-3791,-5,193,-4622,23,-351,-154,141
185,-3791,-4,189,-4623,23,-348,-153,140
186,-3790,-3,190,-4622,23,-347,-155,139
187,-3788,-3,186,-4623,23,-345,-154,140
188,-3787,-3,186,-4625,23,-346,-153,138
189,-3787,-1,188,-4623,23,-347,-150,139
190,-3788,-1,188,-4622,23,-347,-152,140
191,-3789,0,190,-4621,23,-345,-151,140
192,-3791,0,187,-4621,23,-345,-153,139
193,-3788,-2,190,-4622,23,-345,-154,140
194,-3788,-3,190,-4620,23,-346,-153,141
195,-3786,-3,193,-4619,23,-348,-151,140
196,-3788,-3,191,-4620,23,-348,-154,140
197,-3790,-3,187,-4618,23,-350,-156,141
198,-3789,-2,186,-4619,23,-348,-155,140
199,-3789,0,186,-4620,23,-350,-154,139
200,-3792,-3,185,-4621,23,-350,-152,141
201,-3793,-3,189,-4619,23,-350,-153,142
202,-3794,-1,188,-4620,23,-352,-152,140
203,-3795,2,186,-4619,23,-351,-152,140
204,-3791,4,182,-4618,23,-351,-154,139
205,-3790,3,183,-4618,23,-348,-156,141
206,-3790,1,182,-4617,23,-346,-159,140
207,-3792,2,181,-4617,23,-349,-158,140
208,-3792,-1,183,-4619,23,-349,-158,140
209,-3791,-4,182,-4620,23,-349,-156,139
210,-3792,-4,183,-4621,23,-349,-157,140
211,-3790,-2,183,-4620,23,-348,-155,140
212,-3791,-4,187,-4619,23,-348,-153,139
213,-3790,-5,189,-4617,23,-349,-151,139
214,-3791,-5,186,-4619,23,-349,-155,140
215,-3792,0,185,-4619,23,-347,-154,138
216,-3790,-3,187,-4620,23,-347,-153,139
217,-3789,-2,189,-4618,23,-347,-152,139
218,-3791,-1,189,-4617,23,-347,-151,139
219,-3791,-2,190,-4617,23,-346,-153,140
220,-3791,-1,190,-4617,23,-346,-154,141
221,-3792,0,186,-4618,23,-347,-155,140
222,-3790,-1,189,-4618,23,-349,-155,139
223,-3790,-1,193,-4618,23,-349,-158,140
224,-3789,0,193,-4618,23,-348,-155,140
225,-3789,0,190,-4617,23,-350,-157,142
226,-3791,0,189,-4618,23,-350,-157,141
227,-3790,0,189,-4618,23,-351,-157,142
228,-3791,0,193,-4618,23,-350,-155,144
229,-3792,1,192,-4618,23,-351,-156,143
230,-3790,-1,193,-4617,23,-352,-155,143
231,-3788,-1,192,-4618,23,-352,-154,143
232,-3788,-3,189,-4619,23,-352,-157,143
233,-3787,-3,188,-4619,23,-353,-154,144
234,-3788,0,188,-4619,23,-351,-152,144
235,-3789,0,187,-4619,23,-351,-154,144
236,-3788,2,189,-4620,23,-349,-155,145
237,-3788,1,187,-4618,23,-350,-155,143
238,-3789,2,189,-4617,23,-350,-155,143
239,-3788,0,186,-4617,23,-349,-158,144
240,-3787,1,186,-4617,23,-346,-155,143
241,-3785,0,184,-4616,23,-349,-154,140
242,-3788,-1,186,-4616,23,-349,-154,138
243,-3789,-1,187,-4617,23,-351,-156,138
244,-3787,-1,192,-4615,23,-351,-154,137
245,-3784,-1,192,-4615,23,-351,-153,137
246,-3786,-3,194,-4614,23,-349,-155,136
247,-3787,-4,194,-4615,23,-350,-154,137
248,-3787,-5,189,-4615,23,-348,-153,137
249,-3788,-7,190,-4613,23,-349,-153,138
250,-3788,-8,191,-4617,23,-347,-153,137
251,-3788,-7,193,-4618,23,-348,-154,137
252,-3789,-4,194,-4618,23,-348,-155,139
253,-3787,-5,191,-4617,23,-347,-153,139
254,-3789,-2,192,-4617,23,-347,-154,139
255,-3788,-2,191,-4616,23,-348,-151,139
256,-3789,-3,190,-4614,23,-348,-153,140
257,-3789,-2,189,-4614,23,-349,-153,143
258,-3790,-3,189,-4613,23,-348,-157,141
259,-3792,-6,188,-4615,23,-348,-157,140
260,-3791,-5,189,-4618,23,-348,-155,140
261,-3791,-2,185,-4616,23,-348,-158,140
262,-3793,-1,189,-4617,23,-349,-155,140
263,-3790,-1,187,-4618,23,-349,-153,140
264,-3790,-4,186,-4616,23,-350,-155,139
265,-3790,-3,184,-4616,23,-349,-157,140
266,-3789,-3,186,-4617,23,-347,-155,138
267,-3790,-1,187,-4616,23,-347,-156,138
268,-3790,-2,188,-4616,23,-348,-157,138
269,-3788,1,190,-4615,23,-348,-157,139
270,-3790,1,192,-4615,23,-346,-157,140
271,-3789,0,197,-4616,23,-348,-157,140
272,-3791,-1,191,-4616,23,-348,-156,139
273,-3791,-3,186,-4617,23,-348,-158,141
274,-3789,-3,188,-4615,23,-349,-156,140
275,-3791,-2,187,-4616,23,-350,-153,140
276,-3792,-3,188,-4616,23,-349,-153,140
277,-3791,-3,188,-4617,23,-349,-154,139
278,-3789,-2,189,-4615,23,-349,-154,137
279,-3787,-1,191,-4616,23,-347,-155,136
280,-3789,-3,194,-4617,23,-348,-155,135
281,-3790,-4,194,-4615,23,-349,-153,134
282,-3789,-4,193,-4616,23,-350,-153,137
283,-3788,-2,196,-4614,23,-349,-150,136
284,-3788,-3,198,-4614,23,-349,-151,138
285,-3789,-4,196,-4614,23,-349,-152,138
286,-3791,-2,193,-4613,23,-350,-152,138
287,-3792,-4,194,-4613,23,-349,-150,138
288,-3792,-5,189,-4613,23,-349,-151,137
289,-3788,-2,189,-4614,23,-348,-151,137
290,-3788,-4,191,-4613,23,-349,-152,140
291,-3789,-6,190,-4613,23,-350,-151,140
292,-3791,-7,190,-4614,23,-351,-152,141
293,-3789,-5,186,-4613,23,-350,-153,142
294,-3789,-3,186,-4615,23,-350,-156,142
295,-3790,-3,189,-4618,23,-349,-154,144
296,-3789,-2,185,-4617,23,-347,-153,143
297,-3787,-2,184,-4618,23,-348,-155,141
298,-3790,-1,183,-4618,23,-347,-154,141
299,-3792,0,181,-4617,23,-349,-155,140
300,-3791,0,184,-4617,23,-350,-156,140
301,-3790,-1,184,-4617,23,-350,-155,139
302,-3792,-1,188,-4618,23,-349,-155,141
303,-3791,-3,191,-4619,23,-345,-154,141
304,-3792,-5,191,-4618,23,-347,-152,142
305,-3794,-3,191,-4617,23,-347,-150,141
306,-3793,-4,190,-4617,23,-348,-152,143
307,-3793,-8,190,-4616,23,-346,-154,140
308,-3792,-7,188,-4614,23,-349,-155,138
309,-3790,-6,189,-4615,23,-351,-154,137
310,-3790,-3,191,-4616,23,-348,-154,139
311,-3789,-4,188,-4616,23,-347,-156,140
312,-3789,-4,191,-4615,23,-348,-156,140
313,-3788,-4,191,-4615,23,-348,-157,142
314,-3786,-4,195,-4615,23,-347,-155,144
315,-3787,-4,195,-4616,23,-348,-154,143
316,-3786,-4,193,-4616,23,-348,-155,142
317,-3788,0,193,-4616,23,-347,-156,143
318,-3787,-2,191,-4615,23,-346,-156,143
319,-3787,-1,186,-4613,23,-346,-156,144
320,-3788,-2,186,-4613,23,-348,-155,144
321,-3788,-2,186,-4612,23,-348,-157,143
322,-3788,-2,187,-4615,23,-345,-159,142
323,-3787,-1,190,-4615,23,-346,-155,143
324,-3787,-2,193,-4615,23,-344,-152,144
325,-3786,-3,196,-4613,23,-347,-152,143
326,-3787,-3,196,-4615,23,-347,-153,143
327,-3788,-3,195,-4616,23,-348,-155,141
328,-3788,-4,198,-4618,23,-348,-156,143
329,-3788,-5,198,-4617,23,-350,-157,144
330,-3790,-4,194,-4616,23,-348,-156,142
331,-3790,-4,194,-4616,23,-347,-158,141
332,-3790,-5,193,-4617,23,-348,-156,141
333,-3789,-3,191,-4616,23,-347,-155,140
334,-3788,-5,193,-4616,23,-345,-155,140
335,-3789,-6,192,-4615,23,-346,-155,141
336,-3788,-5,190,-4617,23,-348,-155,138
337,-3785,-5,187,-4618,23,-350,-154,138
338,-3787,-5,187,-4618,23,-348,-152,141
339,-3788,-4,189,-4618,23,-347,-151,141
340,-3789,-5,187,-4617,23,-347,-152,139
341,-3789,-6,188,-4618,23,-349,-152,139
342,-3788,-3,187,-4616,23,-349,-152,139
343,-3787,-4,190,-4616,23,-348,-152,140
344,-3787,-4,188,-4614,23,-350,-150,141
345,-3788,-2,187,-4613,23,-349,-151,142
346,-3788,0,186,-4614,23,-349,-153,142
347,-3785,-1,186,-4616,23,-349,-152,142
348,-3786,-2,187,-4617,23,-350,-151,141
349,-3787,0,185,-4618,23,-348,-152,141
350,-3789,-1,187,-4619,23,-348,-151,140
351,-3789,-3,191,-4618,23,-347,-151,140
352,-3789,-4,191,-4619,23,-346,-152,140
353,-3788,-2,189,-4618,23,-346,-152,139
354,-3786,-5,191,-4617,23,-345,-153,140
355,-3783,-6,189,-4617,23,-345,-154,140
356,-3786,-6,188,-4615,23,-345,-155,139
357,-3789,-5,192,-4617,23,-347,-156,140
358,-3788,-6,190,-4617,23,-347,-155,142
359,-3788,-5,193,-4618,23,-346,-154,142
360,-3785,-4,193,-4616,23,-347,-153,140
361,-3786,-4,191,-4618,23,-349,-155,142
362,-3788,-4,189,-4617,23,-349,-156,143
363,-3786,-8,188,-4615,23,-349,-156,144
364,-3789,-7,189,-4616,23,-347,-156,144
365,-3789,-5,189,-4615,23,-349,-158,143
366,-3787,-4,191,-4616,23,-348,-157,142
367,-3790,-1,187,-4616,23,-349,-156,143
368,-3791,-2,183,-4616,23,-348,-155,142
369,-3793,-1,184,-4615,23,-350,-155,140
370,-3794,-4,186,-4616,23,-350,-156,140
371,-3794,-3,184,-4615,23,-348,-153,138
372,-3790,-1,184,-4619,23,-347,-153,140
373,-3791,-3,189,-4616,23,-348,-152,140
374,-3790,-3,191,-4615,23,-348,-154,139
375,-3789,-3,189,-4613,23,-349,-152,139
376,-3791,-2,194,-4611,23,-349,-153,141
377,-3788,-2,192,-4610,23,-349,-154,140
378,-3786,-4,188,-4610,23,-349,-153,140
379,-3786,-6,184,-4611,23,-349,-152,140
380,-3788,-5,185,-4612,23,-347,-152,139
381,-3789,-5,185,-4613,23,-347,-154,139
382,-3790,-5,186,-4612,23,-350,-155,139
383,-3787,-6,186,-4613,23,-351,-153,143
384,-3787,-4,186,-4613,23,-350,-155,142
385,-3789,-7,185,-4613,23,-350,-157,141
386,-3789,-5,184,-4614,23,-350,-157,140
387,-3789,-5,185,-4612,23,-351,-156,138
388,-3789,-6,185,-4613,23,-351,-154,137
389,-3787,-4,185,-4614,23,-350,-154,138
390,-3790,-2,188,-4613,23,-352,-156,141
391,-3789,-3,192,-4614,23,-352,-159,140
392,-3791,0,189,-4613,23,-352,-158,140
393,-3793,-2,192,-4612,23,-351,-157,142
394,-3793,-1,190,-4612,23,-353,-156,141
395,-3789,3,190,-4611,23,-352,-156,140
396,-3788,-1,191,-4611,23,-350,-155,138
397,-3789,-2,192,-4611,23,-349,-154,138
398,-3789,-3,190,-4612,23,-351,-156,140
399,-3790,-2,192,-4610,23,-350,-154,141
400,-3788,-3,187,-4613,23,-350,-157,140
401,-3788,-2,183,-4613,23,-349,-158,141
402,-3786,-1,187,-4613,23,-348,-156,141
403,-3788,-1,183,-4613,23,-345,-156,142
404,-3788,2,186,-4612,23,-345,-155,142
405,-3789,2,188,-4613,23,-344,-154,142
406,-3790,2,186,-4614,23,-344,-152,143
407,-3789,1,188,-4614,23,-347,-153,144
408,-3790,0,189,-4613,23,-346,-152,144
409,-3791,1,186,-4614,23,-347,-150,141
410,-3792,-1,183,-4612,23,-346,-149,143
411,-3792,-1,185,-4613,23,-345,-150,143
412,-3792,0,188,-4612,23,-346,-149,143
413,-3790,-3,190,-4610,23,-347,-150,140
414,-3788,-5,188,-4609,23,-348,-153,140
415,-3786,-6,189,-4608,23,-350,-153,140
416,-3789,-6,190,-4611,23,-349,-154,141
417,-3788,-4,188,-4609,23,-349,-153,142
418,-3786,-5,190,-4611,23,-348,-156,144
419,-3788,-6,190,-4611,23,-349,-157,143
420,-3787,-5,194,-4611,23,-348,-158,142
421,-3789,-5,193,-4612,23,-346,-157,141
422,-3790,-5,191,-4612,23,-347,-156,142
423,-3788,-6,188,-4614,23,-346,-155,142
424,-3786,-5,186,-4615,23,-348,-156,140
425,-3787,-7,190,-4615,23,-347,-157,142
426,-3787,-5,190,-4617,23,-345,-157,141
427,-3787,-2,192,-4615,23,-346,-155,142
428,-3787,-1,193,-4616,23,-346,-155,142
429,-3789,-1,192,-4617,23,-348,-155,143
430,-3789,0,194,-4618,23,-348,-153,145
431,-3789,0,195,-4617,23,-348,-154,143
432,-3787,-2,199,-4616,23,-347,-154,142
433,-3788,1,195,-4616,23,-346,-153,140
434,-3789,-4,193,-4617,23,-346,-151,142
435,-3788,-5,193,-4616,23,-346,-153,141
436,-3787,-5,196,-4615,23,-348,-154,140
437,-3786,-4,192,-4615,23,-348,-153,141
438,-3787,-3,191,-4615,23,-348,-151,138
439,-3788,-5,192,-4615,23,-349,-150,140
440,-3789,-4,192,-4613,23,-347,-150,141
441,-3786,-5,190,-4614,23,-345,-150,141
442,-3786,-8,184,-4616,23,-345,-147,142
443,-3785,-6,186,-4615,23,-347,-150,141
444,-3786,-5,188,-4615,23,-347,-150,139
445,-3784,-7,185,-4613,23,-349,-151,139
446,-3787,-4,189,-4613,23,-348,-151,140
447,-3788,-4,189,-4614,23,-349,-152,139
448,-3790,-4,189,-4613,23,-349,-153,140
449,-3788,-2,189,-4612,23,-349,-154,139
450,-3788,-2,188,-4613,23,-350,-153,141
451,-3786,-3,185,-4611,23,-349,-154,140
452,-3787,-5,188,-4610,23,-349,-154,142
453,-3788,-5,185,-4611,23,-348,-154,140
454,-3788,-3,186,-4612,23,-349,-153,141
455,-3788,-3,191,-4611,23,-348,-153,143
456,-3785,-1,185,-4610,23,-350,-153,140
457,-3784,-1,184,-4609,23,-350,-154,139
458,-3786,-4,186,-4610,23,-351,-155,139
459,-3785,-2,186,-4609,23,-349,-155,139
460,-3785,-1,186,-4610,23,-350,-152,140
461,-3787,-1,187,-4612,23,-348,-153,140
462,-3786,-2,190,-4614,23,-349,-154,140
463,-3786,-1,189,-4613,23,-349,-155,139
464,-3788,-2,185,-4615,23,-350,-155,139
465,-3789,-5,187,-4615,23,-349,-154,138
466,-3789,-4,187,-4614,23,-348,-154,135
467,-3789,-5,188,-4613,23,-349,-156,136
468,-3790,-4,186,-4613,23,-348,-156,138
469,-3788,-4,187,-4612,23,-347,-154,136
470,-3790,-2,190,-4613,23,-349,-152,138
471,-3792,-4,191,-4613,23,-349,-151,138
472,-3790,-4,192,-4614,23,-347,-149,139
473,-3790,-3,192,-4613,23,-345,-149,139
474,-3790,-5,194,-4611,23,-347,-151,138
475,-3792,-4,191,-4612,23,-348,-152,138
476,-3790,-4,189,-4613,23,-349,-151,138
477,-3789,-6,189,-4614,23,-352,-152,138
478,-3788,-4,191,-4613,23,-353,-152,140
479,-3786,-5,192,-4615,23,-351,-153,141
480,-3786,-5,192,-4615,23,-351,-157,141
481,-3788,-5,195,-4612,23,-349,-156,139
482,-3789,-7,194,-4611,23,-350,-155,141
483,-3790,-10,195,-4612,23,-350,-154,141
484,-3789,-11,195,-4611,23,-348,-154,141
485,-3789,-11,192,-4611,23,-347,-153,139
486,-3786,-10,191,-4612,23,-346,-154,139
487,-3787,-10,191,-4612,23,-346,-151,139
488,-3785,-7,186,-4611,23,-347,-150,141
489,-3786,-7,190,-4612,23,-346,-152,140
490,-3789,-6,190,-4613,23,-347,-154,141
491,-3789,-8,192,-4611,23,-348,-152,142
492,-3788,-4,196,-4610,23,-346,-157,143
493,-3787,-2,197,-4611,23,-349,-158,142
494,-3788,-4,195,-4612,23,-348,-156,140
495,-3788,-4,195,-4612,23,-346,-154,139
496,-3788,-5,193,-4610,23,-349,-154,139
497,-3788,-6,191,-4613,23,-350,-155,142
498,-3786,-3,191,-4613,23,-351,-156,139
499,-3786,-5,190,-4611,23,-351,-156,140
500,-3786,-5,191,-4609,23,-353,-155,142
501,-3787,-6,194,-4609,23,-354,-155,140
502,-3788,-4,193,-4610,23,-354,-155,140
503,-3787,-4,193,-4611,23,-354,-153,140
504,-3787,-7,192,-4610,23,-353,-156,140
505,-3785,-6,192,-4612,23,-352,-156,140
506,-3786,-3,194,-4611,23,-350,-155,139
507,-3785,-3,197,-4609,23,-348,-155,139
508,-3787,-4,193,-4611,23,-346,-153,138
509,-3787,-1,190,-4612,23,-349,-152,139
510,-3786,-1,188,-4611,23,-349,-153,140
511,-3786,0,189,-4611,23,-348,-151,140
512,-3787,-2,193,-4613,23,-346,-151,140
513,-3787,-5,192,-4613,23,-347,-150,139
514,-3790,-7,192,-4614,23,-347,-150,139
515,-3790,-7,191,-4613,23,-348,-151,139
516,-3788,-5,192,-4613,23,-347,-153,138
517,-3786,-6,190,-4613,23,-348,-152,136
518,-3787,-5,189,-4612,23,-350,-154,138
519,-3787,-6,188,-4612,23,-350,-151,139
520,-3787,-8,191,-4611,23,-349,-151,140
521,-3786,-8,190,-4612,23,-348,-153,139
522,-3788,-6,191,-4613,23,-350,-150,141
523,-3787,-3,188,-4614,23,-353,-154,141
524,-3789,-7,188,-4614,23,-352,-152,144
525,-3787,-6,187,-4613,23,-351,-154,143
526,-3789,-5,188,-4614,23,-350,-154,141
527,-3789,-4,189,-4614,23,-350,-154,140
528,-3789,-5,189,-4612,23,-350,-154,141
529,-3791,-5,190,-4614,23,-348,-154,142
530,-3793,-6,189,-4612,23,-348,-154,141
531,-3792,-5,187,-4611,23,-348,-155,141
532,-3792,-9,184,-4610,23,-346,-154,143
533,-3791,-6,187,-4612,23,-347,-153,143
534,-3790,-4,189,-4610,23,-348,-151,141
535,-3792,-2,189,-4608,23,-348,-153,140
536,-3791,2,190,-4607,23,-348,-151,140
537,-3791,0,190,-4607,23,-345,-150,139
538,-3793,-2,190,-4607,23,-345,-152,137
539,-3793,-5,187,-4608,23,-346,-152,138
540,-3793,-3,190,-4609,23,-347,-152,139
541,-3790,-4,190,-4608,23,-346,-153,139
542,-3790,-6,192,-4609,23,-344,-153,140
543,-3788,-7,193,-4611,23,-344,-155,138
544,-3789,-6,193,-4611,23,-343,-155,137
545,-3791,-3,191,-4612,23,-344,-156,137
546,-3790,-3,192,-4612,23,-346,-154,137
547,-3790,-4,191,-4613,23,-346,-155,139
548,-3786,-7,190,-4614,23,-345,-154,140
549,-3788,-5,189,-4613,23,-345,-154,138
550,-3786,-6,190,-4612,23,-345,-154,139
551,-3788,-5,188,-4612,23,-347,-153,139
552,-3787,-3,186,-4613,23,-348,-156,139
553,-3789,-3,186,-4613,23,-349,-156,136
554,-3789,-2,186,-4613,23,-348,-155,135
555,-3793,-2,186,-4612,23,-349,-154,136
556,-3790,-2,189,-4611,23,-350,-156,137
557,-3787,-3,191,-4611,23,-348,-155,139
558,-3787,-3,190,-4613,23,-349,-156,139
559,-3788,-5,190,-4613,23,-349,-155,138
560,-3789,-6,189,-4612,23,-347,-154,139
561,-3790,-5,191,-4611,23,-348,-155,138
562,-3790,-4,191,-4612,23,-347,-156,138
563,-3790,-6,191,-4612,23,-347,-156,138
564,-3790,-5,185,-4611,23,-347,-155,137
565,-3790,-5,185,-4612,23,-347,-154,138
566,-3791,-6,187,-4611,23,-350,-154,141
567,-3792,-3,192,-4611,23,-349,-153,142
568,-3792,-4,192,-4610,23,-346,-154,140
569,-3794,-4,196,-4611,23,-346,-155,140
570,-3793,-2,196,-4610,23,-343,-154,138
571,-3792,-3,198,-4611,23,-346,-154,138
572,-3790,-5,197,-4612,23,-349,-153,140
573,-3791,-4,196,-4611,23,-349,-153,141
574,-3792,-3,193,-4612,23,-348,-152,141
575,-3791,-4,192,-4613,23,-349,-151,142
576,-3791,-3,185,-4614,23,-350,-151,142
577,-3791,-1,186,-4613,23,-349,-154,140
578,-3793,-1,186,-4611,23,-349,-155,140
579,-3793,-2,184,-4612,23,-349,-155,140
580,-3792,0,184,-4613,23,-348,-157,142
581,-3792,-1,184,-4612,23,-348,-157,141
582,-3791,-2,184,-4614,23,-347,-156,143
583,-3789,-2,186,-4613,23,-347,-155,143
584,-3787,-3,183,-4612,23,-348,-156,142
585,-3789,-2,180,-4613,23,-349,-156,141
586,-3789,-3,181,-4612,23,-349,-156,142
587,-3789,-3,180,-4613,23,-349,-157,139
588,-3790,-4,181,-4611,23,-348,-156,140
589,-3789,-3,182,-4612,23,-348,-154,142
590,-3786,-3,184,-4611,23,-348,-156,143
591,-3787,-4,189,-4610,23,-351,-157,143
592,-3787,-4,188,-4609,23,-353,-155,141
593,-3790,-4,187,-4610,23,-352,-155,141
594,-3788,-3,189,-4610,23,-349,-153,140
595,-3787,-3,188,-4609,23,-349,-154,141
596,-3790,-2,189,-4609,23,-348,-153,142
597,-3791,-2,189,-4609,23,-347,-152,141
598,-3789,-1,190,-4609,23,-346,-150,142
599,-3789,-1,190,-4610,23,-344,-153,142
600,-3789,-3,191,-4611,23,-346,-152,140
601,-3790,-2,191,-4609,23,-346,-153,139
602,-3794,0,192,-4608,23,-346,-155,138
603,-3791,-2,192,-4608,23,-346,-155,139
604,-3792,-2,189,-4608,23,-346,-155,139
605,-3788,-3,189,-4605,23,-344,-154,142
606,-3793,-2,189,-4606,23,-348,-154,143
607,-3791,2,186,-4605,23,-347,-158,143
608,-3794,0,190,-4608,23,-347,-156,143
609,-3793,1,190,-4608,23,-347,-154,140
610,-3791,1,189,-4608,23,-347,-154,139
611,-3792,0,190,-4607,23,-348,-153,139
612,-3794,-2,189,-4607,23,-347,-157,140
613,-3792,-4,191,-4608,23,-348,-156,141
614,-3792,-4,194,-4610,23,-349,-156,140
615,-3793,-3,190,-4611,23,-349,-156,140
616,-3789,-3,186,-4613,23,-349,-157,140
617,-3789,0,187,-4612,23,-349,-157,138
618,-3788,-1,190,-4611,23,-348,-154,138
619,-3788,1,189,-4611,23,-348,-154,137
620,-3788,-2,188,-4611,23,-350,-155,138
621,-3787,-2,186,-4613,23,-348,-154,137
622,-3788,-1,191,-4613,23,-347,-153,137
623,-3791,-2,194,-4612,23,-345,-154,136
624,-3790,0,190,-4610,23,-348,-155,137
625,-3792,-3,190,-4610,23,-347,-155,137
626,-3792,-5,189,-4609,23,-347,-154,138
627,-3789,-7,188,-4612,23,-348,-155,138
628,-3790,-6,186,-4613,23,-347,-156,138
629,-3791,-6,185,-4614,23,-346,-154,137
630,-3791,-6,184,-4614,23,-349,-154,138
631,-3794,-5,190,-4614,23,-349,-155,139
632,-3797,-4,189,-4614,23,-350,-159,138
633,-3796,-6,191,-4613,23,-350,-158,139
634,-3795,-5,190,-4614,23,-348,-159,138
635,-3794,-5,188,-4612,23,-346,-157,140
636,-3794,-5,189,-4611,23,-344,-156,141
637,-3793,-5,187,-4610,23,-345,-158,141
638,-3791,-6,185,-4609,23,-347,-160,141
639,-3789,-5,187,-4609,23,-347,-156,141
640,-3790,-4,186,-4610,23,-346,-156,141
641,-3789,-3,188,-4610,23,-347,-155,141
642,-3790,-2,188,-4611,23,-348,-156,138
643,-3792,-3,187,-4612,23,-348,-156,138
644,-3791,-3,191,-4611,23,-349,-157,138
645,-3792,-2,189,-4613,23,-349,-156,139
646,-3794,-3,187,-4613,23,-347,-153,137
647,-3793,-2,188,-4611,23,-347,-157,136
648,-3792,-2,188,-4611,23,-347,-156,136
649,-3793,-2,189,-4611,23,-347,-156,139
650,-3792,-3,189,-4612,23,-348,-154,140
651,-3792,-2,192,-4612,23,-349,-153,140
652,-3792,-1,192,-4608,23,-348,-156,137
653,-3791,-1,192,-4608,23,-348,-154,137
654,-3792,1,187,-4608,23,-349,-154,138
655,-3790,3,188,-4608,23,-348,-153,138
656,-3789,2,188,-4608,23,-350,-155,139
657,-3789,1,192,-4610,23,-350,-152,139
658,-3789,-1,190,-4612,23,-351,-151,139
659,-3789,-4,189,-4612,23,-349,-151,140
660,-3788,-4,188,-4612,23,-348,-151,141
661,-3790,-2,187,-4613,23,-346,-150,139
662,-3790,-2,188,-4612,23,-348,-149,139
663,-3790,-4,190,-4612,23,-348,-151,137
664,-3787,-7,192,-4611,23,-348,-152,139
665,-3786,-6,191,-4612,23,-351,-154,137
666,-3787,-3,191,-4610,23,-352,-157,136
667,-3786,-5,189,-4611,23,-353,-157,138
668,-3787,-7,186,-4611,23,-349,-156,139
669,-3788,-7,186,-4611,23,-345,-156,140
670,-3789,-4,184,-4611,23,-345,-154,141
671,-3788,-4,184,-4610,23,-346,-155,141
672,-3784,-4,184,-4610,23,-346,-155,140
673,-3788,-3,187,-4612,23,-346,-154,138
674,-3788,-3,187,-4612,23,-348,-157,139
675,-3790,-3,188,-4612,23,-345,-157,140
676,-3791,-6,192,-4611,23,-345,-158,141
677,-3793,-6,191,-4613,23,-345,-157,142
678,-3792,-8,189,-4612,23,-347,-154,139
679,-3794,-7,186,-4614,23,-347,-153,138
680,-3791,-3,184,-4615,23,-346,-151,138
681,-3790,-3,186,-4615,23,-348,-153,139
682,-3789,0,187,-4615,23,-346,-155,137
683,-3788,0,186,-4615,23,-347,-155,138
684,-3784,-1,184,-4614,23,-347,-152,140
685,-3787,-1,187,-4613,23,-346,-153,140
686,-3788,-1,185,-4613,23,-347,-152,142
687,-3786,-1,185,-4613,23,-347,-152,141
688,-3786,-4,187,-4612,23,-348,-151,140
689,-3788,-6,190,-4611,23,-349,-151,139
690,-3789,-6,192,-4612,23,-350,-152,138
691,-3791,-5,192,-4612,23,-348,-153,139
692,-3791,-7,190,-4613,23,-348,-152,139
693,-3790,-3,185,-4611,23,-349,-152,139
694,-3790,-2,185,-4611,23,-350,-151,142
695,-3788,-3,185,-4609,23,-348,-151,143
696,-3789,-4,187,-4610,23,-349,-153,142
697,-3788,-4,184,-4608,23,-349,-153,144
698,-3788,-5,183,-4609,23,-350,-153,144
699,-3786,-5,186,-4606,23,-351,-155,143
700,-3787,-3,186,-4607,23,-350,-153,143
701,-3790,-4,186,-4605,23,-349,-150,141
702,-3789,-7,188,-4607,23,-350,-149,138
703,-3789,-6,185,-4608,23,-349,-151,138
704,-3789,-7,182,-4610,23,-347,-153,139
705,-3788,-6,182,-4608,23,-347,-154,139
706,-3790,-3,182,-4608,23,-349,-154,138
707,-3790,-5,185,-4609,23,-349,-153,136
708,-3789,-6,183,-4609,23,-349,-150,139
709,-3790,-5,185,-4609,23,-348,-150,140
710,-3788,-7,186,-4609,23,-349,-149,140
711,-3788,-7,185,-4608,23,-349,-151,141
712,-3789,-6,182,-4607,23,-349,-151,140
713,-3790,-5,180,-4607,23,-348,-150,137
714,-3789,-2,183,-4607,23,-347,-151,137
715,-3790,0,182,-4609,23,-347,-150,137
716,-3791,2,185,-4609,23,-347,-150,139
717,-3790,1,184,-4608,23,-348,-153,137
718,-3791,-2,185,-4609,23,-349,-152,138
719,-3788,-3,184,-4608,23,-349,-151,139
720,-3790,-3,185,-4606,23,-348,-151,139
721,-3788,-3,188,-4607,23,-348,-152,139
722,-3787,-5,189,-4607,23,-349,-152,139
723,-3787,-4,189,-4609,23,-349,-155,139
724,-3784,-2,187,-4608,23,-346,-154,138
725,-3783,-2,187,-4608,23,-346,-154,138
726,-3783,-3,184,-4609,23,-348,-154,139
727,-3785,-2,185,-4608,23,-348,-155,138
728,-3786,-3,187,-4606,23,-348,-156,137
729,-3787,-4,186,-4606,23,-349,-157,137
730,-3787,-2,183,-4606,23,-347,-156,138
731,-3785,-3,183,-4607,23,-345,-155,139
732,-3787,-1,185,-4609,23,-345,-155,139
733,-3788,0,184,-4610,23,-348,-156,140
734,-3788,-2,186,-4610,23,-348,-155,142
735,-3789,-2,186,-4608,23,-347,-156,139
736,-3788,-2,184,-4609,23,-346,-156,139
737,-3791,-2,186,-4609,23,-344,-156,139
738,-3789,-3,185,-4609,23,-344,-154,138
739,-3787,-4,187,-4608,23,-344,-157,140
740,-3786,-4,189,-4607,23,-344,-156,141
741,-3788,-3,188,-4606,23,-344,-158,142
742,-3788,-5,185,-4608,23,-346,-157,142
743,-3789,-5,186,-4609,23,-344,-155,141
744,-3790,-6,187,-4608,23,-342,-155,142
745,-3791,-6,189,-4610,23,-343,-156,140
746,-3792,-7,191,-4608,23,-345,-156,141
747,-3791,-4,188,-4607,23,-345,-156,140
748,-3790,-6,192,-4607,23,-345,-157,140
749,-3793,-6,190,-4607,23,-344,-156,139
750,-3792,-6,192,-4605,23,-345,-155,138
751,-3792,-3,192,-4607,23,-346,-154,140
752,-3789,-6,192,-4605,23,-348,-152,142
753,-3788,-4,190,-4604,23,-347,-155,142
754,-3792,-4,192,-4604,23,-349,-154,140
755,-3794,-4,192,-4604,23,-348,-154,138
756,-3793,-2,191,-4605,23,-347,-154,138
757,-3790,0,187,-4606,23,-347,-154,138
758,-3791,0,185,-4606,23,-347,-152,140
759,-3790,2,184,-4605,23,-347,-151,139
760,-3789,-2,186,-4606,23,-349,-152,139
761,-3790,-2,184,-4606,23,-348,-152,138
762,-3794,-3,188,-4605,23,-347,-153,138
763,-3796,-5,190,-4604,23,-347,-152,140
764,-3795,-3,191,-4603,23,-348,-152,139
765,-3796,-3,193,-4604,23,-349,-153,137
766,-3795,-3,192,-4605,23,-347,-152,139
767,-3794,-2,193,-4604,23,-348,-154,141
768,-3792,-4,192,-4607,23,-346,-152,139
769,-3790,-5,194,-4606,23,-346,-151,139
770,-3791,-6,194,-4606,23,-347,-152,139
771,-3792,-5,194,-4607,23,-346,-153,139
772,-3791,-4,193,-4605,23,-348,-155,139
773,-3790,-1,194,-4605,23,-346,-154,138
774,-3789,0,192,-4603,23,-345,-153,139
775,-3786,0,190,-4604,23,-343,-153,139
776,-3788,-1,190,-4605,23,-344,-152,137
777,-3790,1,192,-4605,23,-344,-152,138
778,-3788,0,190,-4606,23,-346,-152,138
779,-3789,0,195,-4606,23,-345,-150,139
780,-3787,-2,194,-4605,23,-348,-152,138
781,-3784,-3,191,-4605,23,-350,-154,138
782,-3786,-2,195,-4606,23,-350,-156,139
783,-3785,-3,193,-4606,23,-348,-156,141
784,-3787,-5,193,-4607,23,-347,-155,142
785,-3789,-3,195,-4606,23,-348,-155,141
786,-3791,-4,197,-4605,23,-347,-153,138
787,-3791,-4,197,-4606,23,-345,-153,135
788,-3793,-2,193,-4604,23,-345,-151,137
789,-3793,-1,190,-4606,23,-346,-151,137
790,-3791,1,190,-4606,23,-346,-152,137
791,-3790,1,191,-4607,23,-345,-153,137
792,-3791,-1,189,-4607,23,-346,-155,135
793,-3791,0,188,-4607,23,-349,-155,138
794,-3791,0,188,-4606,23,-348,-156,137
795,-3790,-2,189,-4609,23,-348,-156,139
796,-3789,-1,189,-4610,23,-348,-155,140
797,-3791,-3,192,-4609,23,-347,-155,139
798,-3793,-1,192,-4608,23,-347,-155,139
799,-3791,-3,192,-4610,23,-346,-155,141
800,-3792,-5,191,-4610,23,-346,-156,140
801,-3792,-2,190,-4612,23,-345,-156,140
802,-3790,1,192,-4610,23,-347,-154,137
803,-3790,-3,190,-4610,23,-344,-154,136
804,-3790,0,191,-4609,23,-344,-155,135
805,-3788,0,186,-4609,23,-345,-155,135
806,-3789,0,187,-4608,23,-344,-156,137
807,-3790,-2,186,-4608,23,-344,-156,136
808,-3791,-4,191,-4607,23,-345,-153,137
809,-3790,-3,192,-4609,23,-346,-155,138
810,-3791,-5,194,-4607,23,-345,-154,136
811,-3790,-5,194,-4608,23,-348,-153,138
812,-3789,-1,189,-4608,23,-347,-155,137
813,-3791,-1,185,-4609,23,-346,-153,136
814,-3790,-3,187,-4607,23,-346,-153,137
815,-3789,-5,189,-4607,23,-346,-151,139
816,-3789,-4,191,-4605,23,-346,-151,140
817,-3789,-4,188,-4604,23,-347,-151,138
818,-3790,-4,186,-4604,23,-347,-151,139
819,-3792,-4,185,-4605,23,-344,-152,140
820,-3792,-4,183,-4604,23,-345,-150,139
821,-3790,-6,185,-4603,23,-344,-152,139
822,-3790,-3,183,-4604,23,-344,-150,140
823,-3788,-1,182,-4604,23,-346,-150,139
824,-3787,-4,183,-4604,23,-345,-150,140
825,-3788,-4,184,-4604,23,-347,-151,139
826,-3788,-5,186,-4603,23,-348,-149,142
827,-3790,-4,187,-4603,23,-349,-148,141
828,-3791,-5,185,-4601,23,-349,-150,140
829,-3791,-6,181,-4601,23,-348,-150,139
830,-3788,-6,184,-4602,23,-349,-148,138
831,-3789,-5,187,-4602,23,-350,-151,138
832,-3788,-2,186,-4603,23,-351,-150,137
833,-3789,-2,184,-4601,23,-351,-152,137
834,-3790,-4,182,-4600,23,-350,-152,137
835,-3790,0,182,-4603,23,-349,-153,136
836,-3788,-3,186,-4605,23,-348,-153,136
837,-3790,-4,188,-4604,23,-349,-152,136
838,-3789,-5,190,-4606,23,-347,-150,138
839,-3789,-4,189,-4607,23,-347,-152,137
840,-3789,-2,188,-4609,23,-346,-152,138
841,-3786,0,192,-4609,23,-348,-152,140
842,-3789,0,191,-4609,23,-351,-151,138
843,-3787,0,190,-4608,23,-351,-148,140
844,-3787,-3,191,-4607,23,-350,-149,140
845,-3788,-5,191,-4609,23,-349,-150,141
846,-3791,-6,192,-4609,23,-350,-150,141
847,-3788,-6,191,-4611,23,-352,-151,141
848,-3788,-3,190,-4610,23,-349,-153,140
849,-3788,-3,187,-4608,23,-347,-154,138
850,-3789,-3,190,-4607,23,-351,-153,140
851,-3790,-2,192,-4607,23,-352,-154,139
852,-3790,-3,192,-4606,23,-349,-153,139
853,-3789,-3,192,-4605,23,-347,-150,138
854,-3787,-2,195,-4605,23,-348,-151,140
855,-3789,-4,197,-4606,23,-350,-150,140
856,-3788,-4,195,-4606,23,-350,-152,140
857,-3787,-4,194,-4606,23,-349,-151,142
858,-3787,-4,194,-4606,23,-351,-151,143
859,-3786,-2,194,-4606,23,-349,-153,143
860,-3787,-3,192,-4605,23,-349,-152,142
861,-3788,-3,194,-4606,23,-349,-153,141
862,-3788,-5,193,-4605,23,-348,-156,140
863,-3786,-5,193,-4605,23,-347,-158,138
864,-3787,-3,193,-4605,23,-345,-159,139
865,-3788,-4,191,-4604,23,-346,-159,140
866,-3789,-1,190,-4604,23,-347,-157,141
867,-3785,-2,190,-4605,23,-347,-156,142
868,-3787,0,187,-4605,23,-349,-154,140
869,-3788,-1,185,-4606,23,-349,-157,141
870,-3790,-2,187,-4606,23,-349,-156,140
871,-3789,-4,185,-4607,23,-348,-155,138
872,-3787,-3,189,-4608,23,-346,-155,138
873,-3789,-3,191,-4609,23,-348,-156,139
874,-3787,-1,196,-4608,23,-348,-156,138
875,-3787,-1,192,-4609,23,-349,-156,140
876,-3788,-1,190,-4609,23,-351,-156,139
877,-3789,-3,189,-4609,23,-353,-156,141
878,-3789,-2,189,-4608,23,-350,-155,140
879,-3791,-2,188,-4607,23,-348,-155,139
880,-3791,-3,189,-4610,23,-348,-153,139
881,-3791,-1,193,-4610,23,-349,-150,139
882,-3790,-1,195,-4610,23,-348,-150,139
883,-3789,-1,197,-4611,23,-350,-151,138
884,-3791,-2,198,-4610,23,-350,-151,140
885,-3793,-5,197,-4608,23,-349,-151,141
886,-3790,-4,193,-4609,23,-349,-152,141
887,-3788,-6,190,-4609,23,-350,-152,142
888,-3789,-5,190,-4610,23,-349,-151,140
889,-3790,-5,190,-4609,23,-350,-154,142
890,-3789,-3,191,-4607,23,-351,-152,142
891,-3788,-1,186,-4606,23,-350,-153,141
892,-3788,-3,184,-4605,23,-351,-154,140
893,-3790,-3,185,-4606,23,-350,-152,138
894,-3790,-3,185,-4607,23,-350,-151,140
895,-3791,-3,188,-4606,23,-351,-154,139
896,-3789,-3,188,-4606,23,-352,-154,139
897,-3789,-3,188,-4606,23,-350,-154,137
898,-3787,-4,187,-4607,23,-349,-153,136
899,-3789,-4,191,-4608,23,-350,-153,140
900,-3789,-2,191,-4608,23,-350,-155,141
901,-3793,0,194,-4609,23,-349,-154,142
902,-3792,-2,193,-4611,23,-350,-154,141
903,-3792,0,194,-4612,23,-350,-154,142
904,-3793,-2,195,-4609,23,-350,-154,140
905,-3792,-6,193,-4609,23,-349,-155,140
906,-3791,-5,190,-4608,23,-347,-153,142
907,-3789,-3,188,-4608,23,-348,-154,140
908,-3790,-2,190,-4608,23,-349,-156,141
909,-3791,-3,192,-4608,23,-348,-155,139
910,-3791,-2,193,-4607,23,-348,-155,139
911,-3790,-2,192,-4607,23,-349,-155,139
912,-3789,-2,190,-4606,23,-348,-154,138
913,-3789,-4,192,-4605,23,-347,-153,138
914,-3791,-6,190,-4605,23,-349,-154,139
915,-3791,-5,192,-4606,23,-349,-150,138
916,-3794,-5,192,-4608,23,-349,-149,137
917,-3789,-5,189,-4607,23,-349,-151,136
918,-3791,-4,185,-4606,23,-350,-150,138
919,-3785,-5,184,-4605,23,-349,-152,138
920,-3787,-3,185,-4606,23,-349,-152,140
921,-3788,-1,188,-4608,23,-350,-152,142
922,-3789,-2,189,-4609,23,-348,-151,142
923,-3792,-3,184,-4609,23,-348,-150,144
924,-3792,-5,186,-4608,23,-347,-149,143
925,-3790,-5,189,-4608,23,-347,-152,142
926,-3790,-6,187,-4608,23,-349,-154,143
927,-3790,-5,190,-4609,23,-351,-154,142
928,-3790,-5,193,-4607,23,-351,-153,141
929,-3791,-5,193,-4606,23,-350,-154,142
930,-3790,-4,193,-4605,23,-349,-154,141
931,-3788,-4,195,-4604,23,-351,-155,142
932,-3788,-4,193,-4604,23,-351,-154,144
933,-3788,-5,191,-4606,23,-351,-154,142
934,-3789,-2,189,-4606,23,-350,-155,143
935,-3790,-3,188,-4604,23,-350,-155,140
936,-3792,-4,183,-4604,23,-348,-153,139
937,-3791,-4,184,-4605,23,-348,-152,140
938,-3789,-4,188,-4606,23,-347,-152,139
939,-3790,-5,191,-4605,23,-344,-151,139
940,-3788,-5,192,-4606,23,-347,-150,140
941,-3788,-5,191,-4606,23,-349,-152,138
942,-3790,-3,188,-4609,23,-348,-154,139
943,-3790,-4,189,-4607,23,-348,-155,140
944,-3789,0,189,-4606,23,-348,-156,141
945,-3789,0,186,-4604,23,-350,-156,139
946,-3790,1,186,-4602,23,-349,-156,141
947,-3791,-1,191,-4602,23,-347,-156,141
948,-3792,-1,189,-4601,23,-348,-156,138
949,-3791,-1,191,-4602,23,-348,-153,138
950,-3791,1,191,-4602,23,-347,-155,139
951,-3791,0,192,-4603,23,-344,-156,140
952,-3789,-1,191,-4604,23,-346,-155,140
953,-3787,-1,189,-4605,23,-347,-153,140
954,-3789,-1,191,-4604,23,-349,-153,140
955,-3789,-2,190,-4605,23,-351,-154,139
956,-3789,-3,190,-4605,23,-349,-154,140
957,-3790,-5,188,-4605,23,-350,-154,142
958,-3792,-3,191,-4605,23,-350,-154,141
959,-3792,0,191,-4606,23,-351,-152,140
960,-3793,-2,187,-4607,23,-352,-149,141
961,-3793,-1,187,-4606,23,-353,-148,139
962,-3790,1,185,-4604,23,-351,-148,141
963,-3790,1,190,-4604,23,-347,-148,141
964,-3792,1,191,-4605,23,-348,-151,138
965,-3793,2,192,-4604,23,-347,-151,140
966,-3792,-1,197,-4605,23,-346,-154,138
967,-3792,-4,194,-4606,23,-344,-155,140
968,-3791,-4,194,-4606,23,-343,-155,140
969,-3792,-5,191,-4608,23,-344,-157,140
970,-3791,-3,190,-4607,23,-344,-157,140
971,-3790,-2,188,-4606,23,-345,-156,140
972,-3791,-4,192,-4607,23,-345,-154,140
973,-3790,-4,193,-4609,23,-344,-154,141
974,-3791,-4,192,-4609,23,-345,-155,142
975,-3789,-4,191,-4607,23,-349,-154,144
976,-3787,-2,192,-4608,23,-351,-154,143
977,-3792,-3,193,-4607,23,-349,-153,142
978,-3790,-1,191,-4607,23,-351,-154,139
979,-3790,-2,191,-4608,23,-349,-154,140
980,-3789,0,187,-4608,23,-351,-155,139
981,-3790,-4,188,-4606,23,-349,-152,138
982,-3788,-5,184,-4604,23,-349,-153,140
983,-3791,-3,187,-4603,23,-349,-153,139
984,-3789,-4,187,-4603,23,-347,-152,141
985,-3788,-5,187,-4604,23,-349,-152,141
986,-3789,-5,188,-4604,23,-352,-154,140
987,-3788,-5,192,-4605,23,-349,-155,140
988,-3789,-3,196,-4605,23,-349,-157,137
989,-3787,-4,193,-4604,23,-348,-155,139
990,-3789,-7,190,-4604,23,-346,-153,138
991,-3788,-5,188,-4605,23,-345,-154,139
992,-3791,-3,187,-4605,23,-349,-153,140
993,-3789,-4,184,-4604,23,-350,-153,141
994,-3788,-3,185,-4605,23,-351,-152,142
995,-3787,-3,184,-4604,23,-350,-152,143
996,-3788,-4,187,-4604,23,-349,-152,143
997,-3786,-2,190,-4602,23,-350,-154,142
998,-3789,-4,190,-4603,23,-350,-156,142
