,acc_X,acc_Y,acc_Z,temp,tempC,gyr_X,gyr_Y,gyr_Z
0,-1894,1,89,-4907,22,-340,-145,139
1,-1894,0,90,-4908,22,-340,-145,138
2,-1893,-1,90,-4908,22,-342,-146,137
3,-1894,-2,89,-4908,22,-341,-148,139
4,-1894,-2,90,-4908,22,-346,-150,139
5,-1893,-3,91,-4909,22,-344,-151,139
6,-1894,-3,91,-4908,22,-345,-150,138
7,-1893,-3,91,-4908,22,-346,-151,140
8,-1892,-3,93,-4907,22,-345,-151,140
9,-1893,-2,92,-4906,22,-345,-152,141
10,-1894,-3,91,-4906,22,-346,-151,142
11,-1894,-3,93,-4907,22,-344,-150,141
12,-1894,-2,94,-4908,22,-345,-150,141
13,-1893,-2,94,-4907,22,-341,-153,141
14,-1893,-3,93,-4907,22,-343,-155,142
15,-1894,-2,91,-4906,22,-343,-154,139
16,-1893,-2,90,-4904,22,-342,-153,138
17,-1894,-3,90,-4905,22,-341,-151,137
18,-1893,-3,91,-4904,22,-341,-151,138
19,-1894,-3,90,-4904,22,-342,-148,139
20,-1893,-2,90,-4904,22,-344,-149,139
21,-1893,-1,89,-4904,22,-343,-150,140
22,-1894,-2,89,-4903,22,-344,-151,140
23,-1893,-2,91,-4902,22,-343,-154,139
24,-1893,-3,90,-4901,22,-343,-152,138
25,-1894,-3,91,-4900,22,-343,-153,138
26,-1894,-2,92,-4900,22,-342,-151,137
27,-1894,-2,90,-4901,22,-342,-150,136
28,-1896,-2,92,-4901,22,-342,-149,138
29,-1896,-1,91,-4901,22,-341,-150,138
30,-1895,-3,91,-4901,22,-342,-151,138
31,-1896,-1,92,-4904,22,-342,-151,138
32,-1895,-1,93,-4902,22,-344,-152,137
33,-1896,-2,92,-4901,22,-341,-153,139
34,-1896,-2,93,-4899,22,-342,-153,138
35,-1896,-2,93,-4900,22,-342,-152,138
36,-1895,-2,93,-4899,22,-343,-152,138
37,-1895,-1,93,-4898,22,-343,-151,137
38,-1894,-1,92,-4897,22,-342,-156,137
39,-1894,-1,92,-4897,22,-342,-156,136
40,-1895,-1,92,-4897,22,-342,-152,137
41,-1895,-1,91,-4897,22,-342,-151,138
42,-1894,-2,90,-4896,22,-346,-149,137
43,-1895,-2,88,-4895,22,-346,-148,137
44,-1895,-2,89,-4898,22,-344,-150,140
45,-1895,-1,89,-4898,22,-345,-152,140
46,-1894,-3,91,-4896,22,-342,-150,141
47,-1893,-2,90,-4896,22,-343,-151,140
48,-1893,-2,90,-4894,22,-345,-150,139
49,-1894,-3,91,-4895,22,-346,-150,139
50,-1894,-2,91,-4894,22,-343,-152,139
51,-1894,-3,91,-4894,22,-345,-151,139
52,-1895,-3,91,-4893,22,-344,-151,140
53,-1895,-2,92,-4894,22,-343,-150,139
54,-1895,-2,93,-4893,22,-344,-151,140
55,-1895,-4,92,-4893,22,-342,-153,141
56,-1895,-2,92,-4895,22,-343,-153,142
57,-1895,-2,91,-4895,22,-342,-155,141
58,-1895,-1,90,-4895,22,-341,-154,141
59,-1894,-3,89,-4895,22,-341,-156,140
60,-1894,-4,90,-4894,22,-341,-156,138
61,-1894,-2,90,-4896,22,-341,-156,139
62,-1894,-2,89,-4895,22,-344,-155,138
63,-1894,-1,90,-4894,22,-342,-155,140
64,-1894,-2,88,-4895,22,-343,-155,140
65,-1894,-2,89,-4895,22,-341,-152,140
66,-1893,-3,89,-4893,22,-342,-154,141
67,-1894,-3,89,-4894,22,-344,-156,141
68,-1895,-1,87,-4894,22,-345,-154,141
69,-1894,-2,89,-4891,22,-345,-153,139
70,-1893,-2,89,-4891,22,-343,-154,139
71,-1895,-3,90,-4891,22,-345,-150,140
72,-1896,-3,91,-4891,22,-345,-147,139
73,-1896,-3,93,-4891,22,-343,-148,138
74,-1896,-2,94,-4890,22,-343,-149,140
75,-1894,-2,93,-4890,22,-341,-151,142
76,-1894,-2,93,-4888,22,-339,-150,141
77,-1894,-2,92,-4888,22,-340,-147,139
78,-1894,-2,92,-4889,22,-340,-149,141
79,-1893,-3,93,-4887,22,-343,-151,139
80,-1894,-2,94,-4889,22,-343,-152,137
81,-1894,-1,94,-4889,22,-344,-151,136
82,-1894,-3,93,-4890,22,-345,-149,139
83,-1895,-2,93,-4891,22,-345,-149,139
84,-1894,-2,92,-4890,22,-345,-149,139
85,-1895,-1,93,-4889,22,-344,-152,136
86,-1894,-2,92,-4890,22,-344,-151,136
87,-1894,-2,93,-4890,22,-345,-149,134
88,-1894,-1,93,-4888,22,-345,-150,136
89,-1893,-1,93,-4890,22,-345,-152,137
90,-1894,-1,94,-4890,22,-348,-151,137
91,-1892,-2,92,-4888,22,-346,-149,139
92,-1894,-3,91,-4889,22,-349,-148,139
93,-1895,-3,93,-4887,22,-348,-148,140
94,-1895,-4,92,-4886,22,-349,-148,140
95,-1894,-3,92,-4886,22,-350,-148,139
96,-1894,-4,92,-4886,22,-350,-149,138
97,-1893,-3,92,-4885,22,-349,-150,139
98,-1893,-3,91,-4886,22,-349,-150,138
99,-1893,-2,92,-4886,22,-348,-152,137
100,-1895,-3,91,-4888,22,-348,-151,138
101,-1895,-3,90,-4887,22,-347,-152,141
102,-1895,-2,92,-4887,22,-347,-151,140
103,-1896,-1,92,-4885,22,-346,-151,140
104,-1895,-2,93,-4887,22,-347,-151,140
105,-1895,-1,92,-4886,22,-349,-153,141
106,-1895,-2,93,-4886,22,-347,-155,141
107,-1896,-1,93,-4884,22,-347,-155,140
108,-1894,-2,92,-4883,22,-346,-153,141
109,-1895,-2,92,-4883,22,-343,-153,138
110,-1895,-1,91,-4882,22,-343,-154,140
111,-1895,-2,91,-4882,22,-345,-152,137
112,-1896,-3,91,-4884,22,-344,-155,138
113,-1895,-2,91,-4884,22,-342,-155,138
114,-1895,-2,91,-4883,22,-342,-153,137
115,-1893,-3,94,-4883,22,-344,-154,137
116,-1892,-1,93,-4882,22,-346,-152,137
117,-1892,-2,92,-4881,22,-344,-152,137
118,-1893,-2,93,-4881,22,-345,-152,138
119,-1892,-1,93,-4880,22,-344,-150,137
120,-1893,-1,93,-4880,22,-345,-148,139
121,-1893,-2,94,-4880,22,-344,-149,139
122,-1895,-1,93,-4881,22,-346,-148,139
123,-1895,-2,93,-4880,22,-347,-150,138
124,-1895,-1,93,-4879,22,-347,-151,140
125,-1896,-1,95,-4879,22,-346,-151,139
126,-1896,-1,93,-4880,22,-347,-150,138
127,-1894,-1,93,-4880,22,-346,-149,138
128,-1894,-1,91,-4881,22,-346,-149,136
129,-1895,-2,91,-4881,22,-347,-149,139
130,-1897,-1,93,-4882,22,-346,-152,139
131,-1897,0,92,-4881,22,-346,-153,138
132,-1896,-1,91,-4881,22,-345,-153,137
133,-1895,-2,93,-4880,22,-344,-151,138
134,-1894,-2,91,-4879,22,-344,-150,138
135,-1894,-1,91,-4878,22,-344,-150,141
136,-1895,-1,91,-4879,22,-346,-150,140
137,-1894,-1,91,-4880,22,-345,-151,137
138,-1894,-1,93,-4879,22,-343,-151,136
139,-1894,-1,95,-4878,22,-343,-154,137
140,-1893,-2,94,-4878,22,-343,-154,137
141,-1894,-2,93,-4878,22,-344,-153,137
142,-1894,-3,93,-4877,22,-343,-152,137
143,-1893,-2,92,-4878,22,-344,-152,139
144,-1894,-2,93,-4876,22,-345,-150,140
145,-1894,-2,93,-4876,22,-346,-149,140
146,-1895,-3,92,-4876,22,-346,-150,139
147,-1894,-2,93,-4874,22,-346,-149,137
148,-1893,-1,91,-4872,22,-346,-151,139
149,-1893,-2,92,-4872,22,-346,-152,140
150,-1893,-2,93,-4873,22,-344,-149,141
151,-1893,-2,93,-4872,22,-342,-146,141
152,-1891,-3,91,-4874,22,-341,-149,139
153,-1893,-3,90,-4874,22,-340,-150,140
154,-1894,-3,90,-4874,22,-341,-150,140
155,-1895,-2,88,-4875,22,-342,-150,140
156,-1896,-2,89,-4874,22,-342,-149,141
157,-1896,-2,88,-4878,22,-341,-150,140
158,-1895,-2,89,-4878,22,-343,-151,141
159,-1895,-2,90,-4877,22,-344,-151,141
160,-1894,-2,90,-4877,22,-344,-150,142
161,-1894,-2,89,-4877,22,-344,-152,141
162,-1894,-2,90,-4876,22,-345,-151,143
163,-1894,-2,91,-4875,22,-346,-153,140
164,-1893,-4,90,-4875,22,-346,-153,139
165,-1894,-2,89,-4875,22,-345,-152,140
166,-1894,-3,91,-4875,22,-346,-152,140
167,-1894,-2,91,-4875,22,-347,-153,141
168,-1895,-1,91,-4875,22,-347,-152,142
169,-1896,-2,91,-4875,22,-348,-151,143
170,-1894,-3,91,-4873,22,-346,-152,141
171,-1895,-2,91,-4870,22,-344,-153,140
172,-1895,-1,91,-4871,22,-345,-153,140
173,-1895,-2,90,-4870,22,-344,-153,139
174,-1895,-2,89,-4868,22,-344,-149,138
175,-1894,-2,90,-4868,22,-344,-148,139
176,-1896,-2,90,-4868,22,-345,-148,139
177,-1896,-1,92,-4869,22,-345,-151,138
178,-1896,-2,91,-4869,22,-345,-153,139
179,-1895,-1,92,-4869,22,-346,-153,138
180,-1895,-1,93,-4868,22,-344,-152,138
181,-1894,0,92,-4868,22,-345,-152,138
182,-1896,-2,92,-4868,22,-345,-149,137
183,-1896,-2,92,-4868,22,-345,-149,140
184,-1896,-2,92,-4868,22,-347,-148,142
185,-1895,-2,93,-4870,22,-347,-151,143
186,-1894,-2,92,-4871,22,-346,-151,140
187,-1894,-3,93,-4870,22,-345,-150,140
188,-1894,-3,94,-4868,22,-345,-153,142
189,-1893,-3,93,-4866,22,-345,-152,141
190,-1893,-2,94,-4867,22,-345,-152,141
191,-1893,-2,94,-4869,22,-344,-148,143
192,-1893,-2,93,-4868,22,-345,-150,143
193,-1893,-2,92,-4867,22,-343,-151,141
194,-1894,-2,92,-4865,22,-343,-149,141
195,-1895,-3,93,-4865,22,-345,-150,141
196,-1895,-4,94,-4865,22,-346,-151,142
197,-1895,-3,94,-4865,22,-344,-150,140
198,-1895,-4,94,-4866,22,-345,-149,139
199,-1893,-4,93,-4866,22,-346,-150,138
200,-1893,-3,93,-4866,22,-345,-150,138
201,-1894,-3,93,-4866,22,-345,-150,139
202,-1894,-3,93,-4866,22,-344,-150,136
203,-1894,-3,93,-4864,22,-343,-153,135
204,-1894,-2,93,-4864,22,-343,-151,136
205,-1893,-3,94,-4863,22,-343,-152,137
206,-1894,-3,94,-4865,22,-345,-151,138
207,-1894,-4,95,-4864,22,-346,-152,139
208,-1893,-2,93,-4862,22,-345,-155,138
209,-1893,-2,92,-4862,22,-343,-154,137
210,-1893,-2,94,-4864,22,-343,-152,137
211,-1894,-4,93,-4866,22,-341,-154,140
212,-1893,-3,93,-4864,22,-342,-152,137
213,-1894,-3,93,-4863,22,-344,-152,138
214,-1894,-2,94,-4864,22,-345,-152,140
215,-1893,-2,93,-4862,22,-347,-153,140
216,-1893,-2,93,-4863,22,-347,-152,140
217,-1894,-2,93,-4863,22,-348,-151,139
218,-1894,-3,92,-4863,22,-347,-150,139
219,-1895,-3,91,-4863,22,-347,-152,137
220,-1895,-3,92,-4862,22,-346,-150,135
221,-1895,-2,90,-4864,22,-344,-152,136
222,-1896,-2,91,-4862,22,-342,-150,136
223,-1895,-1,91,-4862,22,-342,-151,138
224,-1894,-2,91,-4861,22,-345,-149,137
225,-1894,-1,92,-4860,22,-347,-151,137
226,-1894,-2,92,-4860,22,-348,-152,136
227,-1895,-3,93,-4862,22,-348,-152,137
228,-1895,-1,91,-4860,22,-346,-153,138
229,-1894,-2,91,-4861,22,-346,-153,135
230,-1895,-1,91,-4860,22,-345,-154,138
231,-1895,-1,91,-4861,22,-345,-154,139
232,-1893,-3,92,-4862,22,-342,-155,140
233,-1893,-2,91,-4863,22,-345,-154,140
234,-1892,-2,92,-4864,22,-347,-153,138
235,-1893,-2,92,-4863,22,-348,-153,139
236,-1892,-3,91,-4864,22,-347,-153,140
237,-1894,-4,93,-4862,22,-345,-153,140
238,-1893,-3,91,-4862,22,-346,-153,138
239,-1894,-4,92,-4862,22,-347,-152,139
240,-1894,-4,91,-4863,22,-347,-151,138
241,-1894,-3,91,-4862,22,-349,-150,138
242,-1893,-4,92,-4862,22,-348,-151,140
243,-1893,-4,93,-4861,22,-345,-152,139
244,-1894,-5,93,-4861,22,-344,-151,139
245,-1893,-6,89,-4861,22,-344,-155,139
246,-1894,-5,90,-4859,22,-344,-154,137
247,-1893,-5,91,-4858,22,-344,-151,136
248,-1892,-4,90,-4858,22,-344,-150,136
249,-1893,-5,91,-4859,22,-343,-149,137
250,-1892,-5,92,-4859,22,-343,-151,138
251,-1893,-4,92,-4861,22,-344,-150,137
252,-1894,-4,94,-4862,22,-343,-150,135
253,-1894,-4,93,-4860,22,-341,-152,133
254,-1896,-4,95,-4861,22,-342,-150,135
255,-1896,-3,93,-4860,22,-340,-149,135
256,-1896,-4,92,-4858,22,-341,-151,135
257,-1896,-4,92,-4860,22,-343,-151,136
258,-1896,-4,93,-4861,22,-343,-150,136
259,-1895,-6,93,-4859,22,-344,-152,134
260,-1894,-6,92,-4861,22,-343,-154,136
261,-1893,-5,93,-4861,22,-342,-152,136
262,-1894,-4,95,-4861,22,-342,-153,138
263,-1895,-4,96,-4861,22,-344,-154,139
264,-1895,-4,95,-4862,22,-344,-154,139
265,-1895,-4,96,-4861,22,-344,-153,140
266,-1895,-4,95,-4860,22,-345,-155,139
267,-1896,-4,95,-4861,22,-345,-155,140
268,-1896,-4,95,-4862,22,-346,-151,140
269,-1895,-4,94,-4861,22,-345,-152,137
270,-1894,-3,94,-4859,22,-344,-154,138
271,-1895,-3,94,-4860,22,-345,-154,139
272,-1895,-4,94,-4860,22,-345,-155,140
273,-1894,-3,94,-4858,22,-345,-155,139
274,-1894,-2,92,-4859,22,-346,-152,138
275,-1894,-3,92,-4859,22,-347,-156,139
276,-1893,-3,92,-4858,22,-347,-155,137
277,-1894,-3,94,-4856,22,-348,-156,137
278,-1893,-3,95,-4857,22,-349,-155,138
279,-1893,-2,95,-4856,22,-347,-156,140
280,-1895,-2,95,-4856,22,-347,-153,138
281,-1895,-2,94,-4855,22,-345,-154,137
282,-1894,-1,92,-4855,22,-344,-154,138
283,-1894,0,91,-4855,22,-344,-154,137
284,-1894,1,92,-4855,22,-341,-154,138
285,-1894,0,91,-4856,22,-342,-151,138
286,-1895,-2,90,-4856,22,-344,-151,136
287,-1895,-2,91,-4857,22,-346,-152,137
288,-1896,-3,93,-4858,22,-346,-150,138
289,-1897,-2,94,-4858,22,-347,-151,137
290,-1895,-2,94,-4856,22,-346,-153,138
291,-1894,-1,94,-4856,22,-347,-153,138
292,-1895,-2,92,-4855,22,-345,-152,138
293,-1894,-5,91,-4857,22,-345,-154,136
294,-1894,-4,92,-4858,22,-346,-153,138
295,-1893,-5,93,-4858,22,-345,-152,141
296,-1893,-4,94,-4857,22,-346,-153,140
297,-1895,-3,95,-4856,22,-346,-153,138
298,-1895,-3,97,-4856,22,-345,-153,139
299,-1895,-3,96,-4857,22,-344,-155,139
300,-1895,-3,93,-4856,22,-343,-155,137
301,-1896,-4,92,-4855,22,-343,-157,136
302,-1895,-4,91,-4854,22,-342,-155,137
303,-1894,-3,91,-4854,22,-343,-157,137
304,-1894,-2,90,-4853,22,-344,-155,136
305,-1893,-1,91,-4854,22,-347,-156,135
306,-1894,-2,91,-4853,22,-346,-158,134
307,-1895,-2,92,-4852,22,-347,-158,136
308,-1894,-2,92,-4852,22,-345,-156,136
309,-1894,-2,92,-4852,22,-344,-154,135
310,-1894,-1,92,-4851,22,-345,-155,136
311,-1893,-1,92,-4852,22,-345,-156,138
312,-1893,-2,93,-4853,22,-343,-154,138
313,-1892,-2,94,-4854,22,-343,-152,139
314,-1892,-3,95,-4855,22,-343,-152,139
315,-1892,-2,96,-4854,22,-344,-152,138
316,-1894,-2,95,-4851,22,-345,-152,139
317,-1893,-3,93,-4852,22,-346,-153,138
318,-1893,-3,92,-4852,22,-345,-152,139
319,-1894,-2,94,-4853,22,-344,-153,137
320,-1894,-1,95,-4853,22,-344,-153,136
321,-1894,-1,93,-4854,22,-344,-152,139
322,-1894,-2,93,-4851,22,-344,-154,138
323,-1894,-3,94,-4849,22,-344,-154,139
324,-1894,-2,95,-4850,22,-343,-157,140
325,-1893,-2,93,-4849,22,-344,-155,139
326,-1893,-1,92,-4849,22,-345,-154,139
327,-1894,-1,91,-4849,22,-344,-154,141
328,-1894,-2,91,-4851,22,-347,-155,139
329,-1894,-2,92,-4849,22,-346,-155,139
330,-1893,-3,91,-4850,22,-347,-154,139
331,-1893,-3,91,-4850,22,-346,-152,138
332,-1893,-3,91,-4850,22,-346,-152,136
333,-1893,-3,93,-4851,22,-344,-151,138
334,-1894,-2,93,-4851,22,-343,-151,137
335,-1894,-2,93,-4852,22,-342,-152,138
336,-1894,-2,93,-4849,22,-341,-152,137
337,-1894,-2,92,-4849,22,-342,-152,137
338,-1894,-3,93,-4849,22,-342,-152,138
339,-1894,-1,92,-4849,22,-342,-151,140
340,-1894,-1,92,-4850,22,-344,-148,140
341,-1894,-1,92,-4849,22,-345,-151,140
342,-1893,-1,93,-4849,22,-343,-150,138
343,-1894,-2,92,-4849,22,-344,-150,137
344,-1893,-1,94,-4850,22,-344,-148,136
345,-1893,0,92,-4849,22,-343,-148,137
346,-1893,0,91,-4847,22,-342,-149,136
347,-1894,0,91,-4849,22,-343,-151,135
348,-1894,1,92,-4849,22,-342,-150,136
349,-1894,1,94,-4849,22,-341,-153,137
350,-1894,0,96,-4849,22,-341,-152,137
351,-1894,0,95,-4850,22,-340,-154,137
352,-1895,-1,94,-4851,22,-339,-153,137
353,-1895,-1,93,-4851,22,-340,-153,137
354,-1896,-2,92,-4851,22,-340,-153,136
355,-1895,-1,90,-4851,22,-340,-152,134
356,-1896,-2,89,-4851,22,-341,-155,132
357,-1896,-2,90,-4850,22,-342,-155,134
358,-1896,-2,91,-4848,22,-343,-154,134
359,-1896,-2,91,-4849,22,-343,-155,137
360,-1896,-2,91,-4850,22,-343,-157,138
361,-1895,-1,91,-4850,22,-343,-158,140
362,-1895,-1,91,-4849,22,-345,-155,138
363,-1895,0,92,-4850,22,-343,-155,139
364,-1894,-2,92,-4848,22,-344,-154,139
365,-1893,-3,92,-4847,22,-343,-154,137
366,-1893,-3,90,-4847,22,-345,-154,136
367,-1893,-2,89,-4848,22,-344,-154,135
368,-1894,-2,89,-4847,22,-343,-154,137
369,-1894,-2,90,-4846,22,-343,-156,135
370,-1894,-2,92,-4845,22,-344,-154,136
371,-1896,-2,91,-4845,22,-344,-153,135
372,-1895,-1,89,-4845,22,-345,-151,138
373,-1895,0,89,-4847,22,-347,-152,138
374,-1896,1,89,-4846,22,-346,-151,138
375,-1895,0,88,-4846,22,-345,-154,139
376,-1893,-1,88,-4847,22,-346,-152,139
377,-1893,-1,90,-4847,22,-346,-154,138
378,-1893,-1,90,-4844,22,-344,-153,138
379,-1894,-1,91,-4845,22,-342,-154,136
380,-1894,-2,91,-4845,22,-344,-151,137
381,-1893,-2,91,-4845,22,-344,-151,136
382,-1894,-2,91,-4845,22,-346,-153,136
383,-1893,-2,90,-4844,22,-348,-154,138
384,-1893,-1,89,-4843,22,-348,-154,136
385,-1893,-1,88,-4844,22,-347,-154,138
386,-1894,-2,90,-4842,22,-346,-153,139
387,-1893,-2,92,-4841,22,-344,-154,138
388,-1894,-2,94,-4840,22,-343,-154,137
389,-1893,0,94,-4841,22,-341,-153,139
390,-1892,0,94,-4839,22,-341,-153,138
391,-1894,-1,93,-4838,22,-343,-154,138
392,-1894,-1,94,-4840,22,-344,-153,136
393,-1894,0,93,-4840,22,-345,-152,137
394,-1893,0,92,-4841,22,-344,-152,137
395,-1892,-1,91,-4841,22,-347,-148,138
396,-1892,-2,90,-4843,22,-346,-150,137
397,-1892,-3,89,-4842,22,-347,-147,138
398,-1892,-3,91,-4843,22,-346,-148,137
399,-1893,-2,91,-4842,22,-348,-148,140
400,-1893,-2,91,-4845,22,-348,-149,141
401,-1894,-2,92,-4846,22,-346,-150,139
402,-1895,-2,91,-4844,22,-345,-151,140
403,-1894,-1,92,-4844,22,-346,-150,139
404,-1895,-1,92,-4845,22,-346,-149,139
405,-1893,-2,92,-4844,22,-344,-150,137
406,-1894,-2,93,-4845,22,-344,-152,136
407,-1895,-2,94,-4844,22,-343,-151,137
408,-1894,-3,93,-4842,22,-344,-151,137
409,-1894,-3,94,-4843,22,-342,-150,138
410,-1894,-4,94,-4842,22,-342,-149,138
411,-1893,-4,94,-4843,22,-344,-149,137
412,-1894,-4,94,-4841,22,-343,-150,138
413,-1894,-4,94,-4842,22,-342,-150,138
414,-1894,-5,94,-4843,22,-341,-151,138
415,-1895,-4,93,-4842,22,-341,-152,137
416,-1895,-2,93,-4842,22,-343,-152,134
417,-1895,-2,92,-4843,22,-343,-152,136
418,-1895,-3,91,-4843,22,-343,-150,136
419,-1894,-2,91,-4842,22,-344,-151,136
420,-1894,-1,90,-4845,22,-343,-153,136
421,-1894,-2,90,-4845,22,-344,-152,137
422,-1894,-2,90,-4845,22,-347,-153,138
423,-1894,-2,90,-4846,22,-346,-153,138
424,-1893,-2,90,-4844,22,-345,-152,140
425,-1892,-1,91,-4844,22,-345,-151,137
426,-1893,-2,91,-4844,22,-344,-151,137
427,-1893,-1,92,-4843,22,-346,-151,136
428,-1893,-2,92,-4843,22,-345,-150,135
429,-1894,-3,93,-4844,22,-347,-151,136
430,-1894,-3,93,-4843,22,-346,-154,136
431,-1894,-3,94,-4842,22,-346,-153,138
432,-1894,-2,97,-4843,22,-346,-150,137
433,-1894,-1,97,-4846,22,-346,-150,136
434,-1894,-2,96,-4844,22,-344,-148,137
435,-1894,-2,96,-4844,22,-344,-148,137
436,-1894,-2,95,-4844,22,-343,-149,136
437,-1894,-1,95,-4846,22,-344,-149,134
438,-1894,-2,94,-4847,22,-344,-150,136
439,-1893,-1,94,-4847,22,-344,-149,134
440,-1892,-1,95,-4847,22,-345,-149,134
441,-1892,-1,93,-4845,22,-346,-153,136
442,-1892,-1,93,-4845,22,-346,-153,139
443,-1893,-1,95,-4844,22,-345,-154,137
444,-1894,-1,94,-4844,22,-345,-154,135
445,-1894,0,94,-4843,22,-346,-157,135
446,-1895,0,93,-4844,22,-345,-157,138
447,-1895,0,94,-4844,22,-344,-156,137
448,-1895,-1,94,-4843,22,-346,-155,137
449,-1896,-2,94,-4843,22,-345,-155,137
450,-1896,-3,94,-4844,22,-343,-155,139
451,-1895,-2,92,-4843,22,-344,-153,138
452,-1894,-2,91,-4843,22,-344,-152,138
453,-1894,-3,90,-4843,22,-342,-154,139
454,-1895,-3,90,-4842,22,-343,-155,138
455,-1894,-3,90,-4841,22,-344,-154,138
456,-1893,-4,91,-4841,22,-346,-154,139
457,-1892,-4,91,-4840,22,-348,-152,139
458,-1893,-4,93,-4839,22,-347,-150,138
459,-1893,-3,94,-4839,22,-348,-151,140
460,-1893,-3,93,-4839,22,-348,-150,139
461,-1892,-2,93,-4838,22,-344,-151,138
462,-1893,-2,93,-4839,22,-345,-151,137
463,-1893,-3,93,-4840,22,-344,-150,137
464,-1895,-4,94,-4839,22,-345,-151,139
465,-1894,-3,93,-4842,22,-346,-153,141
466,-1895,-3,94,-4842,22,-345,-155,139
467,-1895,-3,94,-4843,22,-346,-156,138
468,-1894,-2,92,-4843,22,-346,-156,136
469,-1895,-3,93,-4841,22,-344,-154,136
470,-1894,-2,93,-4841,22,-343,-156,137
471,-1895,-2,92,-4841,22,-343,-155,140
472,-1895,-2,93,-4841,22,-342,-152,139
473,-1895,-3,92,-4843,22,-341,-153,139
474,-1896,-2,93,-4841,22,-340,-153,139
475,-1896,-1,95,-4841,22,-343,-155,138
476,-1895,-1,94,-4841,22,-345,-155,136
477,-1895,-2,91,-4840,22,-347,-156,137
478,-1895,-2,93,-4839,22,-348,-156,138
479,-1897,-2,92,-4841,22,-347,-155,138
480,-1895,-2,94,-4842,22,-344,-155,140
481,-1895,-2,94,-4844,22,-345,-151,140
482,-1894,-2,95,-4843,22,-343,-155,139
483,-1895,-2,96,-4845,22,-344,-154,137
484,-1895,-2,94,-4845,22,-344,-156,138
485,-1894,-2,94,-4843,22,-345,-157,139
486,-1893,-1,94,-4843,22,-345,-153,140
487,-1893,-2,93,-4842,22,-346,-154,140
488,-1893,-1,93,-4840,22,-348,-155,140
489,-1892,-2,91,-4840,22,-348,-154,139
490,-1893,-2,91,-4839,22,-347,-154,137
491,-1892,-2,93,-4838,22,-346,-157,136
492,-1893,-2,91,-4836,22,-345,-155,136
493,-1893,-2,92,-4836,22,-343,-154,137
494,-1894,-3,93,-4837,22,-343,-155,137
495,-1894,-4,93,-4838,22,-341,-154,138
496,-1895,-4,93,-4838,22,-342,-154,137
497,-1895,-4,92,-4838,22,-343,-155,138
498,-1896,-3,89,-4836,22,-345,-155,138
499,-1897,-3,88,-4836,22,-345,-154,138
500,-1895,-4,88,-4837,22,-344,-155,137
501,-1895,-4,91,-4839,22,-344,-154,136
502,-1896,-4,90,-4839,22,-345,-152,138
503,-1894,-3,89,-4840,22,-344,-150,139
504,-1894,-3,89,-4841,22,-344,-152,140
505,-1894,-2,89,-4839,22,-345,-152,140
506,-1894,-4,90,-4839,22,-344,-150,140
507,-1894,-3,91,-4838,22,-345,-150,136
508,-1894,-2,92,-4837,22,-343,-152,139
509,-1894,-2,91,-4838,22,-342,-149,137
510,-1893,-2,91,-4839,22,-346,-151,137
511,-1894,-3,91,-4838,22,-343,-152,137
512,-1894,-2,92,-4839,22,-342,-151,137
513,-1896,-3,94,-4840,22,-340,-154,137
514,-1896,-2,95,-4841,22,-340,-152,138
515,-1895,-2,94,-4840,22,-341,-155,141
516,-1894,-2,93,-4838,22,-342,-155,141
517,-1895,-1,92,-4839,22,-342,-157,139
518,-1895,0,92,-4838,22,-342,-157,139
519,-1895,-1,91,-4838,22,-341,-158,140
520,-1895,-1,90,-4839,22,-342,-157,138
521,-1895,0,89,-4838,22,-343,-158,137
522,-1895,-1,90,-4838,22,-344,-156,137
523,-1894,-1,92,-4839,22,-344,-157,136
524,-1895,-1,93,-4838,22,-345,-158,135
525,-1895,-2,93,-4837,22,-345,-158,137
526,-1895,-1,94,-4838,22,-345,-158,137
527,-1894,0,92,-4839,22,-345,-156,136
528,-1894,-1,91,-4839,22,-345,-157,138
529,-1895,-1,90,-4840,22,-346,-154,135
530,-1894,-2,91,-4839,22,-348,-155,137
531,-1893,-2,90,-4840,22,-347,-154,134
532,-1894,-2,89,-4840,22,-346,-151,136
533,-1894,-1,89,-4838,22,-348,-150,134
534,-1894,-2,89,-4838,22,-346,-151,134
535,-1894,-2,90,-4837,22,-343,-151,138
536,-1895,-1,90,-4835,22,-341,-153,138
537,-1895,-1,91,-4835,22,-339,-152,140
538,-1895,-1,90,-4833,22,-339,-154,140
539,-1896,0,90,-4832,22,-340,-153,139
540,-1895,-1,91,-4832,22,-342,-151,139
541,-1895,-2,90,-4834,22,-342,-150,138
542,-1894,-2,89,-4833,22,-342,-150,137
543,-1894,-3,88,-4832,22,-345,-151,137
544,-1894,-4,89,-4832,22,-346,-152,136
545,-1895,-5,91,-4833,22,-344,-154,136
546,-1895,-5,93,-4833,22,-344,-152,137
547,-1895,-5,93,-4834,22,-344,-153,139
548,-1895,-4,94,-4835,22,-343,-153,141
549,-1895,-4,93,-4834,22,-343,-154,140
550,-1894,-3,93,-4836,22,-343,-155,140
551,-1893,-2,92,-4835,22,-344,-155,137
552,-1894,-2,91,-4835,22,-346,-153,138
553,-1893,-1,91,-4838,22,-344,-154,138
554,-1893,-3,89,-4837,22,-344,-153,139
555,-1894,-3,91,-4837,22,-345,-151,136
556,-1894,-3,91,-4837,22,-345,-154,136
557,-1893,-3,93,-4836,22,-345,-154,137
558,-1894,-3,92,-4836,22,-347,-155,138
559,-1893,-3,93,-4837,22,-345,-155,138
560,-1894,-2,94,-4836,22,-348,-153,138
561,-1895,-1,93,-4835,22,-347,-153,138
562,-1895,-1,94,-4835,22,-345,-152,136
563,-1895,-1,94,-4835,22,-346,-152,136
564,-1894,0,95,-4837,22,-347,-153,137
565,-1894,-1,95,-4839,22,-348,-151,138
566,-1893,-1,94,-4838,22,-349,-151,137
567,-1893,-1,96,-4838,22,-347,-151,135
568,-1894,-1,93,-4837,22,-347,-150,137
569,-1893,-1,91,-4837,22,-347,-150,137
570,-1894,-1,92,-4836,22,-347,-152,137
571,-1895,-1,91,-4835,22,-347,-152,136
572,-1895,-3,90,-4835,22,-346,-152,136
573,-1895,-2,91,-4834,22,-347,-154,137
574,-1895,-3,91,-4835,22,-347,-154,136
575,-1895,-3,90,-4834,22,-343,-155,137
576,-1894,-3,88,-4833,22,-342,-153,136
577,-1894,-3,89,-4834,22,-343,-152,137
578,-1894,-3,89,-4834,22,-344,-153,136
579,-1893,-3,91,-4833,22,-344,-153,137
580,-1893,-3,93,-4832,22,-345,-155,138
581,-1894,-2,94,-4832,22,-344,-154,139
582,-1893,-1,95,-4832,22,-341,-153,138
583,-1894,0,96,-4833,22,-343,-155,138
584,-1894,-1,96,-4833,22,-342,-153,140
585,-1894,-1,94,-4831,22,-343,-151,139
586,-1894,-3,94,-4830,22,-343,-151,138
587,-1894,-1,94,-4832,22,-342,-151,137
588,-1893,-2,94,-4830,22,-343,-152,137
589,-1893,-2,95,-4831,22,-345,-150,135
590,-1894,-2,94,-4830,22,-346,-148,135
591,-1893,-3,94,-4830,22,-346,-148,136
592,-1892,-3,94,-4828,22,-347,-147,137
593,-1893,-3,93,-4829,22,-347,-147,137
594,-1895,-4,94,-4831,22,-347,-147,138
595,-1895,-3,96,-4831,22,-347,-144,137
596,-1894,-2,94,-4834,22,-349,-146,138
597,-1893,-1,95,-4833,22,-347,-147,138
598,-1894,-2,94,-4833,22,-348,-149,138
599,-1894,-2,95,-4832,22,-348,-152,137
600,-1893,-4,93,-4833,22,-346,-152,137
601,-1893,-3,95,-4834,22,-345,-155,136
602,-1892,-3,94,-4834,22,-346,-154,137
603,-1894,-2,95,-4833,22,-346,-150,137
604,-1894,-2,95,-4833,22,-348,-151,136
605,-1895,-2,95,-4831,22,-348,-150,136
606,-1894,-2,92,-4832,22,-347,-150,137
607,-1895,-3,92,-4833,22,-348,-149,139
608,-1895,-2,91,-4835,22,-347,-149,139
609,-1894,-1,92,-4835,22,-347,-151,140
610,-1893,0,91,-4837,22,-348,-151,140
611,-1893,0,92,-4835,22,-349,-152,140
612,-1893,-1,92,-4835,22,-348,-152,139
613,-1894,-1,91,-4835,22,-349,-151,138
614,-1895,-2,92,-4836,22,-348,-151,139
615,-1894,-2,92,-4836,22,-348,-153,139
616,-1893,-1,93,-4837,22,-348,-152,139
617,-1893,-1,91,-4835,22,-346,-151,139
618,-1894,-1,93,-4836,22,-347,-152,141
619,-1894,-1,93,-4836,22,-348,-152,141
620,-1894,-2,93,-4835,22,-348,-152,140
621,-1893,-1,94,-4835,22,-349,-150,139
622,-1893,-2,92,-4835,22,-348,-151,139
623,-1893,-3,91,-4834,22,-349,-152,137
624,-1893,-4,92,-4832,22,-350,-151,137
625,-1895,-3,92,-4830,22,-347,-153,136
626,-1896,-3,92,-4829,22,-346,-152,135
627,-1894,-3,92,-4830,22,-342,-154,136
628,-1895,-4,92,-4829,22,-342,-153,138
629,-1894,-4,92,-4829,22,-342,-153,137
630,-1895,-5,92,-4831,22,-344,-152,136
631,-1895,-5,93,-4833,22,-344,-153,138
632,-1895,-4,92,-4833,22,-345,-154,139
633,-1895,-3,91,-4832,22,-346,-154,139
634,-1895,-2,90,-4833,22,-346,-157,139
635,-1895,-3,90,-4833,22,-345,-157,139
636,-1894,-3,90,-4833,22,-346,-155,139
637,-1893,-3,90,-4833,22,-344,-153,137
638,-1894,-2,89,-4833,22,-344,-153,138
639,-1893,-1,88,-4832,22,-343,-152,136
640,-1893,-1,88,-4831,22,-342,-154,137
641,-1895,-2,90,-4830,22,-344,-154,138
642,-1893,-1,92,-4829,22,-343,-154,138
643,-1893,-2,92,-4830,22,-344,-150,139
644,-1891,-2,91,-4828,22,-346,-151,141
645,-1890,-1,91,-4828,22,-345,-154,139
646,-1891,-2,93,-4829,22,-343,-152,136
647,-1893,-2,92,-4831,22,-344,-151,138
648,-1894,-2,93,-4830,22,-344,-151,137
649,-1894,-2,91,-4830,22,-345,-149,137
650,-1893,-2,93,-4830,22,-344,-150,136
651,-1894,-3,91,-4832,22,-345,-154,136
652,-1894,-3,90,-4831,22,-346,-155,135
653,-1894,-2,90,-4833,22,-347,-153,136
654,-1894,-2,89,-4834,22,-347,-153,137
655,-1895,-2,89,-4832,22,-348,-155,134
656,-1894,-1,91,-4832,22,-347,-153,136
657,-1894,-2,92,-4831,22,-346,-156,137
658,-1895,-1,92,-4830,22,-345,-155,136
659,-1897,-1,92,-4829,22,-344,-155,135
660,-1896,-1,93,-4827,22,-346,-157,134
661,-1897,-1,92,-4827,22,-346,-156,134
662,-1895,-1,90,-4826,22,-348,-152,135
663,-1896,-1,88,-4827,22,-347,-153,135
664,-1896,-1,89,-4827,22,-344,-154,136
665,-1896,-2,87,-4829,22,-342,-153,136
666,-1896,-2,88,-4829,22,-341,-151,136
667,-1896,-2,89,-4828,22,-341,-153,134
668,-1896,-3,89,-4828,22,-338,-151,137
669,-1896,-1,90,-4828,22,-342,-152,138
670,-1895,-2,92,-4830,22,-343,-153,138
671,-1896,-1,94,-4829,22,-342,-152,136
672,-1896,-1,92,-4831,22,-343,-154,134
673,-1895,-2,92,-4829,22,-343,-152,133
674,-1894,-3,91,-4829,22,-345,-154,135
675,-1893,-3,91,-4829,22,-347,-156,134
676,-1892,-2,91,-4830,22,-347,-155,135
677,-1892,-2,90,-4830,22,-346,-154,139
678,-1893,-3,90,-4830,22,-345,-155,140
679,-1894,-3,89,-4831,22,-346,-154,139
680,-1894,-2,90,-4831,22,-345,-155,138
681,-1893,-3,91,-4829,22,-345,-153,137
682,-1894,-3,91,-4829,22,-343,-153,138
683,-1896,-4,91,-4829,22,-344,-155,139
684,-1895,-3,91,-4828,22,-345,-157,139
685,-1895,-3,92,-4827,22,-346,-156,138
686,-1895,-2,92,-4827,22,-347,-154,138
687,-1895,-3,91,-4828,22,-344,-154,137
688,-1895,-3,93,-4826,22,-344,-151,136
689,-1895,-4,92,-4825,22,-344,-151,136
690,-1896,-4,93,-4827,22,-344,-151,136
691,-1895,-3,91,-4827,22,-344,-153,134
692,-1895,-3,89,-4827,22,-347,-151,135
693,-1895,-2,91,-4829,22,-346,-153,135
694,-1895,-1,91,-4829,22,-347,-151,136
695,-1896,-1,94,-4826,22,-348,-152,135
696,-1896,-1,93,-4828,22,-349,-152,136
697,-1895,0,94,-4829,22,-348,-154,136
698,-1893,-2,94,-4829,22,-349,-154,136
699,-1893,-2,95,-4828,22,-349,-155,138
700,-1894,-1,95,-4829,22,-349,-156,139
701,-1893,-1,95,-4828,22,-347,-154,140
702,-1893,-1,95,-4828,22,-348,-156,141
703,-1893,-1,95,-4827,22,-345,-153,139
704,-1894,-2,93,-4827,22,-346,-152,140
705,-1895,-2,94,-4826,22,-346,-151,140
706,-1894,-1,94,-4827,22,-346,-153,140
707,-1894,-3,92,-4827,22,-344,-151,141
708,-1894,-3,93,-4827,22,-345,-152,139
709,-1893,-2,92,-4829,22,-344,-154,139
710,-1893,-1,92,-4828,22,-345,-155,138
711,-1893,-1,92,-4827,22,-343,-156,141
712,-1894,-1,93,-4827,22,-345,-154,140
713,-1893,0,92,-4827,22,-344,-157,139
714,-1895,0,92,-4827,22,-343,-156,138
715,-1895,-1,92,-4827,22,-343,-156,138
716,-1895,-3,92,-4826,22,-343,-156,137
717,-1895,-3,94,-4825,22,-342,-155,139
718,-1895,-4,95,-4826,22,-345,-156,140
719,-1894,-2,93,-4825,22,-345,-157,137
720,-1894,-2,94,-4827,22,-346,-154,137
721,-1894,-1,93,-4824,22,-346,-152,138
722,-1894,-1,92,-4824,22,-347,-152,139
723,-1895,-2,92,-4824,22,-347,-152,140
724,-1896,-2,91,-4825,22,-347,-150,139
725,-1896,-2,92,-4826,22,-346,-151,135
726,-1896,-3,93,-4826,22,-346,-152,133
727,-1895,-4,93,-4826,22,-345,-151,133
728,-1895,-4,95,-4825,22,-346,-152,135
729,-1894,-4,93,-4824,22,-346,-152,136
730,-1894,-3,93,-4825,22,-345,-152,137
731,-1895,-2,93,-4825,22,-345,-152,136
732,-1895,-3,93,-4825,22,-347,-152,138
733,-1896,-3,94,-4824,22,-348,-150,135
734,-1895,-2,93,-4824,22,-347,-155,137
735,-1894,-2,92,-4826,22,-346,-155,136
736,-1893,-2,93,-4826,22,-346,-154,137
737,-1893,-3,92,-4826,22,-347,-152,137
738,-1893,-3,91,-4827,22,-346,-151,136
739,-1894,-2,91,-4827,22,-347,-151,135
740,-1894,-1,90,-4827,22,-348,-153,136
741,-1895,-1,90,-4827,22,-349,-155,135
742,-1894,-1,92,-4826,22,-348,-155,137
743,-1894,-1,91,-4827,22,-346,-154,136
744,-1895,-1,92,-4826,22,-345,-154,136
745,-1896,-1,93,-4826,22,-342,-154,137
746,-1895,-2,91,-4826,22,-342,-153,135
747,-1894,-3,90,-4826,22,-344,-152,136
748,-1894,-3,89,-4826,22,-342,-152,137
749,-1895,-1,89,-4826,22,-344,-151,137
750,-1894,-2,92,-4826,22,-345,-150,136
751,-1894,0,92,-4825,22,-344,-150,139
752,-1893,-1,92,-4825,22,-344,-152,138
753,-1893,-1,93,-4824,22,-345,-156,138
754,-1894,-3,92,-4824,22,-344,-157,138
755,-1894,-4,91,-4823,22,-345,-155,138
756,-1894,-3,90,-4822,22,-344,-153,138
757,-1893,-2,91,-4823,22,-347,-152,138
758,-1892,-1,93,-4822,22,-348,-152,139
759,-1891,-1,92,-4823,22,-348,-151,139
760,-1890,-2,94,-4824,22,-346,-151,139
761,-1890,-1,91,-4824,22,-347,-153,140
762,-1891,-1,90,-4823,22,-347,-154,138
763,-1892,-2,91,-4824,22,-345,-155,139
764,-1892,-2,93,-4823,22,-345,-155,139
765,-1892,-2,91,-4823,22,-345,-155,138
766,-1892,-3,93,-4822,22,-345,-155,136
767,-1894,-3,91,-4823,22,-342,-152,134
768,-1894,-2,91,-4822,22,-345,-151,135
769,-1893,-1,91,-4822,22,-346,-150,135
770,-1894,-1,92,-4823,22,-347,-149,139
771,-1894,-2,91,-4824,22,-347,-149,138
772,-1895,-2,91,-4824,22,-346,-150,137
773,-1895,-2,93,-4825,22,-346,-149,137
774,-1894,-3,93,-4824,22,-347,-150,139
775,-1893,-3,91,-4824,22,-347,-149,140
776,-1894,-3,91,-4827,22,-347,-149,140
777,-1894,-3,91,-4827,22,-346,-152,139
778,-1894,-4,90,-4825,22,-346,-151,139
779,-1893,-4,90,-4826,22,-346,-150,139
780,-1895,-3,90,-4826,22,-347,-151,138
781,-1893,-3,90,-4825,22,-345,-151,139
782,-1893,-4,91,-4823,22,-344,-153,138
783,-1893,-3,92,-4821,22,-344,-154,137
784,-1893,-2,92,-4822,22,-344,-154,139
785,-1893,-2,93,-4823,22,-344,-157,137
786,-1892,-2,94,-4823,22,-345,-155,137
787,-1892,-2,92,-4823,22,-346,-154,137
788,-1892,-2,93,-4824,22,-346,-154,136
789,-1894,-1,93,-4823,22,-342,-154,134
790,-1894,-3,93,-4823,22,-344,-154,136
791,-1895,-4,94,-4825,22,-345,-156,138
792,-1895,-5,95,-4822,22,-344,-157,139
793,-1894,-6,94,-4822,22,-343,-155,138
794,-1894,-5,95,-4824,22,-342,-158,136
795,-1894,-4,94,-4824,22,-344,-157,136
796,-1895,-4,95,-4825,22,-346,-156,137
797,-1895,-4,95,-4824,22,-344,-155,135
798,-1896,-4,94,-4823,22,-346,-154,137
799,-1895,-3,96,-4823,22,-346,-153,137
800,-1894,-3,96,-4822,22,-346,-153,139
801,-1895,-2,93,-4822,22,-344,-152,138
802,-1895,-1,93,-4822,22,-345,-150,138
803,-1894,-1,94,-4821,22,-345,-149,138
804,-1895,-2,94,-4820,22,-344,-151,139
805,-1894,-2,94,-4820,22,-344,-151,138
806,-1895,-3,93,-4823,22,-346,-150,136
807,-1896,-2,92,-4822,22,-344,-150,136
808,-1895,-2,94,-4822,22,-345,-152,137
809,-1894,-3,93,-4820,22,-347,-154,137
810,-1894,-3,93,-4821,22,-348,-152,135
811,-1894,-3,94,-4822,22,-348,-152,136
812,-1894,-2,93,-4823,22,-346,-151,138
813,-1893,-2,93,-4822,22,-346,-150,137
814,-1893,-2,92,-4823,22,-345,-149,135
815,-1894,-3,92,-4823,22,-348,-151,135
816,-1894,-4,91,-4822,22,-347,-152,135
817,-1895,-4,92,-4822,22,-346,-153,135
818,-1895,-5,95,-4824,22,-347,-152,136
819,-1895,-3,93,-4823,22,-346,-149,137
820,-1895,-4,92,-4822,22,-346,-150,136
821,-1894,-4,93,-4824,22,-346,-150,135
822,-1895,-4,92,-4825,22,-344,-151,137
823,-1894,-3,92,-4824,22,-345,-149,138
824,-1895,-3,92,-4822,22,-343,-149,138
825,-1894,-4,93,-4821,22,-345,-150,138
826,-1895,-3,93,-4821,22,-345,-151,137
827,-1895,-2,93,-4822,22,-344,-153,136
828,-1894,-1,91,-4822,22,-344,-154,137
829,-1894,-1,91,-4823,22,-344,-153,139
830,-1894,-1,91,-4824,22,-343,-152,139
831,-1895,-2,90,-4821,22,-344,-152,140
832,-1893,-2,91,-4821,22,-346,-154,140
833,-1894,-4,90,-4819,22,-344,-154,140
834,-1894,-3,91,-4818,22,-345,-153,141
835,-1895,-3,93,-4819,22,-343,-151,138
836,-1894,-4,92,-4818,22,-346,-153,139
837,-1894,-3,94,-4818,22,-342,-152,138
838,-1894,-3,93,-4818,22,-343,-153,138
839,-1894,-3,93,-4818,22,-344,-154,138
840,-1892,-4,93,-4818,22,-344,-154,139
841,-1893,-4,94,-4818,22,-346,-153,136
842,-1894,-4,95,-4819,22,-346,-153,138
843,-1893,-4,96,-4818,22,-347,-153,137
844,-1893,-4,94,-4817,22,-348,-155,139
845,-1893,-3,93,-4818,22,-347,-155,137
846,-1892,-2,94,-4818,22,-347,-155,138
847,-1893,-2,93,-4820,22,-344,-154,137
848,-1894,-4,94,-4819,22,-345,-155,137
849,-1894,-2,95,-4820,22,-344,-154,138
850,-1895,-4,94,-4821,22,-346,-151,138
851,-1896,-3,92,-4820,22,-347,-152,139
852,-1896,-3,92,-4821,22,-348,-154,142
853,-1896,-4,93,-4820,22,-348,-152,138
854,-1896,-4,94,-4819,22,-346,-151,139
855,-1895,-4,92,-4818,22,-345,-154,139
856,-1895,-3,93,-4819,22,-344,-155,139
857,-1895,-2,94,-4820,22,-344,-153,139
858,-1895,-3,93,-4819,22,-341,-153,138
859,-1895,-2,92,-4818,22,-341,-154,139
860,-1895,-1,93,-4819,22,-339,-153,139
861,-1895,-1,91,-4819,22,-340,-150,138
862,-1895,1,92,-4819,22,-344,-151,139
863,-1897,0,93,-4821,22,-345,-152,138
864,-1898,-1,92,-4820,22,-346,-151,138
865,-1897,-1,93,-4821,22,-347,-152,137
866,-1896,-1,93,-4820,22,-347,-151,136
867,-1896,-2,93,-4820,22,-347,-151,138
868,-1895,-4,92,-4822,22,-347,-153,140
869,-1896,-5,93,-4820,22,-345,-156,140
870,-1896,-5,95,-4821,22,-345,-157,138
871,-1896,-5,94,-4819,22,-345,-154,138
872,-1895,-5,93,-4819,22,-345,-154,137
873,-1894,-5,91,-4819,22,-346,-154,138
874,-1893,-4,93,-4820,22,-345,-153,138
875,-1893,-3,92,-4820,22,-345,-153,138
876,-1894,-3,92,-4820,22,-345,-154,140
877,-1894,-3,92,-4819,22,-344,-155,140
878,-1895,-3,92,-4818,22,-343,-153,141
879,-1895,-2,92,-4820,22,-343,-152,140
880,-1894,-2,92,-4818,22,-343,-154,139
881,-1894,0,94,-4818,22,-343,-151,138
882,-1893,-1,94,-4819,22,-341,-150,137
883,-1894,-2,94,-4819,22,-344,-152,136
884,-1893,-3,91,-4819,22,-343,-154,137
885,-1893,-2,93,-4819,22,-342,-152,137
886,-1894,-1,93,-4819,22,-342,-152,138
887,-1893,-1,93,-4819,22,-342,-153,139
888,-1893,-2,95,-4819,22,-342,-152,138
889,-1892,-2,95,-4819,22,-343,-154,138
890,-1893,-2,93,-4819,22,-344,-155,138
891,-1893,-1,93,-4817,22,-344,-155,138
892,-1894,-2,92,-4818,22,-344,-156,137
893,-1894,-2,92,-4817,22,-345,-156,137
894,-1893,-3,91,-4820,22,-345,-154,135
895,-1893,-3,91,-4819,22,-345,-154,136
896,-1893,-4,92,-4818,22,-344,-155,138
897,-1893,-4,92,-4818,22,-344,-154,140
898,-1893,-3,92,-4817,22,-344,-154,139
899,-1894,-3,94,-4815,22,-345,-155,137
900,-1893,-3,91,-4816,22,-344,-153,138
901,-1894,-1,89,-4817,22,-346,-155,137
902,-1895,-2,89,-4820,22,-348,-156,136
903,-1895,-2,89,-4821,22,-346,-157,136
904,-1894,-1,91,-4821,22,-347,-155,138
905,-1893,-1,91,-4821,22,-346,-154,140
906,-1893,-1,92,-4820,22,-346,-152,139
907,-1894,-1,92,-4818,22,-345,-154,138
908,-1895,0,92,-4815,22,-345,-155,138
909,-1896,-1,91,-4818,22,-346,-154,138
910,-1895,-1,91,-4817,22,-348,-153,138
911,-1896,0,90,-4819,22,-346,-150,137
912,-1895,-2,91,-4819,22,-346,-150,137
913,-1894,-3,92,-4819,22,-346,-150,136
914,-1895,-3,94,-4819,22,-346,-151,136
915,-1895,-2,92,-4819,22,-346,-151,136
916,-1897,-2,93,-4820,22,-347,-149,138
917,-1896,-2,93,-4819,22,-347,-149,136
918,-1896,-1,90,-4819,22,-346,-152,136
919,-1895,-1,90,-4820,22,-344,-152,138
920,-1895,-1,91,-4819,22,-346,-153,138
921,-1896,-2,91,-4817,22,-345,-153,136
922,-1895,-2,90,-4818,22,-345,-153,139
923,-1895,-1,91,-4819,22,-344,-152,140
924,-1894,-2,90,-4820,22,-344,-151,141
925,-1894,-2,90,-4819,22,-343,-149,141
926,-1894,-2,92,-4819,22,-343,-147,142
927,-1894,-1,91,-4817,22,-344,-148,140
928,-1894,-1,91,-4818,22,-348,-149,140
929,-1895,-1,92,-4820,22,-347,-151,139
930,-1895,-2,94,-4819,22,-346,-151,138
931,-1895,-1,93,-4819,22,-346,-151,136
932,-1895,-2,92,-4819,22,-346,-150,135
933,-1895,-2,92,-4819,22,-346,-151,135
934,-1894,-2,92,-4818,22,-347,-149,135
935,-1894,-3,93,-4818,22,-345,-152,136
936,-1894,-2,91,-4818,22,-347,-153,135
937,-1895,-1,92,-4818,22,-343,-153,135
938,-1896,-2,92,-4816,22,-342,-150,133
939,-1896,-2,92,-4815,22,-341,-149,134
940,-1896,-1,92,-4816,22,-343,-151,135
941,-1896,-2,93,-4815,22,-344,-152,136
942,-1897,-2,91,-4815,22,-346,-152,137
943,-1895,0,92,-4817,22,-346,-153,137
944,-1896,0,93,-4817,22,-346,-152,139
945,-1895,0,95,-4817,22,-346,-153,138
946,-1894,-2,93,-4817,22,-343,-152,137
947,-1893,-1,94,-4818,22,-343,-151,137
948,-1894,-2,92,-4819,22,-346,-151,138
949,-1894,-1,92,-4819,22,-346,-154,135
950,-1894,0,92,-4817,22,-346,-154,136
951,-1893,0,94,-4816,22,-345,-154,137
952,-1892,0,93,-4816,22,-345,-150,137
953,-1893,0,93,-4816,22,-345,-151,138
954,-1893,-1,93,-4815,22,-346,-150,138
955,-1892,0,92,-4816,22,-346,-149,137
956,-1892,-1,92,-4815,22,-344,-151,138
957,-1893,-1,92,-4815,22,-344,-154,138
958,-1894,0,92,-4814,22,-344,-155,138
959,-1895,-1,94,-4816,22,-344,-153,136
960,-1894,-1,93,-4819,22,-347,-152,135
961,-1894,0,93,-4819,22,-347,-155,136
962,-1894,-1,91,-4821,22,-346,-154,137
963,-1894,-1,89,-4819,22,-347,-151,138
964,-1895,-1,89,-4820,22,-346,-151,138
965,-1894,-1,89,-4818,22,-345,-152,139
966,-1893,0,90,-4817,22,-345,-148,136
967,-1893,0,90,-4817,22,-344,-147,137
968,-1894,0,90,-4816,22,-345,-152,137
969,-1894,-1,89,-4817,22,-347,-151,137
970,-1893,-1,90,-4816,22,-348,-151,138
971,-1895,-1,90,-4816,22,-346,-153,137
972,-1895,-1,91,-4816,22,-347,-153,138
973,-1895,-1,92,-4816,22,-349,-152,139
974,-1895,-2,91,-4816,22,-346,-154,138
975,-1894,-2,91,-4816,22,-348,-153,138
976,-1894,-2,91,-4815,22,-347,-152,138
977,-1894,-2,91,-4816,22,-346,-151,138
978,-1894,-2,91,-4816,22,-349,-152,138
979,-1893,-2,91,-4816,22,-348,-150,135
980,-1892,-3,92,-4817,22,-346,-153,135
981,-1892,-4,92,-4817,22,-347,-153,135
982,-1893,-3,91,-4816,22,-347,-153,135
983,-1893,-3,92,-4817,22,-349,-153,135
984,-1894,-1,92,-4818,22,-347,-153,136
985,-1893,-1,91,-4818,22,-348,-152,137
986,-1893,-1,90,-4817,22,-348,-151,137
987,-1893,-1,91,-4816,22,-348,-153,138
988,-1894,-2,91,-4813,22,-345,-153,140
989,-1894,-2,91,-4813,22,-346,-153,139
990,-1894,-1,92,-4812,22,-346,-154,138
991,-1894,-3,91,-4813,22,-343,-155,138
992,-1893,-4,90,-4814,22,-343,-156,140
993,-1893,-4,92,-4814,22,-344,-157,138
994,-1894,-4,95,-4815,22,-345,-158,138
995,-1894,-3,94,-4815,22,-345,-155,136
