,acc_X,acc_Y,acc_Z,temp,tempC,gyr_X,gyr_Y,gyr_Z
0,-3776,8,176,-4892,22,-322,-165,134
1,-3789,-5,192,-4893,22,-347,-139,126
2,-3802,-8,165,-4890,22,-344,-144,130
3,-3800,-24,168,-4876,22,-341,-143,136
4,-3791,-13,219,-4892,22,-348,-157,138
5,-3784,-12,167,-4878,22,-350,-165,156
6,-3785,-5,170,-4882,22,-340,-174,139
7,-3787,3,198,-4879,22,-323,-162,142
8,-3789,-22,168,-4876,22,-334,-148,139
9,-3789,4,181,-4896,22,-341,-146,139
10,-3784,9,176,-4883,22,-351,-136,137
11,-3787,-5,187,-4871,22,-340,-155,147
12,-3780,-9,182,-4878,22,-344,-152,128
13,-3785,-15,193,-4889,22,-350,-169,146
14,-3766,-7,169,-4882,22,-340,-150,143
15,-3780,-29,185,-4885,22,-368,-186,144
16,-3770,-12,184,-4886,22,-342,-163,146
17,-3801,9,194,-4877,22,-341,-149,145
18,-3775,5,162,-4880,22,-336,-164,132
19,-3789,-20,165,-4892,22,-332,-168,138
20,-3798,3,175,-4883,22,-356,-149,142
21,-3804,4,170,-4878,22,-340,-157,144
22,-3788,-18,162,-4875,22,-340,-153,164
23,-3770,-4,174,-4885,22,-347,-145,139
24,-3795,-14,183,-4876,22,-359,-152,136
25,-3788,10,190,-4884,22,-334,-169,153
26,-3764,-10,188,-4876,22,-344,-155,145
27,-3798,0,188,-4878,22,-351,-148,134
28,-3811,9,196,-4866,22,-345,-150,136
29,-3791,15,188,-4879,22,-335,-154,133
30,-3786,-17,190,-4879,22,-336,-144,134
31,-3796,-13,197,-4877,22,-354,-157,156
32,-3797,-1,194,-4874,22,-337,-143,133
33,-3780,5,178,-4882,22,-349,-147,135
34,-3766,-5,190,-4878,22,-345,-180,144
35,-3782,-14,184,-4877,22,-348,-160,142
36,-3780,-3,164,-4867,22,-351,-149,148
37,-3788,4,196,-4883,22,-331,-161,153
38,-3772,-5,188,-4878,22,-353,-166,142
39,-3783,-23,193,-4868,22,-340,-153,144
40,-3793,-9,154,-4875,22,-352,-148,152
41,-3777,4,183,-4875,22,-349,-144,148
42,-3801,10,187,-4891,22,-334,-139,129
43,-3801,-16,196,-4866,22,-353,-150,136
44,-3774,-3,201,-4885,22,-331,-149,130
45,-3798,-6,182,-4891,22,-346,-147,124
46,-3780,1,185,-4867,22,-342,-149,153
47,-3787,-9,185,-4882,22,-341,-157,134
48,-3790,0,202,-4871,22,-357,-153,139
49,-3793,4,170,-4863,22,-350,-153,126
50,-3785,-9,185,-4868,22,-335,-154,127
51,-3808,-5,191,-4874,22,-349,-152,158
52,-3787,-2,174,-4861,22,-351,-136,140
53,-3797,-3,175,-4872,22,-335,-142,138
54,-3783,-19,182,-4856,22,-355,-162,142
55,-3782,-3,192,-4876,22,-339,-168,126
56,-3784,-15,201,-4865,22,-360,-161,137
57,-3780,-26,170,-4861,22,-338,-146,127
58,-3784,6,207,-4866,22,-354,-146,126
59,-3786,-9,195,-4864,22,-343,-184,148
60,-3792,2,210,-4852,22,-345,-152,137
61,-3778,-5,178,-4862,22,-333,-160,158
62,-3787,4,180,-4864,22,-349,-147,157
63,-3800,0,177,-4862,22,-345,-158,138
64,-3784,-2,187,-4871,22,-350,-165,138
65,-3769,-9,173,-4873,22,-343,-142,136
66,-3793,2,197,-4869,22,-346,-157,145
67,-3794,-11,157,-4878,22,-333,-145,141
68,-3794,-11,198,-4866,22,-351,-167,137
69,-3784,1,210,-4861,22,-348,-133,137
70,-3783,-3,166,-4856,22,-372,-157,140
71,-3792,17,184,-4870,22,-341,-157,128
72,-3786,-39,165,-4863,22,-331,-150,127
73,-3792,-5,201,-4865,22,-341,-161,137
74,-3793,-1,190,-4862,22,-328,-136,138
75,-3780,-17,177,-4861,22,-356,-145,131
76,-3786,0,177,-4875,22,-359,-148,135
77,-3822,-4,179,-4870,22,-336,-145,127
78,-3776,-7,185,-4859,22,-354,-162,137
79,-3805,14,183,-4854,22,-342,-160,134
80,-3804,-7,169,-4866,22,-338,-164,127
81,-3798,-14,181,-4869,22,-345,-157,119
82,-3794,-1,151,-4857,22,-357,-148,152
83,-3793,-4,166,-4866,22,-350,-149,145
84,-3770,5,195,-4859,22,-331,-171,155
85,-3790,-15,196,-4854,22,-324,-142,124
86,-3787,-10,164,-4867,22,-348,-147,134
87,-3798,-22,185,-4869,22,-349,-142,125
88,-3773,-7,173,-4860,22,-337,-139,143
89,-3793,-19,189,-4857,22,-348,-142,130
90,-3796,1,202,-4869,22,-334,-156,132
91,-3788,12,166,-4858,22,-343,-145,140
92,-3765,12,162,-4858,22,-337,-151,135
93,-3778,-6,182,-4852,22,-341,-162,136
94,-3792,3,162,-4868,22,-358,-153,150
95,-3784,2,175,-4846,22,-345,-148,135
96,-3793,-11,173,-4870,22,-349,-162,120
97,-3790,-17,182,-4864,22,-338,-156,131
98,-3780,-5,197,-4867,22,-363,-153,152
99,-3800,-9,155,-4874,22,-345,-161,126
100,-3780,-5,203,-4850,22,-344,-137,129
101,-3813,-5,202,-4857,22,-345,-145,128
102,-3814,1,172,-4854,22,-347,-140,134
103,-3800,1,156,-4848,22,-345,-144,138
104,-3791,-6,208,-4872,22,-338,-139,127
105,-3779,-1,205,-4859,22,-328,-167,132
106,-3791,-2,186,-4867,22,-332,-159,139
107,-3791,-8,151,-4852,22,-327,-155,136
108,-3799,-1,174,-4852,22,-333,-153,134
109,-3781,10,176,-4861,22,-348,-155,145
110,-3770,2,166,-4854,22,-359,-143,142
111,-3802,-3,167,-4849,22,-358,-148,140
112,-3776,7,212,-4874,22,-354,-173,147
113,-3767,-19,184,-4860,22,-333,-148,147
114,-3782,-5,198,-4864,22,-366,-172,146
115,-3782,-26,177,-4849,22,-348,-152,133
116,-3793,-18,173,-4858,22,-350,-138,140
117,-3805,-6,181,-4841,22,-340,-151,126
118,-3770,-5,187,-4855,22,-343,-149,132
119,-3778,-11,181,-4857,22,-341,-154,148
120,-3791,4,200,-4857,22,-344,-171,138
121,-3801,3,187,-4847,22,-345,-156,146
122,-3800,4,176,-4838,22,-333,-145,141
123,-3799,14,190,-4845,22,-335,-149,121
124,-3791,-15,153,-4848,22,-338,-130,148
125,-3802,-7,178,-4852,22,-367,-146,129
126,-3782,-4,197,-4845,22,-354,-166,132
127,-3785,-2,202,-4856,22,-343,-148,132
128,-3788,-1,167,-4857,22,-346,-140,129
129,-3785,-20,169,-4856,22,-349,-147,141
130,-3774,-8,195,-4857,22,-349,-149,138
131,-3776,-6,184,-4846,22,-344,-156,134
132,-3787,5,210,-4842,22,-336,-144,140
133,-3780,-18,186,-4861,22,-326,-139,149
134,-3796,-9,180,-4846,22,-349,-141,125
135,-3797,-4,175,-4850,22,-358,-161,126
136,-3801,-23,216,-4860,22,-350,-152,140
137,-3786,-16,175,-4867,22,-339,-168,134
138,-3784,-12,195,-4846,22,-336,-149,139
139,-3787,-2,153,-4853,22,-346,-154,142
140,-3794,1,173,-4851,22,-364,-133,150
141,-3775,-3,193,-4851,22,-349,-141,122
142,-3781,-18,184,-4846,22,-357,-169,133
143,-3778,9,190,-4858,22,-348,-168,135
144,-3785,-2,157,-4841,22,-339,-144,117
145,-3773,1,166,-4844,22,-355,-140,139
146,-3790,-10,191,-4839,22,-337,-161,138
147,-3801,-4,193,-4831,22,-335,-140,151
148,-3788,8,203,-4845,22,-336,-147,118
149,-3779,0,208,-4844,22,-345,-143,134
150,-3805,-15,199,-4848,22,-339,-161,148
151,-3778,-4,194,-4863,22,-319,-137,129
152,-3789,6,229,-4852,22,-323,-155,132
153,-3770,-8,170,-4847,22,-338,-158,121
154,-3799,4,189,-4839,22,-339,-169,144
155,-3789,-15,182,-4848,22,-352,-141,141
156,-3768,-31,209,-4857,22,-342,-155,133
157,-3786,1,167,-4836,22,-341,-177,133
158,-3793,-7,181,-4855,22,-338,-163,145
159,-3778,-14,179,-4854,22,-338,-146,136
160,-3794,-24,209,-4841,22,-344,-142,152
161,-3799,-4,181,-4836,22,-350,-145,142
162,-3794,17,185,-4848,22,-361,-139,147
163,-3778,1,178,-4842,22,-353,-135,144
164,-3795,8,201,-4846,22,-348,-145,130
165,-3772,19,201,-4826,22,-353,-152,121
166,-3803,2,183,-4843,22,-340,-150,131
167,-3783,-18,202,-4850,22,-348,-133,134
168,-3785,-4,193,-4845,22,-354,-153,150
169,-3777,3,199,-4834,22,-356,-169,149
170,-3787,-30,191,-4839,22,-338,-140,141
171,-3798,19,178,-4837,22,-335,-149,134
172,-3790,23,172,-4854,22,-341,-161,145
173,-3787,1,144,-4850,22,-354,-145,143
174,-3785,-19,172,-4849,22,-352,-146,140
175,-3793,-27,167,-4853,22,-329,-151,142
176,-3769,-17,170,-4855,22,-352,-134,137
177,-3802,4,207,-4848,22,-353,-161,150
178,-3789,-6,185,-4841,22,-348,-136,131
179,-3786,-35,179,-4853,22,-333,-137,149
180,-3794,7,200,-4844,22,-356,-147,122
181,-3800,1,170,-4837,22,-341,-143,149
182,-3785,6,224,-4846,22,-339,-154,134
183,-3798,11,185,-4864,22,-335,-157,139
184,-3795,-19,183,-4847,22,-346,-141,120
185,-3791,-7,176,-4826,22,-333,-150,142
186,-3778,-13,201,-4846,22,-335,-164,135
187,-3796,-33,188,-4848,22,-337,-149,147
188,-3787,-20,200,-4829,22,-346,-159,131
189,-3777,1,195,-4845,22,-353,-157,127
190,-3781,-6,165,-4834,22,-332,-136,141
191,-3809,7,189,-4865,22,-356,-150,136
192,-3772,-8,195,-4848,22,-329,-161,132
193,-3773,-20,198,-4841,22,-339,-144,136
194,-3784,5,215,-4840,22,-353,-153,131
195,-3785,-17,168,-4847,22,-355,-147,137
196,-3808,-17,206,-4834,22,-354,-137,135
197,-3783,-14,170,-4848,22,-349,-161,146
198,-3798,-11,162,-4851,22,-345,-137,138
199,-3796,3,202,-4836,22,-347,-149,149
200,-3779,-3,196,-4833,22,-328,-150,135
201,-3810,-19,175,-4846,22,-358,-156,144
202,-3784,3,171,-4834,22,-354,-151,141
203,-3787,0,199,-4843,22,-357,-164,138
204,-3780,-8,178,-4838,22,-347,-160,140
205,-3784,-28,210,-4835,22,-345,-159,125
206,-3786,-8,201,-4848,22,-350,-141,123
207,-3782,-19,168,-4834,22,-352,-141,131
208,-3796,-11,171,-4834,22,-335,-145,137
209,-3784,12,201,-4826,22,-347,-148,148
210,-3773,-12,171,-4846,22,-343,-157,150
211,-3775,-4,190,-4837,22,-353,-164,142
212,-3790,7,201,-4835,22,-330,-152,136
213,-3799,-2,169,-4842,22,-361,-128,128
214,-3768,5,188,-4844,22,-340,-153,148
215,-3807,7,204,-4833,22,-358,-150,146
216,-3793,2,181,-4840,22,-344,-142,120
217,-3804,-12,213,-4831,22,-348,-148,116
218,-3783,13,192,-4832,22,-330,-127,129
219,-3786,6,215,-4849,22,-338,-153,144
220,-3770,-22,191,-4827,22,-349,-146,138
221,-3780,15,190,-4845,22,-348,-164,151
222,-3788,-1,211,-4827,22,-333,-158,131
223,-3790,-1,193,-4838,22,-340,-144,143
224,-3783,-20,201,-4848,22,-340,-158,135
225,-3786,-9,195,-4828,22,-345,-159,150
226,-3777,-12,205,-4838,22,-337,-145,151
227,-3798,-18,169,-4847,22,-357,-151,134
228,-3786,-3,183,-4827,22,-344,-158,139
229,-3797,-11,185,-4840,22,-343,-147,147
230,-3791,21,179,-4844,22,-339,-153,121
231,-3773,-9,200,-4839,22,-345,-157,143
232,-3795,-10,160,-4840,22,-353,-138,127
233,-3792,-9,171,-4834,22,-349,-151,129
234,-3771,-13,185,-4839,22,-348,-149,139
235,-3792,-11,193,-4842,22,-347,-143,144
236,-3801,-17,189,-4839,22,-342,-165,131
237,-3805,30,191,-4820,22,-342,-137,163
238,-3787,-8,178,-4839,22,-347,-174,149
239,-3800,-7,206,-4833,22,-343,-156,132
240,-3802,0,179,-4833,22,-340,-143,140
241,-3783,-16,180,-4844,22,-364,-145,132
242,-3783,-11,183,-4826,22,-343,-158,142
243,-3790,3,181,-4847,22,-326,-139,144
244,-3769,-2,193,-4841,22,-332,-171,130
245,-3756,-7,196,-4838,22,-338,-175,136
246,-3815,-14,210,-4835,22,-336,-143,136
247,-3783,-10,195,-4829,22,-357,-146,134
248,-3785,-1,190,-4833,22,-334,-151,143
249,-3798,-5,178,-4846,22,-345,-155,128
250,-3791,-14,199,-4836,22,-347,-154,125
251,-3780,-7,165,-4833,22,-350,-161,128
252,-3777,-8,205,-4828,22,-362,-160,133
253,-3800,6,197,-4850,22,-345,-152,133
254,-3795,2,194,-4842,22,-358,-148,142
255,-3798,-19,196,-4838,22,-357,-154,147
256,-3781,-10,197,-4847,22,-348,-160,126
257,-3788,-8,212,-4851,22,-338,-141,144
258,-3784,-8,178,-4843,22,-352,-175,128
259,-3806,6,204,-4825,22,-345,-147,148
260,-3805,16,193,-4848,22,-335,-149,133
261,-3778,-12,199,-4835,22,-339,-163,139
262,-3786,-22,179,-4829,22,-343,-147,125
263,-3781,-11,187,-4830,22,-335,-147,143
264,-3812,-15,161,-4829,22,-346,-136,137
265,-3809,4,176,-4827,22,-352,-155,136
266,-3794,2,199,-4831,22,-348,-148,127
267,-3794,8,190,-4836,22,-349,-148,161
268,-3785,2,194,-4847,22,-359,-155,148
269,-3795,28,174,-4844,22,-352,-164,132
270,-3785,14,202,-4831,22,-350,-153,132
271,-3782,3,209,-4831,22,-351,-152,148
272,-3799,3,171,-4842,22,-356,-152,148
273,-3769,2,175,-4836,22,-335,-166,128
274,-3782,0,194,-4827,22,-349,-145,140
275,-3784,8,203,-4838,22,-340,-149,146
276,-3790,-18,189,-4831,22,-365,-138,146
277,-3780,6,184,-4834,22,-354,-140,142
278,-3784,-3,197,-4842,22,-346,-156,157
279,-3791,8,180,-4832,22,-349,-136,142
280,-3804,-13,162,-4830,22,-348,-159,142
281,-3780,-2,191,-4839,22,-335,-153,139
282,-3782,2,164,-4838,22,-350,-161,147
283,-3775,-5,179,-4818,22,-333,-134,138
284,-3792,-9,176,-4839,22,-349,-153,153
285,-3778,1,181,-4826,22,-339,-165,134
286,-3802,-3,195,-4831,22,-334,-149,139
287,-3787,-10,174,-4829,22,-341,-158,150
288,-3789,4,209,-4836,22,-357,-160,159
289,-3772,-5,164,-4836,22,-349,-166,138
290,-3788,-16,162,-4831,22,-337,-154,139
291,-3805,-8,183,-4832,22,-334,-132,127
292,-3805,-11,180,-4824,22,-353,-149,141
293,-3801,-11,216,-4836,22,-349,-159,124
294,-3788,-24,168,-4823,22,-335,-154,135
295,-3797,-24,166,-4820,22,-328,-156,143
296,-3788,-30,155,-4834,22,-341,-141,139
297,-3762,-2,196,-4835,22,-344,-143,122
298,-3810,-23,172,-4837,22,-341,-131,144
299,-3782,17,177,-4822,22,-344,-164,136
300,-3768,8,188,-4825,22,-331,-153,139
301,-3773,6,199,-4838,22,-352,-146,133
302,-3800,7,193,-4812,22,-349,-151,131
303,-3796,-14,186,-4832,22,-344,-151,143
304,-3781,2,177,-4823,22,-348,-150,144
305,-3796,-11,218,-4817,22,-339,-150,136
306,-3776,-1,212,-4828,22,-338,-158,135
307,-3805,4,164,-4822,22,-354,-138,137
308,-3775,9,167,-4818,22,-352,-159,134
309,-3789,-17,173,-4823,22,-343,-162,148
310,-3803,-14,164,-4819,22,-325,-150,134
311,-3789,-6,195,-4816,22,-362,-165,145
312,-3796,-17,204,-4824,22,-352,-170,137
313,-3785,6,216,-4828,22,-348,-164,117
314,-3785,-1,151,-4817,22,-344,-161,130
315,-3785,-17,185,-4822,22,-353,-134,142
316,-3796,-1,213,-4828,22,-338,-148,148
317,-3766,7,180,-4831,22,-353,-158,138
318,-3800,3,204,-4823,22,-344,-151,153
319,-3802,-22,167,-4838,22,-338,-154,131
320,-3797,-9,178,-4814,22,-341,-173,135
321,-3802,5,198,-4837,22,-348,-170,142
322,-3801,-27,182,-4841,22,-358,-131,142
323,-3798,-20,181,-4835,22,-347,-156,137
324,-3790,-9,192,-4819,22,-358,-136,139
325,-3790,16,175,-4823,22,-328,-157,136
326,-3790,-4,179,-4829,22,-327,-147,132
327,-3777,13,191,-4824,22,-333,-154,138
328,-3788,0,151,-4829,22,-340,-134,138
329,-3804,-2,195,-4819,22,-353,-155,147
330,-3788,1,206,-4833,22,-354,-146,150
331,-3783,12,186,-4819,22,-354,-150,140
332,-3797,14,169,-4820,22,-324,-155,135
333,-3783,-16,179,-4827,22,-337,-136,123
334,-3787,2,190,-4834,22,-350,-154,136
335,-3812,-16,171,-4836,22,-339,-161,146
336,-3778,1,166,-4827,22,-350,-157,128
337,-3799,-2,185,-4831,22,-350,-151,138
338,-3779,13,189,-4825,22,-348,-158,139
339,-3796,-1,215,-4816,22,-367,-165,127
340,-3783,-6,162,-4837,22,-350,-168,133
341,-3781,-6,204,-4837,22,-341,-136,138
342,-3790,-13,186,-4824,22,-342,-159,129
343,-3798,-19,182,-4831,22,-356,-158,148
344,-3791,-4,156,-4813,22,-334,-143,135
345,-3779,-8,180,-4831,22,-348,-152,137
346,-3794,7,198,-4820,22,-334,-127,147
347,-3802,-18,184,-4827,22,-366,-159,148
348,-3794,1,226,-4837,22,-344,-132,130
349,-3801,-27,197,-4823,22,-357,-153,130
350,-3772,-13,175,-4832,22,-348,-145,136
351,-3788,-4,145,-4844,22,-339,-170,138
352,-3749,-8,203,-4826,22,-355,-134,133
353,-3790,-24,220,-4837,22,-357,-152,135
354,-3788,-9,198,-4817,22,-353,-153,139
355,-3792,-17,187,-4819,22,-349,-154,136
356,-3788,-17,197,-4835,22,-345,-162,139
357,-3786,-15,164,-4832,22,-355,-155,120
358,-3800,5,192,-4818,22,-349,-153,131
359,-3782,-3,207,-4815,22,-336,-153,133
360,-3784,3,209,-4816,22,-333,-159,134
361,-3792,-4,196,-4818,22,-347,-156,141
362,-3795,0,201,-4826,22,-348,-144,140
363,-3795,-8,195,-4816,22,-332,-146,129
364,-3776,-14,200,-4828,22,-345,-156,165
365,-3785,11,163,-4807,22,-328,-161,121
366,-3797,-6,188,-4817,22,-361,-151,136
367,-3785,-12,192,-4830,22,-348,-149,126
368,-3792,-11,157,-4823,22,-348,-153,120
369,-3810,-11,179,-4823,22,-331,-150,132
370,-3779,-17,200,-4831,22,-328,-146,135
371,-3766,-7,176,-4817,22,-366,-153,139
372,-3775,8,172,-4832,22,-323,-133,145
373,-3779,7,193,-4823,22,-334,-146,130
374,-3791,-10,192,-4818,22,-349,-146,132
375,-3796,-15,182,-4825,22,-343,-148,148
376,-3798,-14,151,-4818,22,-374,-159,109
377,-3782,-12,166,-4827,22,-351,-140,131
378,-3807,-14,191,-4821,22,-340,-161,126
379,-3806,-30,213,-4825,22,-359,-163,145
380,-3782,-15,180,-4811,22,-364,-150,126
381,-3770,8,222,-4830,22,-335,-154,140
382,-3789,-6,188,-4838,22,-353,-159,129
383,-3784,-8,181,-4826,22,-359,-146,139
384,-3794,-21,174,-4812,22,-335,-149,143
385,-3783,-5,205,-4828,22,-350,-149,135
386,-3776,-29,194,-4823,22,-350,-145,141
387,-3795,-7,172,-4804,22,-356,-156,147
388,-3816,-4,175,-4815,22,-333,-167,133
389,-3782,6,179,-4839,22,-337,-146,137
390,-3778,3,171,-4840,22,-345,-158,126
391,-3797,7,189,-4839,22,-341,-169,135
392,-3776,-17,186,-4821,22,-318,-148,127
393,-3783,-3,180,-4830,22,-345,-144,121
394,-3797,-10,174,-4824,22,-345,-149,141
395,-3796,-1,207,-4819,22,-347,-149,122
396,-3775,-20,178,-4824,22,-341,-146,148
397,-3778,2,180,-4813,22,-339,-154,151
398,-3799,2,173,-4820,22,-355,-159,138
399,-3791,-8,229,-4817,22,-344,-162,150
400,-3795,1,185,-4816,22,-353,-167,133
401,-3750,12,150,-4813,22,-341,-163,141
402,-3778,-6,178,-4814,22,-349,-138,130
403,-3769,-3,215,-4822,22,-340,-160,121
404,-3774,-19,184,-4814,22,-351,-144,130
405,-3779,2,187,-4819,22,-324,-160,131
406,-3801,7,164,-4827,22,-351,-139,155
407,-3805,-17,156,-4822,22,-331,-130,128
408,-3789,5,191,-4826,22,-344,-140,128
409,-3791,-18,160,-4820,22,-350,-133,141
410,-3794,-10,176,-4818,22,-349,-165,128
411,-3794,4,173,-4820,22,-340,-166,138
412,-3790,-12,179,-4817,22,-344,-139,134
413,-3793,-7,179,-4817,22,-352,-146,150
414,-3800,6,192,-4814,22,-350,-154,156
415,-3798,-15,167,-4834,22,-338,-146,137
416,-3783,-8,162,-4816,22,-352,-167,134
417,-3790,-1,186,-4816,22,-341,-145,133
418,-3786,-7,176,-4817,22,-333,-149,142
419,-3792,1,169,-4824,22,-346,-169,129
420,-3781,-9,197,-4828,22,-361,-133,143
421,-3799,-1,171,-4826,22,-335,-156,146
422,-3784,8,222,-4825,22,-345,-139,147
423,-3794,10,185,-4817,22,-352,-145,131
424,-3789,9,194,-4819,22,-349,-178,135
425,-3789,1,187,-4821,22,-340,-172,137
426,-3808,-12,159,-4818,22,-348,-155,131
427,-3800,-14,181,-4822,22,-350,-162,130
428,-3776,-2,201,-4812,22,-344,-163,154
429,-3777,0,188,-4822,22,-356,-157,134
430,-3784,-11,158,-4819,22,-337,-153,147
431,-3780,-11,183,-4821,22,-363,-156,132
432,-3796,-7,199,-4820,22,-344,-137,134
433,-3790,-4,189,-4805,22,-356,-163,116
434,-3767,2,181,-4832,22,-351,-148,130
435,-3786,-12,169,-4806,22,-352,-168,121
436,-3783,3,200,-4826,22,-337,-145,136
437,-3786,18,172,-4819,22,-343,-166,136
438,-3758,-30,174,-4827,22,-349,-152,148
439,-3787,12,182,-4811,22,-352,-146,143
440,-3794,-6,179,-4817,22,-346,-167,145
441,-3796,0,204,-4817,22,-351,-140,138
442,-3793,-22,203,-4816,22,-341,-160,127
443,-3776,-2,165,-4821,22,-357,-148,130
444,-3797,7,197,-4810,22,-354,-155,157
445,-3795,-11,182,-4810,22,-376,-149,151
446,-3780,12,210,-4817,22,-349,-151,137
447,-3804,-3,159,-4823,22,-335,-154,146
448,-3789,14,191,-4817,22,-343,-162,138
449,-3795,-1,198,-4816,22,-343,-136,145
450,-3779,16,183,-4818,22,-354,-169,148
451,-3784,-1,180,-4820,22,-366,-172,122
452,-3776,-10,174,-4808,22,-336,-160,141
453,-3787,16,169,-4804,22,-341,-166,147
454,-3781,18,196,-4805,22,-360,-156,126
455,-3787,-9,179,-4816,22,-358,-146,130
456,-3784,-3,185,-4811,22,-350,-150,140
457,-3779,-6,173,-4813,22,-330,-143,149
458,-3803,-8,156,-4809,22,-345,-150,151
459,-3788,2,184,-4812,22,-350,-148,136
460,-3813,-17,176,-4830,22,-353,-148,131
461,-3793,3,166,-4815,22,-345,-161,132
462,-3773,12,156,-4807,22,-337,-154,138
463,-3792,-11,227,-4814,22,-344,-147,135
464,-3787,-13,184,-4820,22,-355,-145,123
465,-3789,-16,190,-4810,22,-351,-175,142
466,-3780,-13,207,-4807,22,-347,-145,133
467,-3785,-9,196,-4800,22,-345,-150,140
468,-3786,19,211,-4816,22,-328,-157,149
469,-3783,-3,161,-4812,22,-350,-147,139
470,-3791,-2,206,-4824,22,-343,-160,131
471,-3781,13,192,-4819,22,-341,-155,138
472,-3797,5,209,-4822,22,-348,-157,144
473,-3790,4,195,-4805,22,-346,-160,151
474,-3783,6,182,-4812,22,-349,-151,146
475,-3780,-20,174,-4816,22,-354,-149,148
476,-3785,21,175,-4814,22,-347,-156,131
477,-3784,-38,186,-4807,22,-331,-172,128
478,-3774,1,176,-4826,22,-357,-145,146
479,-3776,0,185,-4807,22,-346,-161,142
480,-3772,5,172,-4806,22,-355,-153,157
481,-3789,2,180,-4815,22,-358,-161,149
482,-3777,-8,170,-4817,22,-349,-150,147
483,-3786,11,221,-4821,22,-365,-144,139
484,-3779,-21,177,-4813,22,-331,-155,145
485,-3791,-9,169,-4814,22,-356,-139,139
486,-3785,0,168,-4798,22,-344,-148,133
487,-3808,-18,185,-4820,22,-341,-154,132
488,-3781,5,182,-4822,22,-354,-157,126
489,-3799,3,171,-4817,22,-327,-167,137
490,-3790,4,184,-4802,22,-360,-177,140
491,-3765,-2,200,-4814,22,-361,-169,147
492,-3811,3,199,-4819,22,-360,-146,153
493,-3779,-15,193,-4817,22,-353,-154,138
494,-3784,11,174,-4813,22,-343,-129,141
495,-3770,9,170,-4815,22,-343,-159,154
496,-3767,-6,191,-4797,22,-343,-154,138
497,-3788,13,190,-4809,22,-341,-151,135
498,-3785,-15,214,-4807,22,-348,-160,144
499,-3790,4,154,-4821,22,-321,-153,156
500,-3798,-21,181,-4809,22,-358,-145,147
501,-3774,-19,218,-4814,22,-342,-169,132
502,-3775,-9,198,-4824,22,-337,-162,135
503,-3788,16,185,-4810,22,-346,-149,125
504,-3780,2,201,-4815,22,-352,-157,135
505,-3813,-10,182,-4822,22,-354,-157,150
506,-3774,-10,167,-4807,22,-340,-136,148
507,-3783,14,182,-4816,22,-339,-165,137
508,-3771,6,175,-4803,22,-347,-141,149
509,-3776,-19,186,-4806,22,-352,-148,135
510,-3785,3,186,-4810,22,-342,-136,136
511,-3780,5,145,-4818,22,-344,-152,140
512,-3774,6,170,-4823,22,-338,-137,149
513,-3798,-20,197,-4829,22,-357,-154,146
514,-3773,-2,160,-4815,22,-358,-139,142
515,-3794,-5,190,-4806,22,-360,-159,137
516,-3793,-8,213,-4804,22,-351,-163,128
517,-3789,3,211,-4801,22,-345,-143,146
518,-3798,-1,151,-4806,22,-340,-168,142
519,-3783,-5,136,-4801,22,-352,-156,125
520,-3790,-12,177,-4813,22,-353,-151,126
521,-3778,-11,213,-4807,22,-346,-138,131
522,-3786,10,192,-4818,22,-348,-148,123
523,-3786,10,204,-4817,22,-343,-161,122
524,-3786,-2,194,-4804,22,-346,-144,157
525,-3798,4,161,-4814,22,-337,-144,149
526,-3771,-4,186,-4809,22,-344,-166,157
527,-3789,3,217,-4801,22,-325,-149,141
528,-3780,-15,168,-4813,22,-336,-143,144
529,-3800,-23,196,-4830,22,-351,-160,143
530,-3791,-5,192,-4808,22,-336,-159,138
531,-3785,-8,172,-4792,22,-340,-148,140
532,-3795,-25,189,-4811,22,-337,-181,146
533,-3793,-30,182,-4817,22,-348,-156,131
534,-3769,6,201,-4812,22,-339,-164,140
535,-3782,-4,199,-4794,22,-368,-145,131
536,-3798,0,189,-4813,22,-341,-172,135
537,-3789,-1,198,-4824,22,-342,-147,142
538,-3787,-7,205,-4813,22,-349,-157,131
539,-3783,-3,192,-4834,22,-352,-153,145
540,-3795,-11,195,-4805,22,-333,-154,130
541,-3792,6,175,-4812,22,-357,-153,144
542,-3782,-32,165,-4808,22,-361,-152,153
543,-3778,-6,156,-4811,22,-341,-153,135
544,-3773,-8,219,-4811,22,-332,-150,127
545,-3792,-16,203,-4805,22,-341,-152,149
546,-3788,-6,182,-4795,22,-340,-146,133
547,-3779,6,217,-4811,22,-366,-147,140
548,-3786,-15,160,-4803,22,-337,-138,147
549,-3798,-7,195,-4810,22,-343,-172,159
550,-3786,-12,186,-4802,22,-341,-161,137
551,-3791,3,188,-4799,22,-342,-141,136
552,-3794,-10,205,-4812,22,-349,-140,148
553,-3774,-5,214,-4805,22,-346,-163,146
554,-3789,0,196,-4792,22,-358,-152,169
555,-3784,6,178,-4804,22,-338,-143,141
556,-3780,7,207,-4810,22,-339,-137,131
557,-3791,2,160,-4807,22,-345,-158,157
558,-3801,14,194,-4796,22,-341,-172,148
559,-3788,-16,174,-4801,22,-338,-164,127
560,-3778,-1,171,-4801,22,-365,-172,124
561,-3781,-20,224,-4793,22,-351,-155,151
562,-3799,-14,179,-4816,22,-368,-134,129
563,-3799,-26,223,-4802,22,-335,-156,142
564,-3789,6,214,-4807,22,-337,-173,140
565,-3783,-16,173,-4828,22,-346,-168,136
566,-3789,-5,172,-4798,22,-348,-158,142
567,-3798,6,173,-4813,22,-349,-152,139
568,-3782,-12,192,-4804,22,-344,-148,140
569,-3796,6,177,-4805,22,-339,-159,126
570,-3774,-13,190,-4812,22,-352,-157,132
571,-3781,11,188,-4821,22,-357,-152,136
572,-3783,-24,187,-4816,22,-348,-152,142
573,-3784,-16,184,-4807,22,-350,-152,132
574,-3806,-10,203,-4818,22,-350,-156,143
575,-3791,16,181,-4808,22,-342,-143,131
576,-3798,3,214,-4800,22,-347,-183,143
577,-3775,21,198,-4794,22,-354,-152,151
578,-3785,-1,186,-4815,22,-340,-158,136
579,-3777,-3,167,-4816,22,-339,-150,138
580,-3768,-2,202,-4808,22,-358,-140,121
581,-3776,-21,189,-4812,22,-353,-152,144
582,-3786,3,181,-4807,22,-339,-163,134
583,-3781,-1,181,-4799,22,-336,-128,133
584,-3799,20,164,-4804,22,-345,-154,141
585,-3780,-7,179,-4815,22,-355,-153,150
586,-3799,-13,194,-4799,22,-329,-149,135
587,-3776,-10,192,-4812,22,-324,-168,130
588,-3780,-7,180,-4816,22,-336,-157,127
589,-3782,-3,178,-4804,22,-338,-157,134
590,-3773,-2,193,-4803,22,-333,-152,158
591,-3798,-11,186,-4801,22,-334,-181,136
592,-3799,4,166,-4814,22,-337,-148,155
593,-3774,7,186,-4806,22,-350,-144,144
594,-3793,-2,176,-4802,22,-344,-154,143
595,-3778,-5,155,-4811,22,-342,-129,135
596,-3770,-3,178,-4804,22,-370,-169,134
597,-3784,-20,195,-4801,22,-346,-145,134
598,-3797,-20,178,-4805,22,-323,-148,128
599,-3797,3,199,-4795,22,-337,-163,139
600,-3789,6,179,-4806,22,-334,-133,147
601,-3798,0,195,-4800,22,-329,-129,150
602,-3802,6,184,-4810,22,-368,-165,150
603,-3785,3,171,-4805,22,-343,-165,147
604,-3789,3,195,-4802,22,-356,-151,126
605,-3780,-6,198,-4807,22,-351,-162,118
606,-3790,13,204,-4806,22,-333,-154,152
607,-3783,5,162,-4804,22,-357,-149,128
608,-3788,-3,180,-4810,22,-347,-159,137
609,-3768,0,186,-4812,22,-345,-147,143
610,-3793,-8,199,-4801,22,-342,-153,131
611,-3780,-9,181,-4814,22,-352,-140,142
612,-3796,-3,180,-4809,22,-348,-170,144
613,-3804,-2,217,-4787,22,-340,-172,141
614,-3777,-6,172,-4804,22,-342,-159,142
615,-3791,-13,183,-4807,22,-355,-137,138
616,-3788,1,185,-4809,22,-347,-158,137
617,-3786,4,197,-4814,22,-349,-163,133
618,-3787,-12,212,-4823,22,-333,-165,124
619,-3807,3,182,-4810,22,-346,-144,129
620,-3783,-2,198,-4808,22,-339,-150,136
621,-3807,-4,173,-4806,22,-343,-135,142
622,-3803,-13,194,-4799,22,-353,-140,143
623,-3798,-6,167,-4800,22,-352,-141,143
624,-3784,-14,190,-4800,22,-346,-162,139
625,-3800,-7,189,-4788,22,-345,-155,134
626,-3769,-8,197,-4806,22,-347,-177,139
627,-3792,-9,163,-4798,22,-361,-159,125
628,-3805,-22,200,-4809,22,-344,-158,155
629,-3804,5,191,-4809,22,-330,-148,123
630,-3780,-4,180,-4793,22,-328,-171,148
631,-3778,-9,200,-4815,22,-345,-171,136
632,-3776,-21,195,-4794,22,-355,-163,119
633,-3785,-14,183,-4807,22,-342,-160,140
634,-3786,11,180,-4803,22,-351,-175,130
635,-3781,-22,194,-4800,22,-340,-159,118
636,-3787,1,155,-4791,22,-344,-155,150
637,-3772,-6,159,-4787,22,-336,-158,144
638,-3791,-19,193,-4810,22,-337,-142,140
639,-3791,33,168,-4799,22,-327,-155,136
640,-3788,5,194,-4797,22,-345,-164,158
641,-3781,-14,174,-4799,22,-350,-133,143
642,-3783,-19,182,-4814,22,-330,-138,138
643,-3772,-18,160,-4803,22,-358,-160,136
644,-3785,3,168,-4805,22,-339,-139,130
645,-3781,9,187,-4806,22,-361,-156,140
646,-3791,8,195,-4805,22,-340,-162,156
647,-3808,-5,177,-4801,22,-335,-156,148
648,-3792,-18,173,-4802,22,-346,-157,130
649,-3778,4,201,-4808,22,-341,-159,129
650,-3805,7,194,-4805,22,-359,-156,135
651,-3784,0,181,-4807,22,-361,-148,138
652,-3784,-15,219,-4792,22,-340,-147,131
653,-3795,-9,161,-4799,22,-354,-150,127
654,-3804,9,212,-4795,22,-347,-173,128
655,-3800,3,176,-4809,22,-339,-149,123
656,-3801,-4,197,-4809,22,-344,-154,139
657,-3804,9,177,-4801,22,-324,-154,139
658,-3789,6,190,-4795,22,-355,-173,132
659,-3777,4,181,-4799,22,-327,-152,131
660,-3801,9,188,-4787,22,-327,-158,150
661,-3797,-4,195,-4802,22,-344,-162,138
662,-3778,3,171,-4789,22,-342,-158,136
663,-3791,-10,182,-4805,22,-345,-152,153
664,-3821,-3,161,-4810,22,-344,-149,145
665,-3793,-20,202,-4800,22,-343,-159,126
666,-3794,-6,163,-4815,22,-354,-147,135
667,-3773,-3,177,-4794,22,-345,-139,133
668,-3794,-14,173,-4809,22,-349,-161,138
669,-3791,6,190,-4798,22,-343,-151,140
670,-3782,18,172,-4801,22,-339,-159,146
671,-3796,-22,178,-4793,22,-352,-168,143
672,-3804,-14,178,-4803,22,-345,-142,132
673,-3795,17,151,-4795,22,-340,-162,138
674,-3796,-17,167,-4801,22,-362,-150,151
675,-3783,-16,200,-4798,22,-351,-150,147
676,-3785,2,145,-4792,22,-354,-147,131
677,-3802,3,168,-4802,22,-344,-156,119
678,-3791,1,188,-4791,22,-343,-151,141
679,-3790,23,192,-4808,22,-365,-160,134
680,-3808,-23,162,-4815,22,-362,-147,141
681,-3786,-12,172,-4815,22,-359,-147,145
682,-3801,10,168,-4799,22,-354,-142,137
683,-3783,4,191,-4798,22,-341,-160,146
684,-3807,-3,190,-4792,22,-354,-165,140
685,-3787,-19,186,-4813,22,-360,-156,148
686,-3800,-15,161,-4809,22,-337,-155,139
687,-3790,18,176,-4805,22,-341,-155,148
688,-3774,-30,180,-4808,22,-332,-150,138
689,-3800,13,182,-4810,22,-352,-161,133
690,-3774,11,189,-4804,22,-350,-135,142
691,-3797,-20,179,-4806,22,-349,-140,141
692,-3787,6,185,-4798,22,-327,-148,140
693,-3791,2,168,-4802,22,-344,-162,145
694,-3789,0,188,-4801,22,-359,-146,152
695,-3791,-20,167,-4794,22,-342,-163,150
696,-3814,3,176,-4805,22,-348,-161,147
697,-3807,4,170,-4819,22,-343,-160,134
698,-3798,-26,183,-4802,22,-343,-165,135
699,-3791,5,183,-4784,22,-347,-172,144
700,-3800,-8,173,-4796,22,-355,-135,141
701,-3784,-9,188,-4797,22,-341,-144,133
702,-3770,13,176,-4799,22,-344,-155,143
703,-3804,-9,186,-4804,22,-348,-154,134
704,-3793,-11,190,-4808,22,-355,-147,131
705,-3791,-5,197,-4789,22,-344,-149,138
706,-3792,-21,160,-4782,22,-349,-133,126
707,-3807,-9,168,-4813,22,-348,-151,136
708,-3795,-5,177,-4805,22,-341,-148,129
709,-3784,1,178,-4791,22,-335,-142,139
710,-3798,5,172,-4790,22,-356,-138,146
711,-3795,-14,186,-4797,22,-344,-154,141
712,-3777,4,186,-4798,22,-335,-155,138
713,-3777,-1,198,-4811,22,-362,-159,136
714,-3786,-13,195,-4804,22,-329,-164,133
715,-3801,-5,181,-4807,22,-335,-149,147
716,-3797,12,192,-4805,22,-333,-155,135
717,-3808,-10,184,-4783,22,-335,-153,138
718,-3808,14,143,-4794,22,-355,-148,147
719,-3797,-2,185,-4788,22,-364,-150,128
720,-3775,-13,182,-4810,22,-343,-135,141
721,-3796,5,177,-4791,22,-332,-166,149
722,-3775,-7,179,-4807,22,-354,-170,123
723,-3787,-7,179,-4801,22,-360,-158,154
724,-3792,-31,193,-4800,22,-358,-153,119
725,-3780,0,179,-4786,22,-371,-149,120
726,-3808,4,184,-4797,22,-343,-150,125
727,-3803,-11,225,-4806,22,-353,-136,138
728,-3791,-7,196,-4811,22,-359,-165,140
729,-3775,-9,191,-4801,22,-336,-159,140
730,-3779,6,189,-4785,22,-362,-158,133
731,-3796,-12,197,-4790,22,-344,-150,150
732,-3789,-4,157,-4802,22,-354,-155,154
733,-3793,10,208,-4814,22,-362,-162,153
734,-3774,-24,194,-4791,22,-335,-150,127
735,-3787,8,174,-4814,22,-350,-153,140
736,-3803,-10,210,-4796,22,-350,-161,153
737,-3778,-2,141,-4784,22,-348,-158,148
738,-3805,-9,187,-4805,22,-330,-155,153
739,-3791,17,224,-4804,22,-349,-156,157
740,-3786,15,164,-4803,22,-337,-159,124
741,-3787,5,165,-4796,22,-337,-163,136
742,-3778,9,203,-4796,22,-350,-149,146
743,-3778,0,180,-4808,22,-352,-157,149
744,-3795,-2,198,-4796,22,-360,-156,130
745,-3790,11,177,-4788,22,-350,-156,144
746,-3800,5,186,-4806,22,-333,-134,138
747,-3791,3,200,-4797,22,-344,-151,155
748,-3784,-14,184,-4800,22,-332,-171,138
749,-3790,14,201,-4780,22,-357,-161,137
750,-3810,-4,192,-4803,22,-347,-162,137
751,-3784,-1,201,-4798,22,-350,-148,128
752,-3792,16,197,-4814,22,-351,-152,141
753,-3779,9,186,-4805,22,-339,-149,112
754,-3771,-4,182,-4796,22,-350,-159,125
755,-3782,-15,183,-4792,22,-343,-165,140
756,-3799,20,188,-4788,22,-350,-136,145
757,-3802,-11,187,-4800,22,-352,-143,142
758,-3793,14,214,-4800,22,-340,-156,127
759,-3790,-10,159,-4794,22,-343,-153,139
760,-3778,-6,185,-4800,22,-341,-168,136
761,-3792,11,204,-4791,22,-344,-152,133
762,-3780,7,183,-4789,22,-340,-145,135
763,-3792,-4,208,-4805,22,-339,-146,144
764,-3784,7,192,-4797,22,-336,-159,137
765,-3796,2,183,-4789,22,-333,-133,131
766,-3786,10,175,-4794,22,-347,-152,145
767,-3787,-15,180,-4806,22,-346,-178,125
768,-3785,0,190,-4795,22,-347,-155,143
769,-3789,-8,166,-4822,22,-349,-160,141
770,-3781,6,194,-4814,22,-337,-149,133
771,-3794,-8,150,-4794,22,-342,-142,132
772,-3789,2,198,-4793,22,-348,-149,116
773,-3767,-6,203,-4808,22,-356,-146,148
774,-3789,6,194,-4782,22,-357,-158,132
775,-3811,2,214,-4795,22,-348,-149,133
776,-3778,-11,192,-4804,22,-349,-156,142
777,-3806,-18,172,-4807,22,-357,-155,141
778,-3795,-7,156,-4784,22,-337,-163,133
779,-3791,-38,178,-4806,22,-337,-145,151
780,-3789,-16,173,-4798,22,-356,-154,138
781,-3783,-10,186,-4791,22,-349,-169,152
782,-3783,-12,183,-4793,22,-345,-136,135
783,-3796,-24,200,-4796,22,-334,-144,131
784,-3785,-7,197,-4798,22,-344,-153,143
785,-3787,-2,207,-4796,22,-358,-157,156
786,-3780,-21,219,-4795,22,-347,-150,157
787,-3777,-11,172,-4799,22,-348,-145,143
788,-3784,12,191,-4787,22,-359,-138,156
789,-3802,-4,167,-4797,22,-355,-150,135
790,-3789,0,178,-4794,22,-349,-162,124
791,-3785,-5,170,-4794,22,-337,-163,142
792,-3792,-5,170,-4786,22,-343,-162,140
793,-3782,16,193,-4802,22,-353,-161,136
794,-3788,7,167,-4797,22,-338,-155,130
795,-3790,7,169,-4801,22,-347,-166,140
796,-3762,3,198,-4793,22,-346,-155,138
797,-3777,17,210,-4798,22,-328,-147,152
798,-3794,-1,160,-4810,22,-368,-146,144
799,-3786,15,196,-4798,22,-346,-146,132
800,-3806,-9,184,-4798,22,-361,-152,136
801,-3804,-15,194,-4814,22,-328,-153,141
802,-3798,-13,195,-4806,22,-346,-159,131
803,-3820,8,198,-4804,22,-336,-143,134
804,-3774,14,167,-4796,22,-361,-159,133
805,-3778,-20,189,-4790,22,-355,-137,136
806,-3807,-6,202,-4794,22,-357,-152,137
807,-3778,19,187,-4799,22,-339,-158,147
808,-3796,-12,200,-4790,22,-345,-161,127
809,-3778,-21,191,-4806,22,-354,-139,150
810,-3793,5,163,-4809,22,-364,-157,145
811,-3787,-22,202,-4798,22,-346,-150,141
812,-3774,-6,201,-4796,22,-348,-179,143
813,-3787,-8,217,-4789,22,-345,-166,147
814,-3802,-2,173,-4802,22,-358,-179,129
815,-3789,11,217,-4796,22,-356,-151,150
816,-3794,3,230,-4784,22,-333,-132,130
817,-3787,-9,180,-4817,22,-360,-150,138
818,-3791,4,174,-4798,22,-322,-156,135
819,-3795,-8,195,-4795,22,-342,-164,141
820,-3794,-7,179,-4791,22,-326,-149,143
821,-3781,-7,152,-4791,22,-361,-164,147
822,-3761,0,206,-4793,22,-347,-177,125
823,-3773,-7,168,-4797,22,-354,-139,150
824,-3783,-20,169,-4799,22,-350,-158,144
825,-3800,-15,164,-4796,22,-345,-152,152
826,-3807,1,184,-4801,22,-338,-147,132
827,-3791,4,189,-4801,22,-356,-141,133
828,-3788,10,173,-4805,22,-344,-163,158
829,-3800,-11,192,-4802,22,-349,-145,141
830,-3786,10,174,-4806,22,-349,-152,145
831,-3786,0,186,-4797,22,-343,-170,126
832,-3804,-5,209,-4796,22,-364,-144,128
833,-3777,14,206,-4793,22,-356,-145,134
834,-3787,-25,203,-4809,22,-346,-150,156
835,-3794,27,200,-4788,22,-347,-146,143
836,-3783,-4,179,-4799,22,-355,-144,158
837,-3790,13,178,-4785,22,-354,-158,152
838,-3792,-7,148,-4806,22,-334,-140,132
839,-3795,-10,177,-4793,22,-353,-131,148
840,-3799,-8,191,-4785,22,-361,-147,140
841,-3794,8,192,-4797,22,-337,-155,145
842,-3787,-8,175,-4793,22,-344,-150,128
843,-3799,-3,154,-4797,22,-347,-139,137
844,-3765,7,195,-4785,22,-352,-144,142
845,-3795,-1,199,-4788,22,-339,-150,139
846,-3765,-13,175,-4801,22,-346,-155,141
847,-3794,5,203,-4788,22,-348,-144,156
848,-3791,-4,182,-4814,22,-335,-182,137
849,-3786,-8,197,-4802,22,-345,-161,128
850,-3785,-22,206,-4787,22,-325,-143,148
851,-3784,-19,177,-4784,22,-347,-133,153
852,-3782,12,199,-4799,22,-339,-145,141
853,-3796,-21,184,-4802,22,-368,-153,136
854,-3768,-16,187,-4804,22,-337,-149,150
855,-3789,6,194,-4793,22,-352,-166,140
856,-3797,5,195,-4802,22,-339,-145,139
857,-3782,8,181,-4790,22,-341,-146,126
858,-3800,-13,181,-4793,22,-356,-154,147
859,-3793,-15,218,-4798,22,-341,-153,136
860,-3773,-3,173,-4797,22,-330,-151,123
861,-3780,-12,187,-4804,22,-348,-155,137
862,-3782,-3,185,-4799,22,-332,-165,145
863,-3806,14,182,-4811,22,-350,-146,133
864,-3778,-14,188,-4812,22,-358,-145,131
865,-3795,13,174,-4801,22,-348,-157,141
866,-3803,2,174,-4801,22,-337,-151,126
867,-3778,-1,191,-4794,22,-359,-150,125
868,-3794,-3,221,-4818,22,-354,-167,131
869,-3786,3,175,-4791,22,-360,-150,160
870,-3793,-20,203,-4784,22,-341,-143,133
871,-3783,1,187,-4779,22,-343,-169,148
872,-3802,-8,193,-4796,22,-337,-146,145
873,-3787,13,200,-4790,22,-357,-141,134
874,-3785,-1,177,-4790,22,-352,-143,147
875,-3780,-21,165,-4794,22,-358,-153,137
876,-3792,7,201,-4776,22,-346,-156,128
877,-3775,0,188,-4788,22,-353,-158,133
878,-3766,-14,202,-4798,22,-340,-156,142
879,-3780,27,163,-4784,22,-354,-139,143
880,-3793,-14,174,-4797,22,-330,-176,138
881,-3801,10,184,-4791,22,-343,-152,150
882,-3788,-3,162,-4799,22,-340,-141,151
883,-3786,-1,221,-4800,22,-348,-149,141
884,-3803,5,162,-4803,22,-343,-168,158
885,-3785,4,173,-4805,22,-351,-151,126
886,-3780,-5,201,-4806,22,-348,-151,135
887,-3791,14,191,-4789,22,-342,-155,155
888,-3787,-9,207,-4795,22,-346,-120,130
889,-3773,2,173,-4811,22,-341,-158,138
890,-3800,3,187,-4795,22,-354,-158,141
891,-3778,-8,175,-4792,22,-331,-162,129
892,-3796,-5,173,-4791,22,-357,-161,148
893,-3775,21,173,-4803,22,-348,-147,133
894,-3792,-6,183,-4790,22,-347,-147,132
895,-3775,-1,180,-4789,22,-351,-151,137
896,-3796,-9,149,-4786,22,-349,-153,153
897,-3768,14,172,-4814,22,-332,-152,140
898,-3783,-18,177,-4791,22,-353,-156,144
899,-3792,-11,185,-4796,22,-333,-144,133
900,-3776,1,184,-4798,22,-367,-140,137
901,-3778,-9,189,-4803,22,-342,-146,142
902,-3798,-16,211,-4792,22,-366,-154,146
903,-3812,2,149,-4796,22,-330,-162,141
904,-3783,0,167,-4801,22,-360,-143,134
905,-3788,12,204,-4802,22,-351,-155,138
906,-3780,15,165,-4794,22,-355,-159,119
907,-3797,-10,186,-4793,22,-357,-159,135
908,-3784,11,175,-4793,22,-341,-156,145
909,-3781,10,177,-4772,22,-329,-144,137
910,-3809,-5,179,-4788,22,-364,-160,125
911,-3784,-15,187,-4789,22,-337,-167,134
912,-3801,-17,191,-4786,22,-355,-146,140
913,-3782,-21,177,-4789,22,-342,-155,128
914,-3774,-10,199,-4797,22,-354,-152,149
915,-3804,9,214,-4798,22,-369,-145,153
916,-3797,-15,197,-4788,22,-334,-152,144
917,-3795,-8,171,-4802,22,-346,-141,124
918,-3788,-8,177,-4794,22,-353,-150,145
919,-3779,-11,171,-4781,22,-350,-155,134
920,-3793,6,193,-4777,22,-348,-141,136
921,-3766,-4,193,-4791,22,-351,-142,143
922,-3792,-10,180,-4786,22,-345,-148,128
923,-3780,0,177,-4787,22,-364,-172,139
924,-3775,-17,185,-4788,22,-350,-139,135
925,-3778,-30,204,-4783,22,-359,-154,148
926,-3802,-3,184,-4794,22,-347,-150,112
927,-3793,-15,204,-4792,22,-345,-144,147
928,-3785,-14,202,-4791,22,-349,-132,142
929,-3789,1,193,-4789,22,-354,-131,137
930,-3791,-7,207,-4804,22,-341,-152,141
931,-3799,-9,166,-4785,22,-346,-149,123
932,-3794,-8,196,-4796,22,-357,-157,118
933,-3764,-5,180,-4793,22,-360,-152,139
934,-3777,-1,174,-4806,22,-353,-160,135
935,-3787,4,217,-4787,22,-346,-155,130
936,-3788,-5,187,-4794,22,-349,-168,128
937,-3786,-3,166,-4803,22,-346,-135,134
938,-3792,-1,182,-4787,22,-353,-160,136
939,-3789,-13,193,-4792,22,-345,-147,116
940,-3778,10,161,-4790,22,-357,-140,140
941,-3765,-20,189,-4795,22,-360,-151,135
942,-3775,-3,214,-4789,22,-338,-161,123
943,-3774,6,179,-4792,22,-349,-164,146
944,-3796,4,180,-4788,22,-355,-148,138
945,-3764,-12,172,-4800,22,-343,-139,128
946,-3771,-6,184,-4796,22,-351,-149,142
947,-3783,-13,158,-4796,22,-337,-157,152
948,-3775,17,170,-4795,22,-358,-152,144
949,-3783,-6,183,-4781,22,-358,-159,131
950,-3800,3,197,-4801,22,-355,-158,114
951,-3761,7,168,-4794,22,-345,-147,120
952,-3771,12,185,-4789,22,-332,-128,135
953,-3800,-11,167,-4800,22,-356,-142,138
954,-3799,-16,186,-4782,22,-338,-155,130
955,-3760,-17,186,-4782,22,-348,-141,146
956,-3799,-12,198,-4794,22,-344,-153,149
957,-3800,-21,175,-4801,22,-351,-152,136
958,-3791,-24,178,-4801,22,-329,-150,147
959,-3796,8,187,-4781,22,-367,-148,154
960,-3759,-35,208,-4792,22,-360,-152,134
961,-3791,7,185,-4791,22,-349,-145,137
962,-3780,-3,175,-4796,22,-345,-157,130
963,-3789,-6,181,-4792,22,-354,-144,142
964,-3815,-9,186,-4798,22,-340,-154,153
965,-3803,2,183,-4778,22,-352,-166,141
966,-3765,-9,197,-4785,22,-349,-151,141
967,-3785,-10,164,-4793,22,-360,-159,151
968,-3789,15,192,-4783,22,-327,-151,134
969,-3810,-3,147,-4798,22,-325,-161,138
970,-3778,-3,166,-4794,22,-353,-148,119
971,-3793,8,158,-4783,22,-354,-156,142
972,-3791,3,226,-4793,22,-343,-160,138
973,-3780,6,183,-4786,22,-345,-140,133
974,-3792,-9,166,-4787,22,-363,-156,139
975,-3792,-18,185,-4800,22,-338,-158,150
976,-3790,-7,174,-4795,22,-344,-159,150
977,-3782,12,189,-4802,22,-342,-148,138
978,-3776,-34,228,-4805,22,-354,-142,136
979,-3793,16,191,-4780,22,-350,-152,124
980,-3763,8,189,-4786,22,-347,-162,131
981,-3794,-4,166,-4786,22,-347,-149,142
982,-3768,-9,195,-4790,22,-335,-163,150
983,-3788,-7,202,-4786,22,-354,-166,152
984,-3772,4,177,-4790,22,-359,-155,135
985,-3782,0,207,-4792,22,-329,-151,138
986,-3795,10,184,-4774,22,-374,-148,131
987,-3806,19,192,-4799,22,-340,-154,138
988,-3790,-2,180,-4790,22,-361,-152,149
989,-3807,-9,189,-4790,22,-351,-162,132
990,-3788,1,196,-4801,22,-338,-139,138
991,-3786,10,177,-4792,22,-341,-157,137
992,-3789,-2,166,-4779,22,-341,-126,151
993,-3783,-18,213,-4782,22,-359,-146,148
994,-3767,-17,196,-4791,22,-356,-161,138
995,-3793,2,194,-4803,22,-344,-148,133
