,acc_X,acc_Y,acc_Z,temp,tempC,gyr_X,gyr_Y,gyr_Z
0,-3789,-3,181,-4709,23,-44,-19,17
1,-3786,-2,192,-4706,23,-44,-19,17
2,-3786,-3,185,-4705,23,-44,-19,16
3,-3791,-13,183,-4702,23,-44,-19,17
4,-3787,-5,180,-4704,23,-44,-21,17
5,-3788,-2,186,-4700,23,-43,-21,17
6,-3790,-4,195,-4701,23,-43,-20,17
7,-3787,-10,191,-4699,23,-44,-20,17
8,-3785,-6,190,-4695,23,-45,-20,18
9,-3791,-5,180,-4702,23,-44,-20,17
10,-3792,-6,180,-4699,23,-44,-19,18
11,-3793,-9,187,-4700,23,-43,-19,17
12,-3789,-4,179,-4696,23,-44,-19,17
13,-3789,1,183,-4701,23,-43,-19,16
14,-3790,-5,186,-4698,23,-45,-19,17
15,-3788,-10,194,-4699,23,-45,-20,17
16,-3781,-4,191,-4703,23,-44,-19,17
17,-3781,8,195,-4700,23,-44,-19,17
18,-3794,10,181,-4700,23,-44,-20,16
19,-3795,0,187,-4700,23,-44,-20,16
20,-3789,-5,178,-4700,23,-44,-20,16
21,-3789,-2,184,-4700,23,-44,-21,17
22,-3790,-4,183,-4697,23,-44,-21,17
23,-3796,-4,197,-4695,23,-43,-20,16
24,-3794,4,193,-4698,23,-44,-19,17
25,-3787,3,199,-4701,23,-44,-20,17
26,-3793,-4,201,-4700,23,-44,-20,17
27,-3789,2,188,-4706,23,-44,-20,17
28,-3785,-4,195,-4698,23,-44,-19,17
29,-3791,0,194,-4701,23,-44,-19,16
30,-3790,-4,183,-4703,23,-44,-19,17
31,-3794,-8,178,-4701,23,-44,-19,17
32,-3784,-13,183,-4704,23,-44,-20,17
33,-3792,-4,183,-4699,23,-43,-20,17
34,-3786,-5,193,-4696,23,-44,-20,17
35,-3779,1,185,-4698,23,-45,-20,17
36,-3786,2,182,-4700,23,-44,-19,17
37,-3780,-3,194,-4699,23,-43,-19,17
38,-3785,-7,177,-4703,23,-43,-20,17
39,-3786,-4,179,-4703,23,-44,-20,17
40,-3785,-13,195,-4706,23,-44,-20,18
41,-3784,-3,186,-4707,23,-44,-19,17
42,-3788,0,193,-4707,23,-44,-20,18
43,-3793,9,192,-4703,23,-44,-19,17
44,-3795,0,183,-4701,23,-44,-18,16
45,-3793,-4,183,-4705,23,-44,-19,17
46,-3789,-5,185,-4702,23,-44,-20,18
47,-3790,1,177,-4700,23,-43,-20,17
48,-3786,1,187,-4699,23,-43,-20,17
49,-3780,-1,190,-4698,23,-44,-19,17
50,-3785,3,205,-4701,23,-44,-20,17
51,-3794,-6,203,-4702,23,-44,-20,17
52,-3789,-7,192,-4699,23,-44,-19,17
53,-3791,-6,190,-4701,23,-44,-19,17
54,-3784,-2,188,-4699,23,-44,-19,17
55,-3782,-3,194,-4698,23,-44,-20,17
56,-3782,-5,178,-4705,23,-44,-20,17
57,-3787,-5,193,-4703,23,-43,-20,17
58,-3787,-3,191,-4701,23,-45,-19,17
59,-3791,1,191,-4694,23,-44,-19,17
60,-3789,-3,179,-4697,23,-44,-18,17
61,-3787,-4,186,-4698,23,-44,-19,18
62,-3786,-15,188,-4702,23,-44,-19,17
63,-3787,-12,202,-4699,23,-44,-19,17
64,-3789,-13,196,-4696,23,-43,-19,17
65,-3790,4,193,-4707,23,-44,-19,17
66,-3795,2,191,-4703,23,-45,-19,17
67,-3789,-4,196,-4698,23,-43,-19,17
68,-3784,-6,198,-4706,23,-44,-20,17
69,-3790,-10,194,-4702,23,-44,-19,17
70,-3794,-6,185,-4702,23,-43,-19,17
71,-3787,-2,186,-4701,23,-44,-19,17
72,-3792,3,170,-4701,23,-44,-19,17
73,-3784,-2,182,-4704,23,-44,-19,17
74,-3789,0,191,-4701,23,-44,-19,17
75,-3786,-3,189,-4699,23,-44,-19,17
76,-3795,-3,186,-4699,23,-44,-20,17
77,-3790,-4,200,-4698,23,-44,-19,17
78,-3791,-12,192,-4694,23,-44,-19,18
79,-3789,-7,184,-4697,23,-43,-20,17
80,-3786,-3,196,-4702,23,-44,-20,17
81,-3795,-3,185,-4703,23,-44,-20,16
82,-3793,-3,184,-4704,23,-44,-21,17
83,-3785,-11,189,-4703,23,-44,-20,17
84,-3784,-7,201,-4704,23,-43,-19,17
85,-3789,-2,197,-4700,23,-44,-19,17
86,-3784,0,191,-4700,23,-43,-20,17
87,-3785,-4,188,-4703,23,-44,-20,17
88,-3784,-2,188,-4699,23,-44,-20,17
89,-3792,0,184,-4698,23,-44,-20,17
90,-3784,-4,195,-4704,23,-43,-19,18
91,-3789,-2,193,-4697,23,-44,-18,17
92,-3794,-8,185,-4706,23,-45,-19,17
93,-3784,-11,194,-4702,23,-44,-19,17
94,-3784,-7,186,-4701,23,-45,-19,17
95,-3788,-7,184,-4696,23,-44,-19,17
96,-3787,-11,196,-4698,23,-44,-19,17
97,-3789,-5,197,-4703,23,-43,-19,16
98,-3786,-2,195,-4706,23,-44,-19,17
99,-3785,-5,189,-4705,23,-44,-19,17
100,-3786,-4,186,-4698,23,-43,-19,17
101,-3780,0,180,-4705,23,-43,-21,17
102,-3782,-5,189,-4703,23,-43,-19,17
103,-3786,-7,184,-4697,23,-44,-19,17
104,-3782,-11,169,-4701,23,-44,-20,17
105,-3788,-5,178,-4699,23,-43,-20,16
106,-3776,1,187,-4696,23,-44,-20,16
107,-3785,-1,180,-4703,23,-44,-20,17
108,-3787,-4,181,-4705,23,-43,-20,17
109,-3793,-1,199,-4697,23,-44,-20,16
110,-3785,-3,180,-4699,23,-43,-20,17
111,-3784,-2,194,-4703,23,-43,-20,17
112,-3782,-3,184,-4701,23,-43,-19,17
113,-3782,-8,179,-4701,23,-43,-19,18
114,-3796,-4,179,-4701,23,-44,-20,17
115,-3792,-2,184,-4697,23,-45,-19,16
116,-3786,-8,192,-4700,23,-44,-19,17
117,-3789,-8,188,-4702,23,-44,-20,17
118,-3788,-2,192,-4703,23,-43,-20,17
119,-3788,-5,193,-4703,23,-43,-19,16
120,-3787,-6,173,-4703,23,-44,-20,17
121,-3780,-4,181,-4697,23,-43,-20,16
122,-3787,-5,170,-4696,23,-43,-19,17
123,-3789,-7,176,-4696,23,-43,-19,16
124,-3792,-8,181,-4699,23,-43,-19,16
125,-3790,-1,179,-4703,23,-43,-19,17
126,-3788,-3,173,-4701,23,-44,-19,17
127,-3797,1,186,-4706,23,-44,-20,18
128,-3793,-5,196,-4696,23,-45,-20,17
129,-3789,-8,189,-4698,23,-44,-20,17
130,-3789,-7,182,-4699,23,-43,-20,17
131,-3793,-8,189,-4700,23,-43,-20,16
132,-3790,-15,187,-4702,23,-44,-20,16
133,-3788,-1,177,-4702,23,-44,-19,16
134,-3786,-3,185,-4700,23,-44,-19,17
135,-3788,6,175,-4699,23,-45,-19,17
136,-3788,-1,183,-4701,23,-43,-19,17
137,-3792,-8,179,-4700,23,-44,-19,17
138,-3784,-1,191,-4701,23,-44,-20,18
139,-3788,-3,187,-4706,23,-44,-20,17
140,-3792,-8,190,-4701,23,-43,-20,17
141,-3790,-2,182,-4700,23,-44,-19,17
142,-3790,-2,177,-4700,23,-43,-19,17
143,-3791,-2,184,-4699,23,-44,-20,17
144,-3792,-5,182,-4699,23,-43,-20,17
145,-3792,-6,178,-4699,23,-44,-20,17
146,-3786,-6,174,-4697,23,-44,-20,17
147,-3783,6,188,-4698,23,-45,-19,17
148,-3788,-1,186,-4700,23,-43,-18,17
149,-3791,-3,193,-4702,23,-43,-19,16
150,-3792,-3,191,-4699,23,-43,-20,17
151,-3796,9,192,-4698,23,-44,-20,17
152,-3783,6,198,-4695,23,-44,-19,17
153,-3788,-4,189,-4695,23,-44,-18,18
154,-3787,-6,186,-4693,23,-44,-19,17
155,-3783,-3,184,-4695,23,-44,-20,17
156,-3790,1,186,-4695,23,-44,-19,17
157,-3785,-12,189,-4694,23,-44,-20,17
158,-3790,-8,193,-4697,23,-44,-19,16
159,-3788,-9,180,-4692,23,-45,-20,17
160,-3790,-8,189,-4695,23,-45,-20,17
161,-3788,-5,179,-4696,23,-45,-19,17
162,-3799,-5,182,-4695,23,-44,-19,17
163,-3787,-10,184,-4702,23,-44,-20,16
164,-3793,-8,185,-4698,23,-44,-20,16
165,-3794,-13,172,-4703,23,-43,-20,16
166,-3793,-10,184,-4703,23,-43,-20,16
167,-3789,3,184,-4699,23,-44,-20,17
168,-3789,9,181,-4699,23,-44,-20,16
169,-3790,0,191,-4702,23,-44,-19,16
170,-3784,3,186,-4696,23,-44,-19,17
171,-3779,0,185,-4705,23,-44,-20,16
172,-3790,-2,188,-4708,23,-44,-18,17
173,-3795,-1,185,-4703,23,-44,-19,17
174,-3800,3,194,-4698,23,-43,-20,17
175,-3795,3,193,-4698,23,-45,-21,16
176,-3783,1,192,-4702,23,-45,-19,17
177,-3784,4,187,-4699,23,-44,-20,16
178,-3791,-5,191,-4704,23,-44,-20,16
179,-3787,1,187,-4708,23,-43,-20,16
180,-3792,0,184,-4703,23,-43,-19,18
181,-3789,4,199,-4701,23,-44,-18,18
182,-3792,-8,195,-4698,23,-45,-19,18
183,-3796,-6,185,-4702,23,-44,-19,16
184,-3788,0,180,-4703,23,-43,-19,17
185,-3777,-1,185,-4697,23,-44,-20,17
186,-3795,-5,190,-4702,23,-43,-20,17
187,-3792,1,187,-4698,23,-43,-20,17
188,-3794,-4,176,-4693,23,-43,-19,17
189,-3793,1,180,-4697,23,-44,-19,17
190,-3787,-6,183,-4695,23,-44,-20,17
191,-3789,2,188,-4701,23,-43,-20,17
192,-3793,-7,197,-4695,23,-44,-20,18
193,-3791,-5,191,-4696,23,-44,-20,17
194,-3789,-1,186,-4691,23,-45,-19,17
195,-3790,-2,183,-4698,23,-45,-20,17
196,-3791,-6,180,-4698,23,-45,-19,17
197,-3787,-3,182,-4697,23,-44,-19,17
198,-3787,2,193,-4698,23,-43,-20,17
199,-3787,-3,192,-4696,23,-44,-20,17
200,-3790,-7,194,-4694,23,-44,-19,17
201,-3785,-3,178,-4695,23,-43,-20,18
202,-3780,-1,189,-4694,23,-43,-20,17
203,-3789,-2,201,-4699,23,-44,-20,17
204,-3796,-6,194,-4698,23,-43,-20,17
205,-3795,0,184,-4695,23,-44,-20,17
206,-3786,4,177,-4695,23,-45,-19,17
207,-3790,-7,182,-4697,23,-45,-20,17
208,-3789,-6,191,-4697,23,-45,-19,17
209,-3785,4,186,-4702,23,-45,-19,17
210,-3789,-9,193,-4699,23,-44,-20,17
211,-3786,-6,193,-4699,23,-43,-20,17
212,-3786,-6,193,-4700,23,-44,-20,16
213,-3783,-4,190,-4697,23,-43,-20,17
214,-3784,-1,199,-4697,23,-44,-19,17
215,-3789,2,189,-4700,23,-44,-19,17
216,-3801,3,182,-4704,23,-44,-19,17
217,-3798,-2,186,-4699,23,-44,-19,17
218,-3793,-10,181,-4706,23,-44,-19,18
219,-3786,-10,181,-4700,23,-43,-19,17
220,-3787,-7,186,-4694,23,-44,-20,17
221,-3785,-3,189,-4696,23,-44,-20,17
222,-3790,-3,185,-4699,23,-43,-19,17
223,-3791,-1,184,-4701,23,-44,-19,17
224,-3789,1,181,-4702,23,-45,-19,16
225,-3783,-5,182,-4699,23,-44,-20,17
226,-3787,-10,199,-4697,23,-44,-19,17
227,-3793,-6,197,-4698,23,-44,-19,17
228,-3794,-11,201,-4696,23,-44,-19,17
229,-3791,-4,203,-4693,23,-44,-20,16
230,-3783,-13,203,-4695,23,-43,-20,16
231,-3788,-9,188,-4699,23,-44,-19,17
232,-3787,-3,189,-4695,23,-44,-20,16
233,-3790,-2,196,-4696,23,-44,-20,17
234,-3787,0,199,-4693,23,-44,-20,17
235,-3786,-3,180,-4698,23,-44,-19,17
236,-3788,-4,188,-4697,23,-44,-20,17
237,-3792,-10,185,-4695,23,-44,-19,17
238,-3791,-8,192,-4692,23,-45,-19,17
239,-3787,-7,184,-4693,23,-44,-19,17
240,-3787,-8,193,-4696,23,-44,-20,17
241,-3786,-9,194,-4688,23,-44,-19,17
242,-3788,-1,195,-4692,23,-44,-19,16
243,-3785,3,184,-4693,23,-44,-20,17
244,-3793,1,184,-4699,23,-44,-20,17
245,-3795,-7,182,-4690,23,-44,-20,17
246,-3784,-2,177,-4697,23,-43,-19,17
247,-3784,-1,182,-4695,23,-43,-21,16
248,-3790,-4,177,-4696,23,-43,-20,17
249,-3777,-4,183,-4699,23,-44,-20,17
250,-3784,-2,186,-4696,23,-44,-19,17
251,-3781,-8,188,-4697,23,-44,-20,17
252,-3782,-6,192,-4696,23,-44,-20,17
253,-3785,3,189,-4697,23,-44,-19,18
254,-3790,-9,179,-4695,23,-45,-20,18
255,-3783,0,181,-4693,23,-44,-20,17
256,-3791,-1,179,-4689,23,-44,-20,17
257,-3788,-3,182,-4694,23,-43,-20,17
258,-3799,-3,180,-4697,23,-44,-21,16
259,-3786,1,189,-4697,23,-43,-20,17
260,-3789,-7,185,-4701,23,-43,-20,17
261,-3788,0,182,-4695,23,-43,-20,17
262,-3795,-7,198,-4694,23,-44,-20,16
263,-3784,-1,201,-4692,23,-44,-20,17
264,-3787,-8,189,-4698,23,-44,-19,17
265,-3790,-8,190,-4700,23,-45,-19,17
266,-3785,-5,190,-4698,23,-44,-19,17
267,-3793,-1,196,-4696,23,-43,-20,16
268,-3787,6,196,-4695,23,-44,-21,17
269,-3793,0,195,-4700,23,-43,-20,18
270,-3791,7,202,-4695,23,-44,-21,17
271,-3791,7,199,-4693,23,-42,-20,17
272,-3787,-1,191,-4685,23,-44,-19,17
273,-3786,-8,176,-4691,23,-44,-19,18
274,-3780,-4,184,-4693,23,-44,-20,17
275,-3785,-8,185,-4693,23,-44,-20,18
276,-3794,-9,190,-4696,23,-44,-19,17
277,-3795,-11,185,-4701,23,-44,-18,17
278,-3793,-8,198,-4692,23,-44,-20,18
279,-3791,-4,200,-4700,23,-43,-20,17
280,-3789,-4,195,-4701,23,-44,-20,17
281,-3793,-5,181,-4701,23,-44,-19,17
282,-3791,-6,177,-4701,23,-44,-19,16
283,-3793,-1,186,-4698,23,-44,-20,17
284,-3791,-2,192,-4691,23,-44,-19,17
285,-3789,5,182,-4691,23,-44,-19,17
286,-3787,-1,187,-4696,23,-44,-19,16
287,-3791,-5,185,-4695,23,-43,-19,17
288,-3788,-4,189,-4695,23,-44,-20,17
289,-3782,0,190,-4706,23,-43,-20,17
290,-3787,-3,199,-4703,23,-45,-20,17
291,-3789,7,192,-4699,23,-44,-20,17
292,-3791,-1,182,-4701,23,-43,-20,16
293,-3795,-5,194,-4697,23,-43,-19,17
294,-3791,-3,183,-4696,23,-44,-20,17
295,-3787,-7,194,-4695,23,-44,-21,16
296,-3787,-9,204,-4695,23,-44,-20,17
297,-3789,-8,196,-4696,23,-44,-18,17
298,-3783,-2,187,-4695,23,-44,-19,17
299,-3784,-2,201,-4696,23,-43,-20,17
300,-3781,1,200,-4692,23,-44,-20,17
301,-3781,1,198,-4694,23,-44,-20,17
302,-3786,-1,188,-4694,23,-43,-20,18
303,-3792,4,187,-4695,23,-44,-20,17
304,-3785,-5,188,-4690,23,-44,-19,17
305,-3786,-1,190,-4688,23,-44,-19,18
306,-3789,0,200,-4696,23,-44,-19,17
307,-3790,-9,191,-4695,23,-44,-20,17
308,-3785,-12,189,-4697,23,-43,-19,17
309,-3791,-11,187,-4697,23,-44,-20,17
310,-3789,-2,190,-4695,23,-43,-19,17
311,-3788,-1,191,-4701,23,-43,-20,17
312,-3784,1,192,-4696,23,-43,-20,16
313,-3784,5,193,-4699,23,-44,-20,17
314,-3788,1,200,-4696,23,-44,-20,16
315,-3789,-1,192,-4692,23,-43,-19,17
316,-3788,-5,187,-4691,23,-44,-20,17
317,-3789,-2,191,-4691,23,-44,-19,17
318,-3789,-4,187,-4692,23,-43,-19,17
319,-3785,-2,197,-4695,23,-43,-19,17
320,-3787,0,197,-4694,23,-44,-20,17
321,-3787,-3,184,-4695,23,-43,-20,18
322,-3792,1,195,-4689,23,-44,-19,16
323,-3793,-1,190,-4694,23,-44,-19,16
324,-3794,-2,178,-4695,23,-44,-20,16
325,-3791,1,178,-4694,23,-43,-19,17
326,-3788,-3,186,-4692,23,-44,-19,17
327,-3797,4,177,-4696,23,-44,-20,17
328,-3787,-5,181,-4694,23,-45,-19,17
329,-3790,-3,195,-4692,23,-45,-19,17
330,-3790,-2,192,-4694,23,-45,-20,17
331,-3789,-3,189,-4692,23,-43,-19,17
332,-3794,-2,185,-4691,23,-44,-19,17
333,-3789,0,181,-4695,23,-43,-19,17
334,-3791,-5,183,-4697,23,-43,-19,17
335,-3791,-9,175,-4693,23,-43,-20,17
336,-3781,-1,191,-4695,23,-43,-21,16
337,-3791,1,191,-4699,23,-43,-20,17
338,-3786,-1,194,-4690,23,-44,-21,17
339,-3784,-7,192,-4690,23,-43,-21,17
340,-3783,-2,196,-4691,23,-44,-20,18
341,-3785,-5,190,-4687,23,-44,-21,17
342,-3794,-1,192,-4693,23,-45,-20,16
343,-3793,-11,194,-4693,23,-44,-19,17
344,-3790,2,196,-4693,23,-44,-20,17
345,-3791,-8,189,-4693,23,-44,-21,18
346,-3789,0,187,-4697,23,-44,-20,16
347,-3793,-4,188,-4695,23,-44,-19,17
348,-3795,2,185,-4698,23,-44,-21,17
349,-3788,3,180,-4696,23,-44,-21,17
350,-3784,-3,180,-4696,23,-43,-21,17
351,-3794,-5,189,-4691,23,-45,-20,17
352,-3794,-5,177,-4687,23,-43,-19,16
353,-3791,-5,176,-4692,23,-43,-20,16
354,-3788,-6,185,-4688,23,-44,-19,16
355,-3795,-4,185,-4695,23,-44,-19,17
356,-3783,-9,187,-4690,23,-43,-19,18
357,-3778,-7,177,-4691,23,-44,-20,18
358,-3784,-1,184,-4698,23,-44,-20,17
359,-3794,3,193,-4692,23,-44,-19,17
360,-3799,-3,185,-4691,23,-44,-19,17
361,-3794,0,192,-4693,23,-44,-19,17
362,-3786,-1,184,-4695,23,-43,-19,17
363,-3792,-4,193,-4693,23,-45,-19,17
364,-3796,-2,186,-4688,23,-44,-20,17
365,-3797,7,192,-4692,23,-45,-20,17
366,-3790,5,193,-4690,23,-44,-19,18
367,-3788,3,196,-4693,23,-44,-20,18
368,-3790,0,190,-4691,23,-44,-19,18
369,-3790,2,194,-4692,23,-43,-19,17
370,-3795,-5,184,-4689,23,-44,-19,17
371,-3789,-7,190,-4691,23,-44,-19,17
372,-3788,-8,185,-4693,23,-44,-20,17
373,-3784,-11,193,-4692,23,-44,-19,18
374,-3782,-1,197,-4689,23,-44,-20,17
375,-3792,-3,199,-4691,23,-44,-19,17
376,-3792,1,179,-4692,23,-43,-19,17
377,-3786,-3,178,-4690,23,-44,-20,17
378,-3787,-3,189,-4694,23,-44,-20,17
379,-3784,-11,190,-4689,23,-43,-19,17
380,-3796,-11,191,-4687,23,-44,-20,17
381,-3794,-3,194,-4691,23,-44,-19,17
382,-3789,-9,188,-4695,23,-43,-20,17
383,-3786,-4,182,-4695,23,-44,-20,17
384,-3791,3,170,-4690,23,-44,-20,16
385,-3789,-11,190,-4693,23,-44,-19,17
386,-3788,-1,184,-4694,23,-44,-20,17
387,-3785,-3,181,-4695,23,-45,-19,17
388,-3782,-2,179,-4688,23,-45,-19,17
389,-3781,-3,198,-4690,23,-44,-19,17
390,-3789,-4,174,-4687,23,-43,-20,18
391,-3794,2,190,-4692,23,-43,-20,16
392,-3789,1,194,-4691,23,-43,-19,17
393,-3790,-1,189,-4690,23,-43,-20,17
394,-3789,0,190,-4694,23,-44,-19,17
395,-3789,-6,197,-4688,23,-44,-18,18
396,-3790,-8,190,-4694,23,-44,-20,17
397,-3788,-7,179,-4693,23,-44,-20,17
398,-3792,-6,185,-4694,23,-45,-19,17
399,-3795,-9,183,-4693,23,-44,-19,18
400,-3785,-10,190,-4693,23,-44,-21,16
401,-3788,-8,193,-4689,23,-43,-19,16
402,-3785,-8,198,-4692,23,-44,-20,17
403,-3786,-5,188,-4693,23,-44,-20,16
404,-3783,-6,198,-4696,23,-44,-20,17
405,-3786,-4,200,-4696,23,-44,-19,17
406,-3786,-1,187,-4695,23,-44,-20,17
407,-3790,1,188,-4694,23,-43,-20,17
408,-3792,-5,188,-4692,23,-44,-20,18
409,-3785,-12,178,-4697,23,-45,-20,18
410,-3781,-8,184,-4694,23,-45,-20,18
411,-3781,-9,183,-4686,23,-44,-19,17
412,-3782,-5,174,-4689,23,-44,-20,17
413,-3785,-4,166,-4691,23,-44,-19,16
414,-3791,-9,179,-4690,23,-44,-19,17
415,-3790,-7,181,-4689,23,-43,-19,17
416,-3794,-1,177,-4692,23,-43,-18,17
417,-3798,-4,176,-4695,23,-43,-19,18
418,-3794,-6,180,-4696,23,-44,-19,17
419,-3788,1,173,-4692,23,-45,-20,16
420,-3791,-6,190,-4688,23,-44,-19,16
421,-3789,-7,188,-4695,23,-44,-20,17
422,-3786,-1,195,-4691,23,-44,-20,17
423,-3785,0,189,-4692,23,-44,-20,17
424,-3790,-2,190,-4693,23,-44,-20,17
425,-3788,-10,191,-4692,23,-44,-19,16
426,-3797,-9,190,-4693,23,-44,-19,17
427,-3798,-10,180,-4692,23,-43,-19,17
428,-3792,-10,189,-4697,23,-44,-19,17
429,-3785,-1,177,-4694,23,-44,-20,17
430,-3787,3,189,-4693,23,-43,-20,17
431,-3796,-11,186,-4690,23,-44,-19,17
432,-3794,-7,192,-4692,23,-43,-19,17
433,-3786,-8,193,-4692,23,-43,-19,17
434,-3783,-3,184,-4694,23,-43,-19,17
435,-3791,-4,185,-4697,23,-43,-20,17
436,-3792,-12,195,-4691,23,-44,-20,17
437,-3790,-12,186,-4692,23,-44,-20,16
438,-3788,-4,192,-4686,23,-44,-19,16
439,-3781,-1,199,-4694,23,-43,-20,17
440,-3782,-4,202,-4695,23,-44,-20,17
441,-3791,-3,189,-4692,23,-44,-21,17
442,-3792,-9,185,-4692,23,-44,-20,17
443,-3797,-6,191,-4698,23,-43,-20,17
444,-3795,-7,188,-4697,23,-43,-20,17
445,-3800,-9,192,-4692,23,-42,-20,17
446,-3798,-6,194,-4690,23,-44,-20,17
447,-3799,-2,191,-4690,23,-43,-20,17
448,-3786,-5,193,-4687,23,-44,-19,16
449,-3785,-7,198,-4687,23,-45,-19,17
450,-3794,-9,196,-4693,23,-44,-20,17
451,-3797,-9,178,-4693,23,-44,-20,17
452,-3796,-6,186,-4694,23,-44,-19,17
453,-3791,-10,177,-4692,23,-43,-19,17
454,-3786,-3,180,-4691,23,-43,-20,17
455,-3787,-4,184,-4688,23,-44,-19,17
456,-3789,0,198,-4694,23,-43,-20,17
457,-3792,-4,201,-4691,23,-44,-20,17
458,-3789,0,194,-4691,23,-44,-19,17
459,-3795,-3,197,-4693,23,-44,-20,17
460,-3786,-2,191,-4699,23,-44,-19,17
461,-3788,-2,195,-4695,23,-44,-19,16
462,-3789,-7,186,-4690,23,-44,-19,17
463,-3791,-7,178,-4691,23,-44,-18,17
464,-3793,-8,183,-4689,23,-44,-19,17
465,-3796,-9,200,-4695,23,-44,-19,17
466,-3793,-9,190,-4687,23,-44,-19,16
467,-3779,-5,186,-4690,23,-44,-19,17
468,-3786,-2,193,-4695,23,-44,-19,18
469,-3786,0,182,-4693,23,-45,-19,18
470,-3789,-1,188,-4691,23,-44,-19,17
471,-3797,-8,193,-4694,23,-43,-19,18
472,-3790,-9,204,-4689,23,-44,-20,18
473,-3789,0,182,-4696,23,-44,-19,16
474,-3791,-6,182,-4691,23,-44,-20,17
475,-3794,0,186,-4692,23,-44,-20,18
476,-3793,-4,181,-4695,23,-45,-19,17
477,-3791,1,189,-4691,23,-45,-19,18
478,-3789,5,198,-4692,23,-44,-19,17
479,-3788,-2,199,-4688,23,-44,-19,17
480,-3797,-4,187,-4690,23,-44,-19,17
481,-3789,-8,180,-4694,23,-44,-19,17
482,-3793,-4,188,-4689,23,-43,-20,16
483,-3793,-1,190,-4693,23,-43,-20,16
484,-3794,-4,184,-4693,23,-44,-19,17
485,-3786,-3,191,-4691,23,-43,-20,17
486,-3791,-11,186,-4692,23,-44,-20,17
487,-3790,-6,177,-4692,23,-44,-20,18
488,-3793,-7,188,-4695,23,-44,-19,17
489,-3785,-6,192,-4694,23,-44,-20,17
490,-3788,-7,182,-4697,23,-44,-20,17
491,-3794,-4,187,-4692,23,-43,-19,17
492,-3794,0,188,-4691,23,-44,-20,17
493,-3796,-2,187,-4692,23,-43,-21,17
494,-3795,-10,185,-4689,23,-43,-20,18
495,-3790,-8,186,-4691,23,-44,-20,17
496,-3793,-9,193,-4692,23,-44,-20,17
497,-3784,-3,177,-4693,23,-44,-20,17
498,-3791,-8,191,-4695,23,-44,-18,17
499,-3790,-9,186,-4697,23,-44,-19,17
500,-3792,-6,178,-4694,23,-44,-19,17
501,-3791,-7,181,-4688,23,-44,-19,17
502,-3787,-8,178,-4686,23,-44,-19,17
503,-3783,-2,184,-4683,23,-44,-20,17
504,-3785,-4,183,-4689,23,-44,-19,17
505,-3786,-1,182,-4695,23,-44,-18,17
506,-3786,2,187,-4693,23,-44,-19,17
507,-3786,-2,192,-4694,23,-44,-20,18
508,-3786,-4,184,-4693,23,-44,-21,17
509,-3790,-4,197,-4693,23,-44,-19,17
510,-3783,-1,197,-4693,23,-43,-20,17
511,-3787,-9,191,-4689,23,-43,-19,17
512,-3790,0,192,-4688,23,-44,-19,17
513,-3783,-2,190,-4686,23,-44,-20,17
514,-3785,-8,191,-4683,23,-44,-20,17
515,-3790,-2,194,-4689,23,-43,-20,18
516,-3787,-4,186,-4690,23,-44,-20,17
517,-3790,0,185,-4691,23,-44,-20,18
518,-3790,-5,193,-4689,23,-44,-19,18
519,-3792,-5,188,-4694,23,-44,-19,17
520,-3789,-4,174,-4696,23,-43,-18,17
521,-3785,3,178,-4695,23,-43,-20,17
522,-3794,-11,176,-4695,23,-44,-19,17
523,-3794,-7,181,-4691,23,-44,-20,17
524,-3786,-9,185,-4695,23,-44,-19,17
525,-3783,-8,182,-4693,23,-45,-20,16
526,-3790,-2,190,-4693,23,-45,-20,17
527,-3787,-6,186,-4692,23,-44,-20,17
528,-3788,0,192,-4693,23,-43,-20,17
529,-3789,-6,185,-4686,23,-44,-19,17
530,-3787,-7,183,-4683,23,-44,-19,17
531,-3794,-2,184,-4684,23,-44,-19,17
532,-3797,-7,185,-4687,23,-45,-20,18
533,-3797,-2,183,-4688,23,-45,-19,17
534,-3794,-5,186,-4694,23,-44,-20,17
535,-3781,-13,201,-4690,23,-44,-20,18
536,-3784,-8,199,-4690,23,-44,-19,17
537,-3789,-9,180,-4694,23,-44,-20,18
538,-3787,-4,177,-4693,23,-44,-19,18
539,-3800,-3,193,-4690,23,-43,-20,17
540,-3800,-3,191,-4685,23,-44,-19,17
541,-3797,-9,184,-4686,23,-43,-19,17
542,-3795,-8,196,-4686,23,-43,-20,18
543,-3791,-9,189,-4687,23,-43,-20,17
544,-3783,-3,184,-4685,23,-45,-20,16
545,-3780,-3,184,-4686,23,-44,-20,18
546,-3790,-6,188,-4684,23,-44,-20,18
547,-3789,2,202,-4682,23,-44,-19,16
548,-3787,-3,187,-4696,23,-44,-20,17
549,-3793,-8,183,-4689,23,-44,-20,17
550,-3798,-11,181,-4694,23,-43,-20,17
551,-3795,-7,182,-4692,23,-43,-20,17
552,-3794,-9,182,-4690,23,-44,-20,18
553,-3791,-2,187,-4690,23,-44,-19,17
554,-3786,-2,183,-4691,23,-45,-19,17
555,-3788,-6,190,-4687,23,-44,-19,17
556,-3788,-6,190,-4683,23,-44,-19,18
557,-3787,-3,180,-4678,23,-44,-19,18
558,-3789,-1,170,-4687,23,-45,-19,17
559,-3787,-6,175,-4687,23,-44,-20,18
560,-3789,-7,176,-4685,23,-44,-19,17
561,-3791,1,186,-4691,23,-44,-19,18
562,-3790,-8,185,-4689,23,-44,-20,18
563,-3791,-5,185,-4690,23,-43,-19,18
564,-3789,-6,193,-4691,23,-43,-19,17
565,-3793,-1,192,-4694,23,-43,-19,17
566,-3795,-4,183,-4693,23,-43,-18,17
567,-3788,4,184,-4694,23,-43,-19,17
568,-3795,-12,184,-4689,23,-44,-20,17
569,-3788,0,185,-4688,23,-44,-19,17
570,-3787,2,181,-4685,23,-44,-20,17
571,-3781,-2,193,-4688,23,-44,-18,17
572,-3790,-2,186,-4684,23,-44,-20,18
573,-3790,-3,187,-4684,23,-44,-20,18
574,-3782,-2,186,-4683,23,-45,-19,17
575,-3786,-5,185,-4687,23,-44,-19,18
576,-3786,0,182,-4692,23,-43,-20,17
577,-3785,-4,170,-4690,23,-44,-19,17
578,-3787,-11,184,-4688,23,-44,-19,17
579,-3788,-5,192,-4687,23,-44,-21,17
580,-3789,-7,188,-4686,23,-43,-20,17
581,-3795,-14,184,-4685,23,-43,-19,17
582,-3796,-4,192,-4692,23,-44,-20,17
583,-3793,-6,186,-4688,23,-43,-19,17
584,-3797,-6,184,-4692,23,-44,-19,17
585,-3788,-1,191,-4690,23,-44,-20,17
586,-3789,-3,191,-4691,23,-43,-20,17
587,-3788,-12,188,-4688,23,-43,-20,17
588,-3783,-7,184,-4683,23,-44,-21,16
589,-3785,0,187,-4684,23,-45,-20,17
590,-3798,-6,194,-4692,23,-44,-20,16
591,-3790,-11,179,-4690,23,-43,-19,17
592,-3796,-2,180,-4692,23,-44,-19,18
593,-3789,2,182,-4689,23,-45,-19,17
594,-3789,-2,186,-4685,23,-43,-18,17
595,-3792,0,181,-4682,23,-44,-18,17
596,-3786,-5,188,-4684,23,-44,-19,17
597,-3793,-10,192,-4690,23,-44,-20,17
598,-3787,-6,184,-4684,23,-44,-20,17
599,-3786,-6,187,-4684,23,-44,-20,16
600,-3785,-3,186,-4686,23,-44,-19,17
601,-3783,-5,184,-4686,23,-44,-18,17
602,-3791,-8,186,-4689,23,-44,-19,18
603,-3785,-9,193,-4685,23,-44,-19,17
604,-3794,0,191,-4685,23,-43,-19,17
605,-3791,1,187,-4686,23,-43,-19,17
606,-3783,-9,196,-4686,23,-43,-20,16
607,-3785,1,190,-4688,23,-44,-20,18
608,-3792,-4,185,-4689,23,-44,-20,17
609,-3793,-3,183,-4688,23,-45,-19,17
610,-3789,6,188,-4685,23,-44,-19,18
611,-3788,-6,184,-4687,23,-43,-19,18
612,-3794,-11,189,-4686,23,-43,-19,17
613,-3792,-6,184,-4688,23,-43,-20,16
614,-3785,-6,187,-4690,23,-43,-20,17
615,-3780,-3,187,-4687,23,-43,-19,17
616,-3779,2,186,-4690,23,-43,-19,18
617,-3780,-8,172,-4691,23,-43,-20,17
618,-3784,-6,175,-4685,23,-44,-19,17
619,-3798,0,192,-4682,23,-44,-21,17
620,-3789,-5,203,-4685,23,-44,-20,17
621,-3801,-13,181,-4687,23,-44,-21,17
622,-3793,-9,192,-4685,23,-44,-20,17
623,-3789,-10,188,-4685,23,-45,-20,17
624,-3792,0,185,-4684,23,-44,-19,16
625,-3795,-4,178,-4681,23,-45,-20,17
626,-3790,-3,181,-4691,23,-44,-19,17
627,-3791,-4,177,-4686,23,-43,-20,17
628,-3785,4,177,-4685,23,-44,-20,17
629,-3788,-4,182,-4687,23,-43,-20,17
630,-3789,0,184,-4683,23,-43,-20,17
631,-3794,-9,179,-4688,23,-45,-20,18
632,-3793,-4,180,-4690,23,-44,-20,17
633,-3788,-1,182,-4687,23,-43,-20,17
634,-3792,-1,181,-4686,23,-43,-20,17
635,-3789,2,182,-4684,23,-44,-20,17
636,-3797,-3,191,-4687,23,-44,-20,17
637,-3789,-4,189,-4692,23,-44,-20,18
638,-3789,-3,186,-4685,23,-44,-19,18
639,-3799,1,183,-4687,23,-45,-19,17
640,-3793,4,181,-4686,23,-45,-19,17
641,-3793,-10,188,-4684,23,-45,-20,16
642,-3799,-11,191,-4686,23,-44,-19,17
643,-3785,-7,186,-4688,23,-44,-20,17
644,-3788,-3,190,-4680,23,-43,-20,17
645,-3783,-2,180,-4680,23,-44,-20,17
646,-3791,3,183,-4682,23,-44,-19,17
647,-3789,1,190,-4685,23,-44,-19,18
648,-3794,-3,184,-4685,23,-44,-19,17
649,-3788,-6,188,-4685,23,-44,-18,17
650,-3784,-8,172,-4683,23,-44,-19,17
651,-3798,-1,181,-4687,23,-44,-19,17
652,-3795,-3,192,-4684,23,-45,-19,17
653,-3788,-2,189,-4685,23,-45,-19,17
654,-3795,2,186,-4690,23,-44,-20,17
655,-3789,-6,191,-4689,23,-44,-19,17
656,-3784,-5,190,-4691,23,-44,-19,18
657,-3793,-10,180,-4687,23,-44,-19,17
658,-3784,-2,185,-4677,23,-43,-20,17
659,-3788,4,178,-4681,23,-43,-19,17
660,-3785,3,191,-4683,23,-43,-19,17
661,-3795,-1,187,-4685,23,-44,-19,17
662,-3781,-3,189,-4687,23,-44,-21,17
663,-3795,-9,189,-4687,23,-43,-20,17
664,-3792,-2,188,-4686,23,-43,-20,17
665,-3791,-3,196,-4688,23,-44,-20,17
666,-3785,-4,181,-4682,23,-44,-19,17
667,-3785,-8,173,-4685,23,-44,-19,17
668,-3787,-1,185,-4684,23,-43,-20,17
669,-3794,-12,180,-4683,23,-44,-19,17
670,-3797,-3,178,-4685,23,-44,-19,17
671,-3798,-2,186,-4685,23,-44,-20,16
672,-3792,0,177,-4691,23,-44,-19,17
673,-3793,0,185,-4687,23,-44,-19,16
674,-3793,5,176,-4686,23,-44,-20,16
675,-3787,-1,193,-4683,23,-44,-20,16
676,-3794,-8,193,-4684,23,-44,-19,16
677,-3792,-7,195,-4684,23,-44,-19,17
678,-3788,-12,191,-4683,23,-44,-19,17
679,-3788,-9,192,-4695,23,-44,-20,17
680,-3789,-6,185,-4682,23,-44,-18,17
681,-3790,-4,193,-4684,23,-43,-19,17
682,-3784,-1,200,-4690,23,-44,-19,17
683,-3788,6,184,-4690,23,-44,-20,17
684,-3788,-5,190,-4688,23,-44,-21,16
685,-3792,1,186,-4690,23,-44,-19,17
686,-3782,1,184,-4689,23,-43,-20,17
687,-3786,0,181,-4691,23,-44,-20,17
688,-3792,-2,181,-4688,23,-44,-20,18
689,-3792,-4,175,-4692,23,-44,-20,17
690,-3790,-8,187,-4696,23,-44,-19,17
691,-3786,-5,192,-4690,23,-43,-19,17
692,-3786,0,203,-4684,23,-43,-20,18
693,-3786,-2,179,-4683,23,-44,-19,17
694,-3788,-5,186,-4684,23,-44,-19,17
695,-3787,-5,189,-4688,23,-44,-19,18
696,-3783,-9,190,-4684,23,-44,-20,18
697,-3789,-8,188,-4684,23,-43,-19,18
698,-3786,-5,185,-4684,23,-44,-19,18
699,-3792,-12,186,-4686,23,-43,-20,17
700,-3790,-5,185,-4690,23,-44,-19,17
701,-3784,2,185,-4685,23,-44,-20,17
702,-3794,3,197,-4686,23,-43,-20,17
703,-3788,-6,188,-4684,23,-43,-19,17
704,-3786,-8,194,-4689,23,-44,-19,17
705,-3786,0,175,-4682,23,-44,-20,16
706,-3791,-6,183,-4681,23,-44,-19,16
707,-3796,-9,174,-4679,23,-45,-20,17
708,-3793,-9,187,-4686,23,-44,-20,18
709,-3792,-5,185,-4685,23,-44,-20,17
710,-3797,-3,180,-4689,23,-44,-19,17
711,-3791,-11,178,-4689,23,-44,-20,17
712,-3789,-11,192,-4692,23,-44,-19,17
713,-3789,-5,185,-4691,23,-44,-19,18
714,-3791,-2,189,-4684,23,-43,-19,17
715,-3796,0,187,-4686,23,-44,-20,16
716,-3793,-8,196,-4691,23,-44,-20,17
717,-3791,-4,193,-4686,23,-44,-20,17
718,-3792,-1,185,-4689,23,-44,-19,17
719,-3792,2,187,-4686,23,-44,-19,18
720,-3789,0,192,-4691,23,-45,-19,17
721,-3782,1,194,-4688,23,-45,-19,18
722,-3791,0,192,-4690,23,-44,-19,16
723,-3792,-5,188,-4689,23,-44,-20,17
724,-3787,-1,173,-4686,23,-43,-20,16
725,-3792,-7,183,-4689,23,-43,-19,16
726,-3785,-6,182,-4688,23,-44,-19,17
727,-3790,-8,177,-4690,23,-44,-20,17
728,-3785,-4,190,-4690,23,-44,-19,16
729,-3783,-3,190,-4690,23,-43,-20,17
730,-3787,-2,191,-4688,23,-45,-20,17
731,-3788,9,185,-4689,23,-44,-19,16
732,-3797,1,192,-4686,23,-44,-20,17
733,-3785,2,184,-4685,23,-43,-19,17
734,-3788,-2,182,-4685,23,-44,-20,17
735,-3792,-8,182,-4686,23,-43,-20,17
736,-3788,0,175,-4687,23,-44,-19,17
737,-3786,-5,184,-4687,23,-44,-20,17
738,-3784,-3,182,-4687,23,-45,-21,18
739,-3790,-6,188,-4683,23,-45,-20,17
740,-3790,-2,196,-4685,23,-44,-20,17
741,-3785,-6,196,-4683,23,-44,-19,16
742,-3788,-5,182,-4686,23,-44,-19,16
743,-3792,-5,185,-4683,23,-44,-19,17
744,-3783,-5,180,-4687,23,-44,-19,16
745,-3790,-8,192,-4684,23,-44,-19,17
746,-3788,-10,187,-4689,23,-44,-19,17
747,-3788,-3,183,-4685,23,-45,-19,18
748,-3794,0,182,-4691,23,-44,-19,18
749,-3794,-8,183,-4687,23,-45,-19,17
750,-3787,-3,183,-4687,23,-45,-19,16
751,-3788,0,186,-4691,23,-45,-19,17
752,-3789,9,182,-4689,23,-45,-20,17
753,-3786,1,185,-4687,23,-44,-20,17
754,-3784,-6,195,-4692,23,-44,-19,17
755,-3791,-7,186,-4686,23,-44,-20,17
756,-3794,-6,187,-4682,23,-44,-20,17
757,-3799,-9,187,-4680,23,-45,-19,17
758,-3793,-8,197,-4681,23,-45,-18,17
759,-3786,-5,184,-4682,23,-44,-20,17
760,-3784,-1,182,-4686,23,-44,-19,17
761,-3787,-5,193,-4688,23,-44,-19,17
762,-3787,-2,197,-4686,23,-44,-20,16
763,-3783,8,185,-4688,23,-44,-19,17
764,-3784,0,185,-4691,23,-44,-18,16
765,-3784,-2,189,-4690,23,-44,-19,17
766,-3784,-2,186,-4682,23,-44,-19,17
767,-3792,-1,178,-4689,23,-44,-20,17
768,-3786,-2,188,-4685,23,-45,-20,17
769,-3791,-11,199,-4686,23,-44,-19,17
770,-3784,-1,189,-4689,23,-44,-19,17
771,-3787,-6,183,-4685,23,-44,-19,17
772,-3790,-6,181,-4688,23,-43,-20,17
773,-3780,-7,185,-4685,23,-44,-20,17
774,-3786,-9,190,-4683,23,-44,-20,17
775,-3791,-5,200,-4681,23,-44,-20,17
776,-3787,-3,192,-4682,23,-43,-20,17
777,-3793,-3,193,-4686,23,-44,-19,17
778,-3796,3,184,-4683,23,-44,-19,17
779,-3797,-1,194,-4688,23,-44,-20,17
780,-3790,-10,189,-4692,23,-44,-19,17
781,-3785,-9,172,-4692,23,-44,-19,17
782,-3785,-8,193,-4691,23,-43,-19,18
783,-3787,3,186,-4691,23,-43,-20,17
784,-3786,-3,181,-4685,23,-44,-20,17
785,-3786,-8,184,-4686,23,-44,-19,16
786,-3788,-5,201,-4690,23,-43,-20,17
787,-3786,-13,195,-4691,23,-44,-20,17
788,-3794,-5,194,-4687,23,-44,-20,18
789,-3794,-14,195,-4688,23,-43,-19,17
790,-3792,-1,193,-4686,23,-44,-18,18
791,-3797,-10,197,-4690,23,-43,-18,18
792,-3787,-10,197,-4689,23,-44,-19,17
793,-3788,-7,191,-4686,23,-44,-19,17
794,-3794,-11,196,-4687,23,-44,-19,17
795,-3796,-8,192,-4687,23,-44,-19,17
796,-3792,-5,184,-4685,23,-44,-20,18
797,-3785,-2,179,-4690,23,-44,-19,17
798,-3794,-4,183,-4683,23,-43,-19,17
799,-3787,2,185,-4682,23,-44,-20,17
800,-3794,-3,186,-4686,23,-44,-20,17
801,-3798,-5,184,-4686,23,-44,-19,16
802,-3793,-6,178,-4684,23,-44,-20,17
803,-3789,-4,190,-4686,23,-44,-21,17
804,-3787,1,197,-4686,23,-44,-21,16
805,-3791,-4,186,-4685,23,-44,-20,18
806,-3789,-6,194,-4688,23,-43,-20,17
807,-3791,-2,192,-4687,23,-44,-19,17
808,-3784,-8,202,-4690,23,-45,-19,17
809,-3784,-5,196,-4688,23,-44,-19,16
810,-3790,-8,186,-4685,23,-44,-19,16
811,-3785,-9,191,-4685,23,-44,-19,16
812,-3793,-7,189,-4684,23,-44,-19,16
813,-3790,-9,185,-4688,23,-44,-20,17
814,-3784,-4,183,-4683,23,-44,-19,17
815,-3787,-4,186,-4684,23,-44,-20,16
816,-3790,2,169,-4688,23,-45,-19,16
817,-3789,2,170,-4684,23,-44,-19,16
818,-3783,4,181,-4683,23,-45,-19,17
819,-3780,9,183,-4681,23,-44,-19,18
820,-3783,-1,178,-4680,23,-44,-19,18
821,-3781,-5,185,-4683,23,-45,-19,18
822,-3788,0,183,-4682,23,-44,-19,17
823,-3788,-3,186,-4687,23,-44,-19,17
824,-3787,-4,188,-4687,23,-44,-19,17
825,-3794,-7,181,-4682,23,-44,-19,17
826,-3792,1,181,-4685,23,-44,-20,16
827,-3793,3,176,-4686,23,-44,-20,16
828,-3790,-8,181,-4684,23,-44,-19,17
829,-3787,-13,183,-4685,23,-44,-20,17
830,-3790,-8,178,-4686,23,-44,-19,17
831,-3792,-9,195,-4685,23,-44,-20,17
832,-3798,-8,200,-4686,23,-45,-20,17
833,-3792,-8,196,-4684,23,-44,-19,17
834,-3788,-5,184,-4682,23,-43,-19,18
835,-3788,-3,185,-4680,23,-44,-19,18
836,-3798,-1,186,-4679,23,-43,-19,18
837,-3790,-1,186,-4684,23,-44,-20,17
838,-3786,-2,197,-4680,23,-44,-20,16
839,-3788,-5,192,-4680,23,-44,-20,18
840,-3792,-6,193,-4682,23,-45,-20,18
841,-3794,-1,194,-4677,23,-44,-21,17
842,-3787,-2,195,-4679,23,-43,-20,17
843,-3784,-3,185,-4682,23,-44,-20,17
844,-3796,-10,184,-4685,23,-43,-20,17
845,-3789,-3,194,-4683,23,-43,-20,18
846,-3777,-1,193,-4683,23,-44,-20,18
847,-3775,-7,200,-4686,23,-43,-20,17
848,-3788,0,185,-4685,23,-43,-19,17
849,-3791,6,184,-4691,23,-44,-19,16
850,-3785,2,187,-4686,23,-43,-20,17
851,-3795,-3,183,-4690,23,-45,-20,17
852,-3790,1,204,-4687,23,-46,-19,17
853,-3792,-3,186,-4694,23,-44,-20,18
854,-3797,3,176,-4683,23,-44,-20,17
855,-3792,-6,185,-4683,23,-44,-19,17
856,-3788,-4,183,-4684,23,-44,-20,17
857,-3794,1,177,-4684,23,-44,-20,17
858,-3788,-4,184,-4681,23,-44,-19,17
859,-3793,-7,186,-4678,23,-44,-20,16
860,-3794,-5,210,-4682,23,-44,-20,17
861,-3790,-6,191,-4685,23,-44,-20,17
862,-3789,-4,191,-4682,23,-44,-19,17
863,-3796,-4,198,-4678,23,-44,-19,18
864,-3796,0,200,-4679,23,-44,-20,17
865,-3793,0,191,-4688,23,-44,-19,17
866,-3793,-2,186,-4686,23,-44,-19,17
867,-3791,-1,186,-4687,23,-44,-19,18
868,-3789,-4,185,-4687,23,-44,-19,18
869,-3785,-9,171,-4686,23,-44,-20,17
870,-3783,-2,183,-4684,23,-44,-20,18
871,-3790,2,178,-4677,23,-44,-19,17
872,-3792,-3,194,-4679,23,-44,-19,17
873,-3787,-1,192,-4679,23,-44,-20,17
874,-3786,3,193,-4678,23,-44,-19,17
875,-3791,-5,186,-4680,23,-44,-19,17
876,-3790,-5,190,-4683,23,-44,-19,16
877,-3790,-5,186,-4683,23,-43,-19,16
878,-3792,-5,194,-4682,23,-43,-19,16
879,-3794,-1,190,-4681,23,-43,-19,16
880,-3798,-3,189,-4681,23,-43,-19,17
881,-3793,-4,191,-4683,23,-44,-20,17
882,-3784,2,184,-4683,23,-44,-20,17
883,-3784,3,185,-4683,23,-44,-20,16
884,-3794,-7,195,-4686,23,-44,-19,17
885,-3793,-8,193,-4681,23,-43,-20,17
886,-3788,-4,186,-4682,23,-43,-20,17
887,-3785,2,192,-4684,23,-44,-20,17
888,-3785,2,185,-4684,23,-44,-19,17
889,-3781,-7,181,-4686,23,-45,-20,17
890,-3786,4,181,-4682,23,-45,-19,17
891,-3783,-7,183,-4681,23,-45,-20,17
892,-3789,-9,177,-4686,23,-45,-21,17
893,-3792,-12,185,-4686,23,-44,-19,17
894,-3790,-15,178,-4683,23,-44,-19,18
895,-3790,-12,173,-4683,23,-44,-19,18
896,-3787,-6,180,-4682,23,-45,-19,17
897,-3783,-4,190,-4687,23,-44,-19,17
898,-3782,-5,177,-4686,23,-44,-20,17
899,-3786,-7,196,-4683,23,-43,-19,16
900,-3786,-6,189,-4679,23,-43,-19,18
901,-3789,-10,189,-4681,23,-44,-19,18
902,-3789,-6,187,-4684,23,-42,-18,17
903,-3791,-7,181,-4685,23,-44,-19,16
904,-3798,-8,196,-4684,23,-45,-19,17
905,-3796,-5,187,-4679,23,-44,-19,17
906,-3794,-4,183,-4684,23,-43,-20,17
907,-3791,1,175,-4683,23,-44,-19,17
908,-3790,-1,179,-4686,23,-44,-19,17
909,-3793,-9,195,-4685,23,-43,-20,17
910,-3788,-1,191,-4685,23,-43,-20,17
911,-3788,3,179,-4685,23,-43,-20,17
912,-3785,-4,191,-4688,23,-43,-19,17
913,-3785,-5,191,-4686,23,-44,-20,17
914,-3783,-3,182,-4683,23,-44,-19,16
915,-3787,-8,181,-4688,23,-43,-20,17
916,-3785,-3,190,-4683,23,-44,-19,17
917,-3789,2,191,-4681,23,-44,-20,17
918,-3791,-2,189,-4684,23,-43,-20,17
919,-3790,0,182,-4686,23,-44,-20,17
920,-3793,3,180,-4682,23,-44,-20,18
921,-3793,-2,183,-4685,23,-44,-19,17
922,-3797,-1,178,-4688,23,-44,-20,16
923,-3796,-4,179,-4688,23,-43,-20,18
924,-3795,-8,174,-4688,23,-44,-19,18
925,-3787,-7,195,-4681,23,-43,-19,17
926,-3793,-4,189,-4684,23,-44,-19,17
927,-3796,2,186,-4678,23,-44,-19,17
928,-3793,1,176,-4679,23,-44,-19,16
929,-3792,-7,189,-4686,23,-44,-20,17
930,-3796,-6,180,-4687,23,-45,-19,17
931,-3791,-3,184,-4685,23,-45,-19,17
932,-3792,0,187,-4686,23,-44,-19,17
933,-3793,1,180,-4682,23,-44,-21,17
934,-3795,4,186,-4676,23,-45,-20,17
935,-3792,-6,186,-4680,23,-44,-20,17
936,-3788,-4,192,-4682,23,-43,-20,17
937,-3790,-6,181,-4684,23,-44,-20,18
938,-3790,-4,189,-4682,23,-44,-20,18
939,-3785,-6,190,-4683,23,-43,-20,16
940,-3791,-7,198,-4684,23,-43,-20,17
941,-3791,-6,195,-4685,23,-44,-20,17
942,-3789,-9,195,-4677,23,-44,-20,17
943,-3786,-2,182,-4679,23,-43,-19,17
944,-3790,-5,175,-4686,23,-44,-20,17
945,-3799,7,177,-4686,23,-45,-19,17
946,-3796,8,190,-4684,23,-44,-20,18
947,-3800,8,184,-4685,23,-44,-20,17
948,-3799,3,173,-4683,23,-44,-19,17
949,-3795,4,177,-4675,23,-45,-19,17
950,-3789,-3,191,-4681,23,-44,-19,17
951,-3788,-3,188,-4677,23,-44,-19,16
952,-3780,-5,193,-4680,23,-44,-19,17
953,-3786,-3,187,-4679,23,-44,-20,17
954,-3795,-5,186,-4683,23,-43,-20,16
955,-3797,-10,193,-4678,23,-44,-20,17
956,-3795,-9,186,-4684,23,-44,-19,16
957,-3792,-2,197,-4680,23,-43,-19,17
958,-3794,-3,195,-4680,23,-43,-19,17
959,-3793,0,203,-4678,23,-44,-19,18
960,-3790,-6,192,-4678,23,-44,-19,19
961,-3788,-3,189,-4682,23,-44,-20,18
962,-3784,2,188,-4683,23,-43,-20,18
963,-3786,-4,201,-4682,23,-44,-21,18
964,-3785,5,190,-4683,23,-43,-21,18
965,-3781,-6,191,-4680,23,-44,-20,17
966,-3792,2,180,-4678,23,-44,-20,17
967,-3787,-2,189,-4682,23,-44,-19,17
968,-3789,-10,191,-4678,23,-44,-19,17
969,-3783,-2,190,-4681,23,-44,-20,17
970,-3786,-5,191,-4677,23,-44,-20,17
971,-3790,1,197,-4674,23,-43,-19,17
972,-3787,-7,187,-4675,23,-44,-20,17
973,-3793,-4,185,-4677,23,-43,-20,17
974,-3784,-6,197,-4677,23,-44,-20,17
975,-3793,-6,191,-4677,23,-44,-19,16
976,-3788,-5,202,-4673,23,-45,-19,16
977,-3793,-1,184,-4680,23,-44,-19,17
978,-3785,1,182,-4680,23,-44,-18,17
979,-3789,4,187,-4679,23,-44,-19,17
980,-3794,3,181,-4679,23,-44,-20,17
981,-3792,0,180,-4678,23,-45,-20,17
982,-3785,-4,177,-4676,23,-44,-19,17
983,-3782,-6,178,-4675,23,-44,-19,17
984,-3783,-7,184,-4685,23,-44,-20,17
985,-3788,-4,189,-4681,23,-45,-20,17
986,-3788,1,185,-4683,23,-45,-19,17
987,-3792,-3,189,-4680,23,-43,-20,17
988,-3796,-7,186,-4683,23,-44,-19,17
989,-3786,-6,193,-4682,23,-44,-20,17
990,-3793,-4,190,-4681,23,-44,-19,17
991,-3786,-6,194,-4683,23,-44,-19,17
992,-3787,-11,188,-4678,23,-43,-20,17
993,-3785,-9,179,-4682,23,-44,-20,17
994,-3785,-6,185,-4682,23,-44,-19,17
995,-3792,-5,188,-4681,23,-44,-19,17
996,-3788,3,184,-4681,23,-44,-19,17
997,-3786,5,200,-4683,23,-44,-20,17
998,-3791,3,193,-4683,23,-44,-19,18
