,acc_X,acc_Y,acc_Z,temp,tempC,gyr_X,gyr_Y,gyr_Z
0,-15138,-40,682,-4720,23,-86,-39,31
1,-15122,2,864,-4715,23,-87,-39,35
2,-15192,-20,702,-4718,23,-86,-43,32
3,-15134,-28,782,-4705,23,-86,-35,33
4,-15114,6,674,-4704,23,-88,-37,35
5,-15136,-24,770,-4722,23,-91,-41,35
6,-15166,-16,646,-4721,23,-83,-36,37
7,-15130,-34,712,-4717,23,-86,-38,35
8,-15168,4,746,-4718,23,-87,-40,32
9,-15116,-24,788,-4715,23,-86,-40,36
10,-15140,22,816,-4716,23,-85,-38,34
11,-15154,-14,700,-4722,23,-85,-41,33
12,-15162,18,780,-4719,23,-85,-36,34
13,-15196,-22,734,-4709,23,-84,-39,33
14,-15176,-60,694,-4710,23,-90,-36,32
15,-15106,-6,718,-4714,23,-88,-36,37
16,-15154,20,820,-4708,23,-84,-40,35
17,-15196,-2,760,-4720,23,-87,-38,33
18,-15154,10,762,-4715,23,-86,-38,36
19,-15158,74,830,-4709,23,-83,-37,35
20,-15116,-18,838,-4715,23,-88,-37,29
21,-15158,-12,780,-4713,23,-86,-41,37
22,-15190,-24,796,-4732,23,-87,-40,36
23,-15136,-68,768,-4723,23,-87,-39,34
24,-15202,-30,788,-4705,23,-87,-39,35
25,-15110,-32,902,-4724,23,-87,-39,35
26,-15222,20,722,-4712,23,-86,-38,35
27,-15162,-24,688,-4727,23,-90,-41,36
28,-15144,48,746,-4709,23,-88,-40,32
29,-15162,-54,694,-4713,23,-85,-42,35
30,-15168,-26,778,-4715,23,-84,-40,34
31,-15156,-28,672,-4711,23,-87,-39,36
32,-15166,-28,744,-4719,23,-88,-39,36
33,-15162,-12,702,-4708,23,-81,-37,36
34,-15142,-26,708,-4728,23,-90,-38,37
35,-15118,22,756,-4718,23,-88,-36,34
36,-15124,-18,740,-4732,23,-89,-38,39
37,-15152,-22,716,-4716,23,-86,-36,35
38,-15102,-16,844,-4719,23,-87,-39,34
39,-15182,18,766,-4710,23,-88,-40,31
40,-15194,-22,820,-4705,23,-85,-40,31
41,-15152,-16,738,-4706,23,-88,-41,34
42,-15148,38,714,-4713,23,-90,-39,36
43,-15108,-68,840,-4713,23,-88,-36,31
44,-15144,18,832,-4720,23,-87,-38,35
45,-15188,-8,722,-4710,23,-89,-44,35
46,-15154,-30,756,-4712,23,-84,-40,35
47,-15156,4,620,-4727,23,-88,-38,36
48,-15134,26,752,-4716,23,-87,-38,33
49,-15188,-28,670,-4708,23,-86,-39,37
50,-15148,-74,738,-4716,23,-83,-37,37
51,-15148,8,790,-4708,23,-86,-36,34
52,-15214,36,692,-4723,23,-90,-35,31
53,-15086,18,696,-4716,23,-88,-37,32
54,-15100,-54,786,-4703,23,-87,-39,34
55,-15222,80,780,-4711,23,-86,-38,33
56,-15204,8,690,-4719,23,-89,-40,35
57,-15182,14,776,-4717,23,-86,-42,34
58,-15104,-6,758,-4713,23,-89,-42,35
59,-15138,-16,744,-4718,23,-88,-37,34
60,-15142,-44,788,-4727,23,-88,-37,34
61,-15156,-34,650,-4713,23,-87,-39,33
62,-15166,-14,778,-4707,23,-87,-41,33
63,-15136,-22,756,-4717,23,-87,-36,34
64,-15202,-48,724,-4715,23,-86,-38,38
65,-15176,-54,776,-4712,23,-86,-37,34
66,-15116,18,692,-4705,23,-88,-37,38
67,-15166,-8,798,-4713,23,-85,-36,36
68,-15106,-12,688,-4711,23,-87,-40,37
69,-15140,16,780,-4708,23,-87,-41,33
70,-15168,-20,708,-4715,23,-85,-36,36
71,-15106,-4,828,-4715,23,-89,-41,33
72,-15136,-36,728,-4703,23,-88,-37,33
73,-15178,38,762,-4727,23,-86,-38,33
74,-15146,-6,738,-4721,23,-90,-44,35
75,-15124,-10,676,-4716,23,-86,-39,34
76,-15126,-8,748,-4722,23,-87,-38,32
77,-15134,42,750,-4720,23,-87,-40,39
78,-15156,36,806,-4714,23,-89,-40,35
79,-15158,0,720,-4715,23,-86,-37,34
80,-15146,-10,662,-4718,23,-86,-39,33
81,-15118,-8,802,-4729,23,-90,-41,34
82,-15144,-12,792,-4716,23,-89,-40,36
83,-15092,-86,748,-4706,23,-87,-39,34
84,-15196,14,720,-4710,23,-87,-37,35
85,-15182,8,716,-4705,23,-87,-38,32
86,-15106,4,778,-4714,23,-90,-37,36
87,-15184,-60,858,-4708,23,-85,-39,33
88,-15118,-34,644,-4712,23,-85,-41,33
89,-15134,-14,716,-4714,23,-87,-36,33
90,-15186,-4,810,-4713,23,-83,-39,32
91,-15144,24,784,-4704,23,-88,-36,36
92,-15152,10,774,-4705,23,-87,-39,33
93,-15184,-68,832,-4723,23,-87,-42,34
94,-15182,4,696,-4711,23,-87,-38,34
95,-15182,-30,760,-4706,23,-84,-38,36
96,-15136,-54,824,-4709,23,-86,-40,35
97,-15118,-80,710,-4719,23,-91,-41,36
98,-15250,-44,746,-4710,23,-86,-40,36
99,-15160,-62,762,-4714,23,-86,-35,34
100,-15092,-4,834,-4715,23,-89,-39,32
101,-15206,-2,712,-4713,23,-88,-36,35
102,-15116,-10,760,-4710,23,-89,-42,35
103,-15116,6,674,-4718,23,-86,-39,36
104,-15142,28,776,-4706,23,-87,-41,33
105,-15168,-38,770,-4703,23,-86,-40,33
106,-15190,-48,666,-4714,23,-85,-38,35
107,-15172,-16,746,-4712,23,-86,-39,32
108,-15168,-32,778,-4713,23,-87,-36,38
109,-15154,-44,696,-4716,23,-87,-37,36
110,-15126,18,832,-4701,23,-90,-37,32
111,-15102,8,812,-4712,23,-85,-36,34
112,-15162,-2,750,-4718,23,-84,-40,34
113,-15164,-76,742,-4717,23,-91,-40,32
114,-15082,-12,738,-4707,23,-89,-40,34
115,-15186,-2,716,-4712,23,-87,-41,36
116,-15114,18,810,-4707,23,-84,-36,36
117,-15168,-36,756,-4711,23,-86,-39,35
118,-15142,-10,674,-4712,23,-86,-38,35
119,-15182,24,736,-4724,23,-86,-41,34
120,-15152,72,796,-4722,23,-85,-41,35
121,-15132,14,712,-4720,23,-91,-36,36
122,-15174,-22,802,-4705,23,-84,-39,38
123,-15152,-34,710,-4712,23,-83,-36,33
124,-15138,4,752,-4711,23,-86,-40,38
125,-15158,-20,754,-4715,23,-88,-37,29
126,-15134,-50,744,-4715,23,-88,-40,32
127,-15090,-22,834,-4712,23,-87,-36,33
128,-15154,10,760,-4710,23,-87,-38,37
129,-15156,-92,768,-4715,23,-90,-42,36
130,-15162,-44,706,-4710,23,-88,-39,36
131,-15194,20,760,-4719,23,-86,-37,34
132,-15142,48,736,-4716,23,-85,-40,35
133,-15178,-2,654,-4717,23,-86,-40,35
134,-15168,-36,754,-4710,23,-88,-39,35
135,-15170,-64,782,-4704,23,-88,-37,35
136,-15196,-58,726,-4714,23,-88,-36,38
137,-15170,-62,776,-4712,23,-88,-41,32
138,-15184,-60,736,-4714,23,-85,-41,33
139,-15124,-56,720,-4712,23,-87,-39,33
140,-15156,-30,718,-4719,23,-87,-36,35
141,-15178,2,778,-4709,23,-86,-35,33
142,-15154,-38,820,-4712,23,-85,-37,34
143,-15142,-16,794,-4716,23,-88,-38,37
144,-15166,-64,654,-4718,23,-85,-42,33
145,-15166,-14,654,-4719,23,-92,-40,38
146,-15144,16,704,-4728,23,-89,-36,40
147,-15174,-22,728,-4718,23,-87,-37,33
148,-15142,16,724,-4712,23,-88,-39,34
149,-15186,-60,738,-4706,23,-87,-39,32
150,-15178,-4,724,-4712,23,-87,-39,34
151,-15150,-18,790,-4716,23,-85,-42,35
152,-15202,-6,712,-4720,23,-89,-39,35
153,-15140,-10,680,-4709,23,-84,-36,35
154,-15142,14,740,-4710,23,-90,-39,34
155,-15180,18,802,-4717,23,-87,-42,34
156,-15166,-6,762,-4707,23,-85,-37,30
157,-15114,-44,760,-4709,23,-87,-36,36
158,-15016,-8,752,-4712,23,-87,-37,34
159,-15082,-18,830,-4702,23,-86,-38,37
160,-15076,-58,812,-4713,23,-87,-37,34
161,-15184,-14,752,-4707,23,-88,-36,34
162,-15174,-44,830,-4716,23,-84,-39,32
163,-15106,20,778,-4707,23,-90,-37,35
164,-15092,12,732,-4710,23,-88,-38,36
165,-15164,-2,736,-4712,23,-89,-38,32
166,-15164,-12,778,-4712,23,-87,-37,31
167,-15146,-62,792,-4716,23,-88,-38,33
168,-15186,-6,698,-4701,23,-85,-35,33
169,-15142,8,760,-4708,23,-90,-40,36
170,-15158,-18,682,-4708,23,-88,-37,31
171,-15106,-16,724,-4709,23,-87,-36,34
172,-15222,2,764,-4704,23,-88,-38,33
173,-15192,8,728,-4715,23,-89,-36,31
174,-15134,-6,648,-4706,23,-87,-38,33
175,-15102,26,664,-4708,23,-87,-34,35
176,-15126,-18,784,-4715,23,-86,-39,38
177,-15130,-20,798,-4712,23,-88,-40,33
178,-15150,-50,724,-4709,23,-87,-38,33
179,-15206,-4,798,-4711,23,-87,-36,35
180,-15124,-28,758,-4713,23,-90,-38,37
181,-15152,-22,762,-4701,23,-90,-38,34
182,-15170,6,716,-4714,23,-85,-36,38
183,-15160,-68,816,-4711,23,-90,-34,32
184,-15176,-54,782,-4712,23,-86,-36,36
185,-15190,6,714,-4713,23,-88,-40,31
186,-15176,-90,770,-4714,23,-86,-39,32
187,-15152,-32,710,-4708,23,-86,-40,33
188,-15156,-8,720,-4709,23,-85,-39,35
189,-15156,20,776,-4704,23,-85,-37,32
190,-15136,-16,706,-4710,23,-89,-38,35
191,-15138,-24,752,-4707,23,-87,-41,33
192,-15196,-70,712,-4710,23,-87,-40,35
193,-15182,30,782,-4703,23,-90,-38,34
194,-15102,-14,834,-4716,23,-91,-38,32
195,-15150,4,718,-4708,23,-88,-38,35
196,-15162,6,770,-4708,23,-86,-36,37
197,-15138,-26,718,-4710,23,-85,-38,40
198,-15200,18,764,-4706,23,-87,-41,33
199,-15180,-32,810,-4700,23,-87,-39,34
200,-15092,-12,724,-4716,23,-87,-39,35
201,-15186,2,824,-4711,23,-85,-39,37
202,-15176,-38,772,-4712,23,-87,-36,34
203,-15192,20,748,-4701,23,-87,-40,34
204,-15066,-36,724,-4714,23,-89,-36,35
205,-15202,-24,844,-4712,23,-88,-39,34
206,-15136,-6,738,-4704,23,-87,-37,35
207,-15232,8,712,-4713,23,-87,-39,34
208,-15128,-40,824,-4714,23,-87,-40,33
209,-15188,4,714,-4718,23,-89,-37,33
210,-15144,20,700,-4713,23,-87,-40,35
211,-15174,-84,772,-4714,23,-88,-41,32
212,-15178,-12,730,-4711,23,-90,-39,31
213,-15134,-12,794,-4714,23,-87,-41,38
214,-15126,2,674,-4718,23,-87,-39,35
215,-15204,6,764,-4714,23,-85,-37,34
216,-15152,-36,712,-4706,23,-89,-40,33
217,-15216,40,784,-4710,23,-88,-42,37
218,-15166,-50,732,-4716,23,-88,-39,35
219,-15158,-2,786,-4717,23,-85,-42,35
220,-15182,-48,732,-4717,23,-87,-37,37
221,-15196,-48,760,-4713,23,-88,-40,35
222,-15184,50,680,-4717,23,-86,-39,37
223,-15118,-24,684,-4708,23,-89,-40,34
224,-15160,-28,766,-4697,23,-89,-41,37
225,-15182,-12,754,-4700,23,-86,-42,34
226,-15140,18,718,-4714,23,-86,-43,36
227,-15186,-44,752,-4715,23,-87,-41,34
228,-15066,4,724,-4704,23,-85,-38,32
229,-15166,36,774,-4706,23,-86,-41,32
230,-15150,18,768,-4711,23,-90,-40,35
231,-15132,-44,828,-4711,23,-91,-39,34
232,-15184,4,740,-4701,23,-86,-40,33
233,-15138,10,812,-4702,23,-88,-38,35
234,-15126,-46,792,-4709,23,-93,-38,35
235,-15150,-32,760,-4713,23,-85,-38,35
236,-15150,-24,756,-4717,23,-83,-36,35
237,-15132,24,848,-4713,23,-87,-38,30
238,-15170,-54,750,-4711,23,-90,-37,33
239,-15200,-82,684,-4710,23,-84,-37,38
240,-15150,-4,818,-4717,23,-86,-38,37
241,-15206,-68,746,-4713,23,-88,-37,34
242,-15128,-32,734,-4705,23,-86,-38,36
243,-15104,-34,774,-4716,23,-86,-36,37
244,-15100,2,792,-4712,23,-90,-40,35
245,-15128,0,774,-4705,23,-84,-37,36
246,-15122,-22,806,-4706,23,-87,-39,35
247,-15158,-82,658,-4709,23,-86,-38,37
248,-15134,10,718,-4709,23,-91,-40,37
249,-15170,-18,718,-4703,23,-89,-36,32
250,-15152,-14,738,-4706,23,-81,-34,34
251,-15136,-6,754,-4728,23,-89,-39,36
252,-15184,2,730,-4712,23,-89,-40,33
253,-15186,-2,708,-4704,23,-87,-39,36
254,-15158,42,666,-4720,23,-87,-40,38
255,-15114,-34,748,-4712,23,-86,-38,33
256,-15160,-38,728,-4708,23,-86,-37,33
257,-15166,-78,710,-4712,23,-90,-39,34
258,-15170,8,792,-4712,23,-85,-36,33
259,-15196,-8,672,-4711,23,-84,-40,34
260,-15146,-22,690,-4711,23,-85,-38,34
261,-15092,-24,760,-4704,23,-86,-38,34
262,-15192,24,778,-4703,23,-89,-39,33
263,-15098,-16,776,-4717,23,-90,-40,31
264,-15150,46,786,-4713,23,-86,-40,37
265,-15114,-40,756,-4697,23,-88,-39,33
266,-15102,4,794,-4714,23,-85,-37,36
267,-15202,6,800,-4711,23,-88,-37,34
268,-15190,-90,812,-4700,23,-87,-38,34
269,-15188,-4,822,-4704,23,-84,-39,36
270,-15168,-74,722,-4711,23,-87,-40,35
271,-15094,-84,770,-4706,23,-85,-38,35
272,-15156,40,758,-4703,23,-84,-37,34
273,-15166,-6,718,-4701,23,-88,-42,34
274,-15192,-2,774,-4702,23,-85,-42,36
275,-15224,28,776,-4715,23,-86,-36,36
276,-15204,26,716,-4709,23,-85,-42,36
277,-15146,-16,714,-4712,23,-85,-40,35
278,-15156,-12,788,-4716,23,-87,-39,34
279,-15074,98,778,-4714,23,-88,-41,34
280,-15108,-38,782,-4712,23,-87,-40,35
281,-15166,0,822,-4708,23,-84,-37,36
282,-15164,-32,750,-4714,23,-83,-41,33
283,-15146,50,786,-4716,23,-88,-38,35
284,-15158,-14,730,-4714,23,-86,-35,36
285,-15180,-24,778,-4704,23,-85,-36,35
286,-15138,-36,750,-4716,23,-89,-38,36
287,-15138,-40,686,-4713,23,-83,-39,32
288,-15148,32,780,-4706,23,-89,-40,34
289,-15162,-10,804,-4708,23,-89,-41,33
290,-15156,14,728,-4704,23,-84,-37,34
291,-15170,6,792,-4702,23,-87,-35,36
292,-15158,-10,708,-4712,23,-88,-36,34
293,-15160,-88,720,-4715,23,-86,-36,34
294,-15168,0,728,-4706,23,-87,-38,34
295,-15138,12,710,-4711,23,-88,-37,34
296,-15184,-58,732,-4697,23,-86,-37,32
297,-15210,20,784,-4704,23,-87,-40,34
298,-15148,32,678,-4712,23,-87,-39,33
299,-15244,-6,770,-4714,23,-87,-41,34
300,-15124,-64,816,-4713,23,-87,-38,34
301,-15172,4,810,-4700,23,-89,-39,32
302,-15166,-8,804,-4712,23,-90,-38,37
303,-15138,-86,798,-4706,23,-89,-41,30
304,-15162,14,750,-4702,23,-85,-37,37
305,-15214,-64,720,-4705,23,-91,-38,36
306,-15136,50,662,-4700,23,-84,-39,33
307,-15144,-6,782,-4703,23,-90,-41,35
308,-15236,-42,766,-4714,23,-87,-41,37
309,-15172,-26,754,-4703,23,-87,-36,36
310,-15146,-6,864,-4713,23,-87,-38,33
311,-15168,38,768,-4711,23,-84,-40,35
312,-15140,38,722,-4714,23,-90,-37,35
313,-15188,40,764,-4713,23,-87,-41,35
314,-15128,8,718,-4711,23,-87,-37,33
315,-15176,2,710,-4711,23,-85,-40,37
316,-15130,-12,742,-4704,23,-93,-40,33
317,-15180,-10,714,-4715,23,-85,-36,35
318,-15114,10,784,-4709,23,-82,-38,36
319,-15176,-66,806,-4695,23,-86,-38,35
320,-15138,-16,782,-4715,23,-88,-40,34
321,-15192,-4,792,-4716,23,-87,-41,35
322,-15160,20,676,-4714,23,-86,-36,34
323,-15138,8,788,-4710,23,-85,-38,35
324,-15122,-36,664,-4712,23,-87,-41,32
325,-15178,-12,742,-4694,23,-88,-39,33
326,-15168,-70,626,-4708,23,-88,-34,35
327,-15162,46,722,-4716,23,-86,-40,34
328,-15108,-12,738,-4703,23,-85,-42,34
329,-15112,-4,688,-4713,23,-85,-40,34
330,-15160,-20,770,-4714,23,-90,-38,35
331,-15142,34,740,-4709,23,-91,-38,33
332,-15130,0,694,-4708,23,-86,-33,33
333,-15088,-36,722,-4703,23,-83,-41,34
334,-15154,-6,760,-4710,23,-88,-41,38
335,-15176,32,806,-4707,23,-86,-39,36
336,-15148,-18,808,-4712,23,-88,-40,36
337,-15150,-22,696,-4702,23,-84,-41,36
338,-15162,-58,674,-4709,23,-87,-37,33
339,-15230,38,724,-4708,23,-88,-38,35
340,-15136,0,744,-4711,23,-85,-41,34
341,-15136,-8,758,-4717,23,-88,-38,35
342,-15166,26,768,-4706,23,-86,-37,36
343,-15186,-38,774,-4712,23,-84,-40,33
344,-15152,0,780,-4709,23,-86,-38,32
345,-15114,-26,778,-4707,23,-86,-40,34
346,-15116,-48,744,-4719,23,-88,-40,37
347,-15176,-26,756,-4703,23,-87,-40,32
348,-15086,-8,708,-4706,23,-87,-39,34
349,-15116,-38,728,-4719,23,-87,-35,38
350,-15200,-2,840,-4716,23,-86,-40,36
351,-15176,14,788,-4717,23,-89,-37,32
352,-15124,0,750,-4704,23,-90,-41,35
353,-15144,32,720,-4711,23,-86,-41,35
354,-15202,-4,706,-4710,23,-85,-39,37
355,-15186,24,676,-4710,23,-90,-34,34
356,-15156,-74,762,-4701,23,-86,-39,31
357,-15170,10,746,-4705,23,-89,-35,37
358,-15132,-68,864,-4712,23,-88,-43,36
359,-15080,46,760,-4713,23,-88,-38,35
360,-15130,20,740,-4707,23,-84,-38,35
361,-15132,24,826,-4712,23,-85,-37,34
362,-15126,-10,684,-4716,23,-89,-37,36
363,-15196,-10,764,-4707,23,-88,-39,34
364,-15134,-32,762,-4709,23,-83,-38,36
365,-15090,-28,754,-4708,23,-84,-37,35
366,-15140,-12,756,-4711,23,-87,-41,34
367,-15112,8,806,-4706,23,-89,-40,34
368,-15108,-8,734,-4701,23,-90,-39,34
369,-15188,-40,716,-4706,23,-89,-35,35
370,-15118,6,750,-4709,23,-91,-42,31
371,-15192,6,770,-4704,23,-85,-40,34
372,-15126,-36,782,-4696,23,-87,-35,35
373,-15156,-6,770,-4709,23,-86,-38,32
374,-15180,-24,802,-4702,23,-86,-39,32
375,-15226,24,758,-4702,23,-87,-35,34
376,-15130,38,694,-4701,23,-85,-34,36
377,-15126,-60,804,-4702,23,-91,-39,36
378,-15094,-10,732,-4710,23,-85,-37,33
379,-15204,-74,704,-4710,23,-89,-39,33
380,-15142,-24,668,-4710,23,-85,-38,31
381,-15196,-30,704,-4707,23,-86,-40,33
382,-15142,-10,730,-4711,23,-89,-37,38
383,-15170,-32,806,-4713,23,-89,-40,37
384,-15130,4,812,-4712,23,-88,-36,38
385,-15108,8,804,-4714,23,-88,-39,35
386,-15184,-22,724,-4701,23,-87,-39,36
387,-15080,0,766,-4710,23,-89,-38,36
388,-15182,18,830,-4711,23,-87,-36,33
389,-15144,32,774,-4719,23,-89,-42,33
390,-15064,-6,814,-4706,23,-89,-37,34
391,-15238,-26,832,-4702,23,-86,-37,34
392,-15178,-20,706,-4703,23,-88,-41,30
393,-15180,-22,786,-4703,23,-89,-37,35
394,-15158,10,760,-4707,23,-87,-37,35
395,-15162,44,750,-4710,23,-87,-37,36
396,-15204,-58,760,-4712,23,-85,-40,35
397,-15154,-2,716,-4703,23,-85,-39,36
398,-15138,-22,748,-4701,23,-87,-37,35
399,-15120,-24,792,-4707,23,-87,-40,35
400,-15188,-52,774,-4710,23,-89,-35,35
401,-15138,-48,768,-4714,23,-90,-37,35
402,-15058,-26,760,-4705,23,-88,-43,36
403,-15106,-34,678,-4711,23,-89,-42,35
404,-15184,-14,708,-4702,23,-88,-35,36
405,-15186,-48,716,-4709,23,-86,-39,35
406,-15164,8,732,-4707,23,-88,-41,34
407,-15150,-22,686,-4715,23,-87,-38,33
408,-15154,36,722,-4710,23,-86,-39,37
409,-15180,-22,874,-4699,23,-87,-41,34
410,-15132,36,838,-4707,23,-85,-38,36
411,-15144,28,826,-4694,23,-85,-36,35
412,-15154,20,744,-4706,23,-91,-42,34
413,-15122,4,762,-4700,23,-86,-38,34
414,-15178,-44,734,-4710,23,-82,-39,34
415,-15142,-18,710,-4707,23,-87,-40,37
416,-15166,10,782,-4701,23,-88,-39,30
417,-15166,-38,694,-4716,23,-84,-36,35
418,-15180,-102,790,-4701,23,-85,-40,35
419,-15172,-32,786,-4698,23,-85,-42,35
420,-15184,18,858,-4707,23,-86,-40,35
421,-15220,-32,794,-4697,23,-87,-40,35
422,-15134,-20,724,-4715,23,-86,-40,36
423,-15200,-22,754,-4705,23,-89,-39,36
424,-15146,2,760,-4712,23,-85,-36,35
425,-15154,-2,710,-4707,23,-87,-39,38
426,-15162,24,722,-4709,23,-87,-40,34
427,-15178,-38,782,-4714,23,-85,-38,33
428,-15096,0,750,-4712,23,-89,-36,37
429,-15158,28,716,-4705,23,-82,-37,34
430,-15142,-2,682,-4705,23,-88,-39,35
431,-15154,-12,734,-4702,23,-87,-40,34
432,-15084,2,728,-4705,23,-87,-40,37
433,-15142,58,820,-4712,23,-85,-37,35
434,-15092,-2,790,-4709,23,-88,-40,33
435,-15138,-38,732,-4711,23,-89,-35,32
436,-15180,-22,748,-4697,23,-88,-38,35
437,-15152,-40,698,-4702,23,-85,-39,32
438,-15208,-50,684,-4704,23,-84,-37,34
439,-15144,32,824,-4699,23,-84,-35,35
440,-15186,0,760,-4707,23,-86,-38,34
441,-15108,20,822,-4697,23,-85,-41,34
442,-15146,-44,806,-4703,23,-88,-39,34
443,-15182,44,742,-4711,23,-89,-42,33
444,-15130,-20,680,-4713,23,-84,-40,34
445,-15158,-24,698,-4707,23,-87,-37,36
446,-15216,6,786,-4710,23,-91,-38,37
447,-15194,-34,744,-4700,23,-86,-37,35
448,-15146,-34,724,-4711,23,-88,-41,35
449,-15122,-2,704,-4704,23,-88,-45,32
450,-15160,-18,834,-4706,23,-87,-36,34
451,-15172,-22,704,-4704,23,-84,-37,34
452,-15138,-50,686,-4695,23,-90,-37,33
453,-15166,-2,716,-4706,23,-88,-36,33
454,-15116,-10,742,-4704,23,-88,-38,36
455,-15180,0,796,-4706,23,-91,-36,35
456,-15152,4,764,-4702,23,-86,-38,35
457,-15162,-62,674,-4701,23,-87,-39,35
458,-15102,8,670,-4700,23,-84,-39,32
459,-15156,14,748,-4697,23,-89,-40,35
460,-15174,16,622,-4703,23,-85,-37,33
461,-15120,-36,804,-4710,23,-86,-38,33
462,-15140,-32,674,-4713,23,-85,-40,37
463,-15176,-18,798,-4712,23,-87,-38,34
464,-15144,54,632,-4700,23,-90,-43,35
465,-15188,32,862,-4700,23,-87,-39,34
466,-15172,-18,710,-4717,23,-87,-40,34
467,-15164,6,720,-4719,23,-87,-39,37
468,-15134,-26,740,-4709,23,-85,-41,35
469,-15158,6,746,-4711,23,-86,-39,35
470,-15162,0,720,-4705,23,-85,-39,35
471,-15112,-52,736,-4703,23,-87,-40,35
472,-15194,34,810,-4712,23,-86,-35,36
473,-15198,0,700,-4704,23,-86,-40,32
474,-15192,8,754,-4708,23,-86,-36,34
475,-15170,-12,718,-4703,23,-88,-38,35
476,-15128,-30,796,-4703,23,-83,-43,29
477,-15112,4,730,-4692,23,-89,-38,34
478,-15178,-28,752,-4707,23,-84,-38,36
479,-15184,-6,704,-4713,23,-88,-38,34
480,-15142,-12,802,-4708,23,-87,-38,35
481,-15160,-20,734,-4720,23,-85,-39,35
482,-15154,44,716,-4713,23,-89,-46,37
483,-15146,20,676,-4706,23,-90,-37,35
484,-15266,14,710,-4710,23,-84,-40,37
485,-15154,-28,772,-4706,23,-86,-38,36
486,-15158,-36,666,-4704,23,-84,-37,33
487,-15144,-16,766,-4709,23,-88,-38,37
488,-15158,-2,722,-4714,23,-85,-38,34
489,-15144,-6,702,-4706,23,-90,-35,35
490,-15132,30,790,-4701,23,-87,-42,35
491,-15162,-4,810,-4701,23,-87,-39,34
492,-15114,32,730,-4705,23,-84,-40,37
493,-15194,-76,766,-4699,23,-86,-39,37
494,-15172,-6,840,-4717,23,-83,-38,33
495,-15178,-26,818,-4705,23,-87,-41,36
496,-15174,-72,716,-4727,23,-88,-39,33
497,-15158,-14,712,-4702,23,-89,-37,36
498,-15164,-16,770,-4707,23,-89,-38,36
499,-15154,-46,702,-4704,23,-86,-40,34
500,-15170,70,760,-4711,23,-82,-41,35
501,-15088,-10,694,-4718,23,-90,-39,37
502,-15210,-38,716,-4702,23,-86,-36,33
503,-15200,14,770,-4705,23,-91,-38,32
504,-15156,22,726,-4713,23,-87,-42,36
505,-15122,8,826,-4712,23,-89,-40,33
506,-15198,-2,832,-4712,23,-88,-37,34
507,-15152,-84,726,-4706,23,-88,-36,34
508,-15198,-18,836,-4714,23,-86,-40,40
509,-15178,-72,648,-4713,23,-89,-40,33
510,-15114,-12,848,-4715,23,-86,-39,36
511,-15152,-14,756,-4704,23,-85,-36,33
512,-15162,-48,686,-4703,23,-89,-41,35
513,-15148,-40,710,-4710,23,-87,-42,32
514,-15094,-32,724,-4716,23,-87,-42,35
515,-15136,-28,678,-4710,23,-91,-38,37
516,-15132,-32,848,-4710,23,-89,-37,35
517,-15164,-46,726,-4706,23,-87,-37,37
518,-15146,-28,760,-4704,23,-88,-40,36
519,-15122,26,768,-4712,23,-86,-36,39
520,-15116,-36,746,-4710,23,-89,-35,35
521,-15212,2,824,-4708,23,-89,-39,37
522,-15178,-48,624,-4703,23,-86,-44,36
523,-15156,-62,716,-4714,23,-86,-40,32
524,-15106,-18,802,-4709,23,-85,-42,34
525,-15160,-86,768,-4700,23,-90,-34,39
526,-15176,4,690,-4706,23,-84,-36,34
527,-15142,-38,780,-4696,23,-86,-37,33
528,-15168,40,768,-4708,23,-87,-43,37
529,-15186,-52,746,-4716,23,-87,-36,35
530,-15182,20,782,-4710,23,-86,-39,34
531,-15132,-4,694,-4710,23,-87,-36,35
532,-15106,10,778,-4692,23,-87,-39,38
533,-15158,-26,766,-4716,23,-89,-38,33
534,-15118,-30,822,-4703,23,-88,-38,33
535,-15190,-72,660,-4696,23,-87,-39,37
536,-15166,-14,694,-4709,23,-87,-39,33
537,-15162,40,752,-4712,23,-89,-41,36
538,-15114,-60,762,-4706,23,-84,-40,36
539,-15152,-44,714,-4718,23,-89,-39,36
540,-15114,-6,630,-4697,23,-85,-39,36
541,-15170,-64,724,-4710,23,-87,-43,34
542,-15156,-74,676,-4713,23,-87,-38,35
543,-15148,4,714,-4709,23,-89,-38,35
544,-15210,-28,718,-4709,23,-86,-39,33
545,-15164,-88,834,-4710,23,-86,-38,38
546,-15162,-44,816,-4704,23,-87,-36,35
547,-15112,-24,680,-4710,23,-89,-36,35
548,-15116,-18,796,-4712,23,-85,-38,36
549,-15170,20,782,-4708,23,-88,-36,34
550,-15210,-24,802,-4698,23,-87,-36,33
551,-15188,8,732,-4699,23,-88,-41,35
552,-15190,-16,834,-4707,23,-89,-37,35
553,-15142,-6,710,-4713,23,-87,-41,35
554,-15112,0,828,-4715,23,-88,-38,38
555,-15108,-18,776,-4689,23,-88,-42,36
556,-15218,-16,800,-4707,23,-84,-37,36
557,-15166,16,692,-4702,23,-88,-37,32
558,-15128,18,752,-4696,23,-87,-41,32
559,-15110,-18,682,-4705,23,-88,-39,36
560,-15136,-14,762,-4704,23,-90,-35,34
561,-15182,-30,722,-4700,23,-87,-37,33
562,-15210,-40,710,-4711,23,-86,-38,32
563,-15142,-10,688,-4710,23,-91,-39,36
564,-15178,-88,682,-4713,23,-86,-35,35
565,-15160,2,690,-4712,23,-89,-39,32
566,-15124,-4,734,-4695,23,-87,-46,33
567,-15180,-18,702,-4704,23,-88,-41,31
568,-15132,-56,756,-4709,23,-81,-38,37
569,-15112,24,772,-4695,23,-86,-41,36
570,-15174,-66,674,-4703,23,-90,-37,36
571,-15200,20,704,-4697,23,-89,-38,37
572,-15112,6,772,-4706,23,-89,-40,33
573,-15182,-42,734,-4698,23,-87,-36,33
574,-15120,-18,814,-4702,23,-85,-37,33
575,-15206,-58,682,-4704,23,-83,-38,38
576,-15110,-38,772,-4707,23,-86,-41,34
577,-15146,-56,786,-4699,23,-86,-38,36
578,-15174,-24,720,-4700,23,-87,-38,35
579,-15162,-6,740,-4706,23,-86,-41,32
580,-15142,-48,812,-4699,23,-86,-38,35
581,-15156,-28,822,-4703,23,-89,-42,32
582,-15130,-8,710,-4691,23,-89,-38,36
583,-15196,-22,780,-4695,23,-87,-39,34
584,-15166,-62,752,-4708,23,-89,-38,35
585,-15184,-10,756,-4706,23,-88,-40,34
586,-15156,-2,690,-4707,23,-87,-40,36
587,-15120,46,768,-4700,23,-87,-38,34
588,-15134,0,736,-4713,23,-87,-38,34
589,-15164,-20,674,-4714,23,-86,-38,35
590,-15156,-44,692,-4694,23,-88,-39,36
591,-15104,-64,798,-4707,23,-89,-38,35
592,-15162,52,720,-4701,23,-84,-40,37
593,-15148,-38,776,-4705,23,-87,-38,34
594,-15124,24,742,-4706,23,-88,-40,37
595,-15140,0,732,-4699,23,-87,-40,34
596,-15144,18,788,-4707,23,-85,-41,36
597,-15164,-16,722,-4699,23,-90,-41,33
598,-15102,-46,788,-4704,23,-87,-42,36
599,-15140,0,800,-4701,23,-86,-39,33
600,-15190,54,698,-4699,23,-92,-36,34
601,-15126,-26,668,-4705,23,-87,-39,35
602,-15156,32,762,-4714,23,-86,-33,36
603,-15180,2,830,-4709,23,-84,-39,35
604,-15198,-24,748,-4706,23,-91,-38,35
605,-15126,-16,842,-4704,23,-86,-43,33
606,-15150,-2,754,-4702,23,-85,-42,32
607,-15138,-24,744,-4704,23,-90,-39,35
608,-15222,2,702,-4717,23,-86,-36,34
609,-15068,-4,768,-4700,23,-84,-37,34
610,-15096,-20,788,-4705,23,-86,-36,35
611,-15162,-28,708,-4707,23,-87,-37,32
612,-15092,-6,738,-4708,23,-85,-37,33
613,-15160,56,792,-4700,23,-88,-39,37
614,-15100,-2,750,-4702,23,-87,-35,34
615,-15118,28,718,-4713,23,-87,-39,33
616,-15102,36,732,-4704,23,-89,-39,36
617,-15170,-18,726,-4703,23,-89,-36,37
618,-15176,-20,748,-4688,23,-89,-42,33
619,-15136,-22,710,-4712,23,-83,-41,35
620,-15180,56,672,-4704,23,-86,-40,34
621,-15166,-6,746,-4709,23,-88,-42,34
622,-15132,-6,776,-4709,23,-87,-39,33
623,-15170,-38,840,-4705,23,-84,-38,32
624,-15112,34,660,-4714,23,-85,-37,33
625,-15190,-42,836,-4713,23,-86,-39,35
626,-15184,-2,684,-4708,23,-87,-36,35
627,-15200,-30,712,-4695,23,-83,-39,34
628,-15152,-24,782,-4711,23,-84,-39,33
629,-15092,10,792,-4695,23,-88,-39,37
630,-15204,-60,802,-4705,23,-85,-41,38
631,-15146,44,702,-4699,23,-87,-41,32
632,-15150,26,714,-4694,23,-86,-35,35
633,-15154,0,780,-4697,23,-86,-40,34
634,-15134,14,734,-4707,23,-87,-43,37
635,-15180,-84,734,-4711,23,-87,-38,35
636,-15142,-52,774,-4699,23,-86,-40,33
637,-15162,-104,708,-4702,23,-89,-38,35
638,-15088,-32,736,-4700,23,-88,-36,35
639,-15194,6,754,-4701,23,-84,-36,38
640,-15198,42,708,-4703,23,-90,-36,34
641,-15158,-74,732,-4693,23,-86,-39,36
642,-15178,-58,786,-4703,23,-85,-38,38
643,-15150,-20,782,-4696,23,-85,-42,35
644,-15154,48,750,-4697,23,-88,-39,34
645,-15166,-42,736,-4701,23,-85,-39,34
646,-15100,2,760,-4712,23,-83,-36,33
647,-15128,6,694,-4698,23,-84,-38,36
648,-15124,-2,716,-4701,23,-86,-35,35
649,-15152,50,818,-4702,23,-89,-38,34
650,-15182,-18,640,-4704,23,-87,-39,34
651,-15144,-8,674,-4708,23,-89,-38,38
652,-15178,-46,824,-4703,23,-87,-39,37
653,-15174,34,840,-4701,23,-85,-41,34
654,-15174,-40,730,-4707,23,-83,-37,35
655,-15136,20,716,-4698,23,-87,-40,35
656,-15154,-48,726,-4704,23,-86,-41,34
657,-15120,-14,724,-4708,23,-89,-36,36
658,-15130,38,648,-4698,23,-87,-38,32
659,-15186,-22,792,-4693,23,-87,-37,33
660,-15134,22,726,-4692,23,-86,-39,33
661,-15126,-22,728,-4699,23,-87,-40,35
662,-15166,52,748,-4694,23,-85,-41,33
663,-15128,62,764,-4701,23,-86,-40,33
664,-15130,22,720,-4689,23,-84,-40,32
665,-15188,-56,666,-4703,23,-85,-37,33
666,-15202,16,784,-4703,23,-86,-38,35
667,-15078,-36,822,-4703,23,-84,-38,33
668,-15176,-46,700,-4694,23,-87,-36,35
669,-15114,-36,830,-4702,23,-90,-39,32
670,-15172,-62,714,-4703,23,-86,-33,36
671,-15196,6,686,-4701,23,-85,-39,32
672,-15164,-34,722,-4704,23,-86,-38,36
673,-15150,8,724,-4705,23,-85,-36,34
674,-15180,-62,798,-4699,23,-86,-41,36
675,-15080,32,874,-4702,23,-89,-41,32
676,-15098,-34,692,-4696,23,-85,-35,31
677,-15166,58,724,-4694,23,-87,-39,33
678,-15164,-16,812,-4703,23,-85,-39,34
679,-15126,32,826,-4703,23,-87,-39,37
680,-15118,-6,682,-4706,23,-89,-38,34
681,-15196,-8,740,-4707,23,-87,-39,36
682,-15158,4,760,-4711,23,-89,-34,37
683,-15168,28,726,-4703,23,-88,-39,34
684,-15224,-52,704,-4707,23,-86,-39,32
685,-15180,-44,762,-4698,23,-88,-39,34
686,-15166,14,830,-4711,23,-89,-39,37
687,-15122,2,750,-4701,23,-86,-39,38
688,-15188,-30,710,-4700,23,-86,-41,33
689,-15144,16,738,-4711,23,-89,-39,33
690,-15152,6,780,-4705,23,-84,-40,33
691,-15140,-46,742,-4698,23,-85,-41,34
692,-15126,0,720,-4694,23,-89,-39,34
693,-15182,-52,736,-4707,23,-84,-39,35
694,-15196,30,686,-4695,23,-86,-39,34
695,-15166,38,732,-4711,23,-90,-39,35
696,-15092,8,772,-4712,23,-90,-39,33
697,-15126,-20,788,-4701,23,-86,-38,33
698,-15154,22,772,-4691,23,-86,-41,33
699,-15176,-6,688,-4695,23,-85,-40,32
700,-15204,2,732,-4702,23,-83,-43,36
701,-15128,-46,770,-4701,23,-87,-39,33
702,-15178,16,718,-4690,23,-86,-40,35
703,-15210,-10,698,-4708,23,-85,-41,37
704,-15224,0,708,-4706,23,-89,-39,33
705,-15126,4,802,-4703,23,-87,-38,31
706,-15148,-12,850,-4700,23,-86,-38,36
707,-15094,-50,656,-4708,23,-88,-38,34
708,-15120,-26,766,-4700,23,-88,-40,34
709,-15166,-30,736,-4701,23,-86,-43,32
710,-15146,26,766,-4698,23,-86,-39,35
711,-15146,-66,746,-4695,23,-91,-39,36
712,-15172,-48,790,-4712,23,-88,-39,31
713,-15154,-54,728,-4700,23,-88,-43,34
714,-15154,2,774,-4706,23,-88,-39,37
715,-15162,-12,804,-4704,23,-86,-35,36
716,-15150,28,758,-4697,23,-87,-37,33
717,-15158,-30,788,-4701,23,-83,-38,36
718,-15144,-4,694,-4708,23,-89,-39,36
719,-15174,-78,712,-4696,23,-89,-37,36
720,-15188,-10,700,-4705,23,-89,-39,34
721,-15164,32,738,-4708,23,-89,-37,33
722,-15116,-36,764,-4705,23,-87,-36,36
723,-15154,24,792,-4707,23,-89,-37,33
724,-15238,-70,730,-4696,23,-87,-39,38
725,-15156,-2,800,-4697,23,-86,-38,35
726,-15140,-12,744,-4703,23,-89,-38,35
727,-15134,4,828,-4705,23,-88,-41,37
728,-15140,-38,802,-4708,23,-89,-36,31
729,-15172,16,642,-4708,23,-84,-38,36
730,-15154,4,690,-4699,23,-89,-39,35
731,-15194,0,728,-4706,23,-84,-37,38
732,-15196,-6,762,-4705,23,-88,-40,32
733,-15092,-4,712,-4702,23,-87,-42,35
734,-15156,-68,680,-4711,23,-87,-38,33
735,-15138,2,786,-4704,23,-86,-35,33
736,-15154,-36,820,-4715,23,-87,-40,35
737,-15146,24,856,-4706,23,-87,-38,34
738,-15142,82,748,-4698,23,-86,-38,34
739,-15158,-34,758,-4716,23,-85,-39,34
740,-15158,30,722,-4698,23,-86,-42,35
741,-15206,10,730,-4705,23,-86,-41,38
742,-15148,-26,652,-4701,23,-83,-37,32
743,-15106,-16,686,-4697,23,-88,-41,35
744,-15218,42,722,-4710,23,-89,-41,35
745,-15198,8,762,-4706,23,-89,-37,37
746,-15216,-76,718,-4704,23,-88,-36,33
747,-15120,-92,658,-4705,23,-86,-39,33
748,-15204,-48,714,-4698,23,-86,-39,36
749,-15122,-8,672,-4702,23,-84,-39,36
750,-15204,-14,710,-4703,23,-88,-41,33
751,-15150,-14,780,-4701,23,-84,-38,35
752,-15182,2,790,-4706,23,-87,-37,33
753,-15106,14,834,-4708,23,-87,-44,32
754,-15186,-28,712,-4704,23,-89,-38,37
755,-15152,-90,770,-4700,23,-84,-41,33
756,-15184,-36,660,-4704,23,-89,-40,34
757,-15114,-34,692,-4698,23,-90,-43,37
758,-15148,4,806,-4700,23,-89,-39,37
759,-15160,-10,774,-4702,23,-85,-38,33
760,-15192,-6,758,-4694,23,-87,-39,35
761,-15164,-64,778,-4711,23,-86,-36,34
762,-15160,14,780,-4699,23,-87,-36,33
763,-15144,48,750,-4699,23,-84,-38,35
764,-15104,-20,832,-4701,23,-88,-42,37
765,-15166,-26,760,-4698,23,-88,-40,36
766,-15156,26,778,-4708,23,-89,-42,34
767,-15182,-22,810,-4696,23,-86,-37,34
768,-15130,-38,670,-4697,23,-88,-37,35
769,-15176,-4,804,-4699,23,-88,-39,36
770,-15110,26,694,-4703,23,-88,-40,33
771,-15110,-26,776,-4705,23,-86,-37,36
772,-15172,-38,594,-4705,23,-89,-36,32
773,-15146,-96,700,-4699,23,-88,-37,35
774,-15084,12,752,-4700,23,-88,-37,35
775,-15124,10,816,-4694,23,-88,-37,32
776,-15158,-40,720,-4699,23,-89,-37,34
777,-15180,20,754,-4693,23,-85,-41,34
778,-15194,-34,702,-4699,23,-88,-40,36
779,-15140,-16,736,-4697,23,-92,-40,33
780,-15184,32,744,-4707,23,-87,-36,32
781,-15142,16,726,-4708,23,-85,-35,33
782,-15166,16,824,-4697,23,-89,-41,33
783,-15138,20,824,-4704,23,-84,-36,33
784,-15190,-52,766,-4706,23,-84,-41,32
785,-15150,38,790,-4702,23,-84,-40,33
786,-15126,-72,682,-4697,23,-89,-40,34
787,-15192,12,714,-4703,23,-87,-35,34
788,-15164,-36,690,-4704,23,-84,-37,34
789,-15202,-28,678,-4692,23,-91,-38,35
790,-15144,8,744,-4710,23,-87,-37,36
791,-15164,8,808,-4703,23,-85,-41,36
792,-15214,-6,760,-4699,23,-86,-39,37
793,-15122,-78,754,-4701,23,-85,-38,36
794,-15132,-6,776,-4701,23,-85,-42,35
795,-15130,38,800,-4698,23,-86,-42,35
796,-15164,-6,768,-4698,23,-90,-36,34
797,-15158,24,780,-4695,23,-87,-37,34
798,-15134,60,786,-4708,23,-88,-35,37
799,-15126,-50,784,-4695,23,-85,-43,37
800,-15172,-68,730,-4685,23,-88,-36,37
801,-15160,18,692,-4709,23,-88,-36,36
802,-15162,-12,700,-4707,23,-89,-39,35
803,-15098,-56,726,-4699,23,-88,-36,32
804,-15148,-18,788,-4701,23,-91,-37,33
805,-15156,10,720,-4699,23,-84,-42,33
806,-15138,-10,682,-4705,23,-88,-38,35
807,-15150,6,744,-4694,23,-86,-36,33
808,-15172,-4,794,-4707,23,-87,-41,34
809,-15170,36,766,-4695,23,-86,-41,31
810,-15198,-28,750,-4697,23,-86,-34,38
811,-15116,-50,774,-4708,23,-87,-41,34
812,-15112,-30,740,-4709,23,-85,-37,32
813,-15118,-10,772,-4693,23,-86,-38,35
814,-15134,-44,770,-4686,23,-87,-37,35
815,-15094,-38,762,-4702,23,-86,-38,33
816,-15106,-26,786,-4703,23,-86,-38,34
817,-15102,-24,798,-4691,23,-91,-39,35
818,-15140,-34,818,-4692,23,-87,-40,35
819,-15146,-8,734,-4698,23,-89,-37,38
820,-15162,4,852,-4695,23,-89,-40,38
821,-15148,-16,656,-4696,23,-88,-38,35
822,-15150,30,776,-4691,23,-87,-37,35
823,-15174,-44,704,-4699,23,-85,-37,33
824,-15088,-60,760,-4699,23,-88,-40,36
825,-15202,20,718,-4693,23,-87,-42,35
826,-15240,-34,776,-4687,23,-87,-41,34
827,-15134,-4,684,-4707,23,-88,-38,34
828,-15130,-38,850,-4712,23,-88,-38,36
829,-15182,0,758,-4699,23,-89,-38,35
830,-15150,-30,780,-4705,23,-84,-42,34
831,-15176,-8,806,-4700,23,-86,-38,33
832,-15146,32,792,-4684,23,-88,-37,34
833,-15148,-26,694,-4702,23,-87,-39,30
834,-15182,4,754,-4703,23,-87,-36,33
835,-15190,-20,736,-4698,23,-86,-37,31
836,-15142,-32,758,-4699,23,-87,-38,33
837,-15196,-24,760,-4703,23,-89,-39,32
838,-15178,-6,730,-4688,23,-90,-40,35
839,-15150,-30,622,-4698,23,-91,-37,35
840,-15128,-10,722,-4702,23,-84,-33,36
841,-15166,-6,766,-4699,23,-89,-38,34
842,-15130,-18,740,-4691,23,-89,-41,32
843,-15116,-10,826,-4706,23,-88,-42,37
844,-15170,-46,780,-4697,23,-88,-41,35
845,-15144,-14,728,-4705,23,-86,-40,32
846,-15142,12,762,-4698,23,-88,-40,36
847,-15150,10,760,-4698,23,-88,-39,33
848,-15130,-52,780,-4699,23,-88,-40,34
849,-15186,20,838,-4704,23,-88,-39,34
850,-15168,-36,684,-4707,23,-87,-36,34
851,-15122,-44,680,-4702,23,-88,-42,38
852,-15148,-28,848,-4706,23,-90,-42,37
853,-15088,30,688,-4696,23,-85,-36,35
854,-15120,-28,782,-4703,23,-86,-38,33
855,-15136,-42,742,-4696,23,-89,-44,35
856,-15076,-62,760,-4698,23,-88,-40,35
857,-15126,-14,656,-4698,23,-87,-39,36
858,-15150,26,768,-4708,23,-88,-38,34
859,-15168,-60,736,-4695,23,-88,-36,35
860,-15170,-12,736,-4687,23,-86,-39,32
861,-15166,0,698,-4706,23,-87,-36,33
862,-15186,80,752,-4703,23,-88,-37,34
863,-15138,-38,724,-4694,23,-86,-38,34
864,-15106,-70,698,-4697,23,-88,-38,34
865,-15168,-50,860,-4698,23,-85,-39,33
866,-15134,-52,634,-4717,23,-86,-40,33
867,-15142,-6,686,-4698,23,-87,-38,32
868,-15150,-58,818,-4692,23,-86,-37,33
869,-15140,-22,694,-4696,23,-87,-39,34
870,-15126,38,756,-4709,23,-87,-38,32
871,-15178,28,766,-4694,23,-90,-38,35
872,-15174,-16,736,-4703,23,-88,-40,35
873,-15098,-12,748,-4703,23,-86,-40,35
874,-15134,16,724,-4700,23,-92,-37,36
875,-15178,-30,790,-4702,23,-88,-35,32
876,-15130,-32,758,-4701,23,-90,-37,32
877,-15130,26,742,-4689,23,-85,-39,34
878,-15138,-6,736,-4702,23,-87,-37,30
879,-15150,-76,742,-4708,23,-85,-40,36
880,-15168,-28,792,-4699,23,-88,-35,36
881,-15132,-28,726,-4704,23,-88,-39,33
882,-15176,-2,794,-4694,23,-91,-40,34
883,-15148,-50,748,-4699,23,-87,-38,31
884,-15132,-10,820,-4713,23,-86,-43,36
885,-15158,-32,772,-4714,23,-87,-41,34
886,-15088,-16,702,-4697,23,-88,-39,35
887,-15206,-54,732,-4706,23,-88,-40,34
888,-15176,-4,828,-4696,23,-85,-38,34
889,-15134,8,712,-4702,23,-87,-36,35
890,-15148,-14,708,-4707,23,-86,-40,34
891,-15134,12,770,-4704,23,-85,-34,36
892,-15190,-12,782,-4709,23,-90,-35,36
893,-15148,2,800,-4702,23,-88,-37,35
894,-15156,-88,724,-4705,23,-85,-41,34
895,-15172,-38,764,-4700,23,-83,-39,36
896,-15152,-8,742,-4706,23,-88,-34,33
897,-15128,-42,784,-4702,23,-90,-40,33
898,-15120,-34,764,-4704,23,-88,-40,33
899,-15196,-16,706,-4699,23,-84,-39,33
900,-15156,-24,732,-4700,23,-88,-37,33
901,-15166,26,774,-4688,23,-86,-37,35
902,-15168,30,754,-4697,23,-88,-36,35
903,-15192,-32,720,-4705,23,-88,-43,35
904,-15204,4,826,-4704,23,-89,-38,32
905,-15200,-40,674,-4701,23,-88,-41,33
906,-15210,-18,732,-4692,23,-87,-39,38
907,-15120,-10,742,-4701,23,-88,-39,35
908,-15198,-44,682,-4700,23,-87,-36,33
909,-15178,16,724,-4695,23,-90,-37,36
910,-15210,-8,748,-4707,23,-91,-38,36
911,-15112,28,712,-4704,23,-91,-40,33
912,-15122,18,696,-4693,23,-88,-37,35
913,-15102,-12,760,-4706,23,-84,-39,32
914,-15200,28,694,-4707,23,-91,-42,36
915,-15122,34,688,-4693,23,-86,-42,34
916,-15132,-50,692,-4705,23,-89,-38,36
917,-15170,-50,638,-4702,23,-88,-40,34
918,-15172,10,860,-4704,23,-88,-39,32
919,-15108,-8,764,-4695,23,-88,-40,37
920,-15224,-42,704,-4706,23,-85,-38,35
921,-15130,-22,782,-4704,23,-93,-35,34
922,-15220,-12,696,-4715,23,-87,-38,33
923,-15232,20,766,-4706,23,-88,-40,35
924,-15214,-86,792,-4705,23,-88,-38,32
925,-15150,-20,690,-4702,23,-87,-38,34
926,-15214,-72,710,-4713,23,-85,-40,37
927,-15138,-50,752,-4696,23,-88,-41,36
928,-15144,-58,792,-4698,23,-89,-37,34
929,-15106,32,736,-4703,23,-87,-38,36
930,-15108,-56,768,-4702,23,-88,-37,31
931,-15190,-16,738,-4693,23,-88,-37,34
932,-15156,-24,790,-4703,23,-88,-40,36
933,-15096,-28,748,-4698,23,-87,-38,35
934,-15134,-40,758,-4707,23,-88,-37,37
935,-15118,-36,790,-4693,23,-86,-42,32
936,-15148,42,738,-4699,23,-84,-41,33
937,-15172,-18,810,-4699,23,-86,-38,35
938,-15170,30,796,-4701,23,-86,-37,39
939,-15204,22,662,-4696,23,-87,-38,35
940,-15156,-68,766,-4698,23,-87,-37,35
941,-15126,-26,684,-4703,23,-85,-37,37
942,-15126,-16,692,-4703,23,-88,-42,33
943,-15132,12,722,-4697,23,-88,-41,33
944,-15138,-30,734,-4690,23,-87,-40,36
945,-15144,-8,820,-4690,23,-83,-38,33
946,-15096,50,710,-4692,23,-86,-38,33
947,-15158,-28,670,-4703,23,-87,-38,35
948,-15190,-6,718,-4702,23,-86,-38,34
949,-15228,58,780,-4698,23,-83,-36,31
950,-15168,42,726,-4705,23,-87,-36,34
951,-15160,-16,794,-4693,23,-88,-34,33
952,-15190,60,700,-4706,23,-85,-39,34
953,-15190,-28,712,-4707,23,-85,-40,32
954,-15152,-46,802,-4703,23,-88,-38,32
955,-15138,-4,744,-4709,23,-90,-38,36
956,-15158,-12,708,-4706,23,-87,-36,37
957,-15138,-14,752,-4706,23,-82,-38,36
958,-15172,-22,690,-4702,23,-87,-37,37
959,-15194,-24,834,-4700,23,-86,-41,33
960,-15192,4,792,-4702,23,-83,-37,35
961,-15136,-52,734,-4701,23,-87,-38,34
962,-15148,-16,726,-4695,23,-84,-38,37
963,-15142,-20,712,-4695,23,-90,-38,33
964,-15128,10,776,-4706,23,-87,-40,36
965,-15138,16,790,-4697,23,-89,-37,35
966,-15112,28,744,-4702,23,-85,-36,30
967,-15132,16,776,-4696,23,-85,-38,37
968,-15184,-30,726,-4695,23,-86,-39,34
969,-15200,26,708,-4704,23,-86,-39,34
970,-15120,-36,814,-4700,23,-87,-36,35
971,-15204,16,776,-4696,23,-89,-39,35
972,-15198,42,692,-4697,23,-85,-36,35
973,-15116,-56,686,-4688,23,-88,-39,33
974,-15120,-4,764,-4694,23,-88,-39,39
975,-15176,-40,722,-4712,23,-88,-38,37
976,-15166,32,754,-4709,23,-86,-39,36
977,-15096,-50,608,-4697,23,-87,-40,37
978,-15192,46,800,-4697,23,-88,-40,32
979,-15176,22,814,-4693,23,-88,-40,34
980,-15182,-30,784,-4700,23,-87,-37,34
981,-15138,-56,690,-4694,23,-86,-37,34
982,-15130,2,778,-4700,23,-84,-41,34
983,-15144,-54,744,-4696,23,-85,-40,38
984,-15162,-8,740,-4689,23,-83,-42,33
985,-15160,-20,738,-4700,23,-88,-41,35
986,-15096,-36,726,-4707,23,-88,-36,34
987,-15128,-26,764,-4691,23,-87,-35,32
988,-15190,-54,756,-4696,23,-89,-42,38
989,-15180,6,766,-4701,23,-88,-41,33
990,-15136,24,688,-4690,23,-86,-39,37
991,-15158,4,718,-4709,23,-87,-36,33
992,-15190,-20,746,-4687,23,-87,-36,35
993,-15164,38,678,-4691,23,-87,-34,33
994,-15088,6,728,-4700,23,-85,-38,34
995,-15144,8,756,-4697,23,-89,-37,31
996,-15106,34,732,-4709,23,-89,-38,36
997,-15138,-66,740,-4698,23,-88,-35,34
998,-15158,20,676,-4696,23,-89,-39,34
