,acc_X,acc_Y,acc_Z,temp,tempC,gyr_X,gyr_Y,gyr_Z
0,-15172,-6,748,-4900,22,-44,-19,17
1,-15172,-6,740,-4900,22,-44,-19,17
2,-15174,0,746,-4901,22,-44,-19,17
3,-15172,10,750,-4901,22,-43,-19,17
4,-15172,6,742,-4900,22,-44,-19,17
5,-15170,-6,748,-4900,22,-44,-19,17
6,-15170,6,746,-4902,22,-44,-19,17
7,-15164,6,742,-4900,22,-44,-19,17
8,-15166,2,746,-4900,22,-44,-19,17
9,-15156,0,746,-4900,22,-44,-19,17
10,-15148,-10,746,-4901,22,-44,-19,17
11,-15152,-4,740,-4900,22,-44,-19,17
12,-15158,-10,748,-4899,22,-44,-19,17
13,-15154,-18,736,-4898,22,-44,-19,17
14,-15162,-18,732,-4896,22,-43,-19,17
15,-15158,-20,738,-4897,22,-44,-20,17
16,-15156,-18,734,-4896,22,-44,-20,17
17,-15152,-14,738,-4896,22,-44,-20,17
18,-15152,-16,742,-4896,22,-44,-20,17
19,-15156,-16,730,-4895,22,-44,-19,17
20,-15162,-14,734,-4894,22,-44,-19,17
21,-15162,-14,738,-4894,22,-44,-20,17
22,-15156,-12,750,-4894,22,-44,-20,17
23,-15162,-2,758,-4893,22,-44,-20,17
24,-15164,4,762,-4891,22,-44,-20,17
25,-15160,6,774,-4891,22,-44,-20,17
26,-15154,2,782,-4892,22,-44,-20,17
27,-15154,-4,774,-4892,22,-44,-20,17
28,-15150,-4,766,-4892,22,-44,-20,17
29,-15148,-8,756,-4893,22,-44,-20,17
30,-15142,-10,740,-4893,22,-44,-20,17
31,-15148,-12,746,-4892,22,-43,-20,17
32,-15156,-10,750,-4890,22,-43,-20,18
33,-15158,-8,746,-4890,22,-44,-20,17
34,-15168,-8,744,-4890,22,-44,-19,18
35,-15162,-10,748,-4891,22,-44,-19,17
36,-15154,-12,740,-4891,22,-44,-20,17
37,-15148,-4,744,-4891,22,-44,-20,17
38,-15158,-8,736,-4890,22,-44,-20,17
39,-15152,-4,742,-4889,22,-44,-20,17
40,-15148,-4,732,-4889,22,-44,-19,17
41,-15146,-12,736,-4890,22,-44,-19,17
42,-15142,-6,742,-4891,22,-44,-19,17
43,-15144,-2,748,-4888,22,-43,-19,17
44,-15146,-8,756,-4887,22,-44,-19,17
45,-15154,-12,750,-4887,22,-44,-19,17
46,-15150,4,742,-4884,22,-44,-19,17
47,-15158,-2,748,-4886,22,-44,-19,17
48,-15154,-6,742,-4887,22,-44,-19,17
49,-15154,-8,746,-4887,22,-44,-19,17
50,-15150,-10,740,-4887,22,-44,-19,17
51,-15160,-8,758,-4887,22,-44,-19,17
52,-15164,-6,752,-4888,22,-44,-19,17
53,-15168,-14,748,-4887,22,-44,-19,17
54,-15166,-18,752,-4883,22,-44,-19,17
55,-15170,-18,740,-4883,22,-44,-19,17
56,-15174,-8,738,-4884,22,-44,-19,17
57,-15180,-2,746,-4885,22,-44,-19,17
58,-15170,0,742,-4883,22,-43,-20,17
59,-15154,-6,726,-4884,22,-44,-19,17
60,-15154,-14,730,-4883,22,-43,-19,17
61,-15154,-14,716,-4883,22,-43,-19,17
62,-15154,-18,724,-4883,22,-43,-19,17
63,-15152,-6,724,-4881,22,-43,-19,17
64,-15144,-4,742,-4879,22,-43,-19,17
65,-15142,-12,736,-4879,22,-43,-19,17
66,-15138,-4,736,-4880,22,-44,-19,17
67,-15140,0,738,-4879,22,-43,-19,17
68,-15146,4,742,-4880,22,-43,-19,17
69,-15140,-4,742,-4879,22,-43,-19,17
70,-15142,0,740,-4878,22,-43,-19,17
71,-15144,6,742,-4877,22,-43,-19,17
72,-15142,12,742,-4876,22,-44,-19,17
73,-15140,6,752,-4875,22,-44,-19,17
74,-15136,2,746,-4874,22,-44,-19,17
75,-15146,4,748,-4874,22,-44,-19,17
76,-15148,0,742,-4873,22,-44,-19,17
77,-15140,0,748,-4873,22,-44,-20,17
78,-15138,-4,748,-4874,22,-44,-20,17
79,-15140,-2,748,-4873,22,-44,-20,17
80,-15142,0,742,-4874,22,-43,-20,17
81,-15148,4,744,-4875,22,-44,-20,17
82,-15138,6,752,-4875,22,-44,-20,17
83,-15126,18,752,-4875,22,-44,-20,17
84,-15136,18,764,-4875,22,-43,-20,17
85,-15144,18,752,-4874,22,-44,-20,17
86,-15156,16,758,-4873,22,-43,-20,17
87,-15160,16,756,-4871,22,-43,-20,18
88,-15152,14,758,-4872,22,-43,-20,18
89,-15154,8,764,-4872,22,-44,-20,17
90,-15152,8,756,-4872,22,-44,-20,17
91,-15146,10,740,-4873,22,-44,-19,17
92,-15152,10,750,-4873,22,-44,-20,17
93,-15150,8,752,-4870,22,-44,-20,17
94,-15158,-6,750,-4870,22,-44,-19,17
95,-15158,-8,750,-4870,22,-44,-19,17
96,-15160,-12,754,-4870,22,-43,-19,17
97,-15148,-6,748,-4870,22,-44,-19,17
98,-15150,-10,744,-4870,22,-44,-19,17
99,-15148,-6,762,-4870,22,-44,-19,17
100,-15138,-6,768,-4870,22,-44,-19,17
101,-15144,-6,748,-4869,22,-44,-19,17
102,-15154,-10,746,-4870,22,-44,-19,17
103,-15150,-16,744,-4869,22,-44,-19,17
104,-15148,-22,752,-4871,22,-44,-19,17
105,-15148,-14,736,-4870,22,-43,-19,17
106,-15146,-12,744,-4871,22,-43,-19,17
107,-15152,-8,748,-4871,22,-44,-19,17
108,-15160,-4,752,-4868,22,-44,-19,17
109,-15164,-8,744,-4870,22,-44,-19,17
110,-15164,-4,746,-4869,22,-44,-19,17
111,-15162,-8,744,-4866,22,-44,-20,17
112,-15158,-8,742,-4869,22,-44,-20,17
113,-15168,-14,734,-4870,22,-44,-20,17
114,-15170,-6,738,-4869,22,-44,-20,17
115,-15160,-20,738,-4867,22,-44,-20,17
116,-15160,-12,756,-4867,22,-44,-20,17
117,-15158,0,752,-4867,22,-44,-19,17
118,-15160,4,754,-4868,22,-44,-19,17
119,-15156,12,762,-4869,22,-43,-19,17
120,-15150,2,750,-4869,22,-43,-19,17
121,-15146,0,756,-4870,22,-43,-20,17
122,-15142,-6,768,-4868,22,-43,-19,17
123,-15146,-4,756,-4867,22,-43,-19,17
124,-15156,-10,752,-4867,22,-43,-19,18
125,-15154,-12,742,-4867,22,-43,-20,18
126,-15150,-6,730,-4867,22,-43,-19,17
127,-15158,0,718,-4868,22,-43,-19,17
128,-15164,-4,710,-4867,22,-43,-19,17
129,-15166,-2,720,-4867,22,-44,-19,17
130,-15164,0,726,-4866,22,-44,-19,17
131,-15166,-2,732,-4868,22,-44,-19,17
132,-15162,2,726,-4869,22,-43,-19,17
133,-15150,-8,728,-4869,22,-44,-19,17
134,-15150,-6,726,-4867,22,-44,-19,17
135,-15150,-10,722,-4867,22,-44,-19,17
136,-15154,-8,712,-4868,22,-43,-19,17
137,-15152,-8,716,-4866,22,-44,-19,17
138,-15158,-10,728,-4866,22,-43,-19,17
139,-15158,-4,724,-4867,22,-43,-19,17
140,-15158,-8,734,-4867,22,-43,-19,17
141,-15168,-14,740,-4864,22,-43,-19,17
142,-15164,-2,734,-4865,22,-43,-20,17
143,-15152,4,744,-4865,22,-43,-19,17
144,-15168,2,726,-4864,22,-43,-20,17
145,-15168,2,728,-4865,22,-44,-19,16
146,-15168,6,722,-4864,22,-44,-20,17
147,-15158,-6,732,-4865,22,-44,-20,17
148,-15160,-8,740,-4864,22,-43,-20,17
149,-15164,-2,730,-4864,22,-44,-20,17
150,-15170,-4,724,-4864,22,-44,-20,17
151,-15160,-2,730,-4862,22,-44,-19,17
152,-15154,4,726,-4862,22,-44,-20,16
153,-15166,0,724,-4863,22,-44,-20,16
154,-15172,-6,724,-4862,22,-44,-20,17
155,-15166,-4,728,-4862,22,-43,-20,17
156,-15158,-10,736,-4863,22,-43,-19,17
157,-15160,-2,742,-4863,22,-43,-19,17
158,-15156,6,756,-4861,22,-43,-19,17
159,-15158,-2,740,-4860,22,-43,-19,17
160,-15148,-12,732,-4859,22,-43,-19,17
161,-15152,4,738,-4859,22,-43,-19,16
162,-15146,-2,748,-4860,22,-43,-19,17
163,-15140,-4,748,-4860,22,-43,-19,17
164,-15146,0,742,-4861,22,-43,-19,17
165,-15154,-2,732,-4859,22,-44,-19,17
166,-15162,-6,724,-4859,22,-44,-19,17
167,-15166,-12,728,-4860,22,-44,-20,17
168,-15158,-16,728,-4858,22,-44,-19,16
169,-15152,-8,734,-4858,22,-44,-19,16
170,-15158,-28,750,-4857,22,-44,-19,17
171,-15152,-26,768,-4857,22,-44,-19,17
172,-15152,-24,760,-4857,22,-44,-19,17
173,-15156,-18,754,-4856,22,-44,-19,17
174,-15154,-12,748,-4856,22,-44,-19,17
175,-15158,-8,768,-4856,22,-44,-20,17
176,-15158,-12,750,-4855,22,-44,-19,17
177,-15160,-14,746,-4856,22,-44,-19,17
178,-15152,-10,732,-4856,22,-44,-19,17
179,-15158,-14,742,-4855,22,-44,-19,17
180,-15162,-16,756,-4856,22,-44,-19,17
181,-15160,-14,742,-4856,22,-43,-19,17
182,-15160,-14,742,-4856,22,-44,-19,17
183,-15162,-14,730,-4858,22,-43,-19,17
184,-15162,-12,724,-4859,22,-43,-19,17
185,-15148,-18,736,-4859,22,-43,-19,17
186,-15144,-14,734,-4857,22,-44,-19,17
187,-15148,-12,744,-4859,22,-43,-19,17
188,-15146,-6,738,-4857,22,-43,-19,17
189,-15154,-12,724,-4857,22,-43,-19,17
190,-15158,-16,734,-4855,22,-43,-19,17
191,-15160,-24,728,-4856,22,-43,-19,17
192,-15162,-16,722,-4855,22,-43,-19,17
193,-15148,-16,722,-4855,22,-43,-19,17
194,-15146,-10,744,-4855,22,-44,-20,17
195,-15144,-10,750,-4853,22,-43,-20,17
196,-15154,-12,762,-4855,22,-43,-20,17
197,-15158,-4,772,-4856,22,-43,-20,17
198,-15156,-14,772,-4855,22,-43,-19,17
199,-15160,-10,764,-4854,22,-43,-19,17
200,-15164,-14,768,-4853,22,-43,-19,17
201,-15160,-18,748,-4854,22,-43,-19,17
202,-15152,-10,744,-4853,22,-43,-19,17
203,-15150,-16,746,-4852,22,-43,-19,17
204,-15158,-12,756,-4851,22,-43,-19,17
205,-15166,-12,762,-4852,22,-43,-19,17
206,-15162,-14,754,-4851,22,-43,-19,17
207,-15156,-14,754,-4853,22,-44,-19,16
208,-15152,-14,748,-4854,22,-44,-19,16
209,-15154,-16,740,-4854,22,-43,-19,17
210,-15154,-18,748,-4854,22,-43,-20,17
211,-15154,-4,756,-4853,22,-43,-19,17
212,-15156,2,750,-4854,22,-43,-19,17
213,-15166,-4,744,-4852,22,-44,-19,17
214,-15160,0,734,-4849,22,-43,-19,17
215,-15154,-4,744,-4850,22,-43,-19,17
216,-15152,-10,748,-4852,22,-43,-19,16
217,-15156,-6,730,-4851,22,-43,-19,17
218,-15154,-12,730,-4851,22,-43,-19,17
219,-15154,-16,732,-4851,22,-44,-20,16
220,-15152,-12,730,-4850,22,-43,-19,17
221,-15152,-18,724,-4851,22,-44,-19,17
222,-15154,-10,730,-4851,22,-44,-20,17
223,-15146,-4,730,-4850,22,-43,-20,17
224,-15158,-12,746,-4851,22,-43,-19,17
225,-15146,-18,756,-4850,22,-43,-19,17
226,-15152,-14,748,-4851,22,-43,-20,17
227,-15158,-8,750,-4849,22,-43,-20,17
228,-15154,-12,748,-4849,22,-44,-20,17
229,-15164,-12,756,-4850,22,-43,-19,17
230,-15164,-12,748,-4851,22,-43,-20,17
231,-15158,-12,756,-4850,22,-43,-20,17
232,-15154,-16,750,-4850,22,-43,-20,17
233,-15148,-18,724,-4851,22,-44,-20,17
234,-15152,-24,734,-4851,22,-44,-20,17
235,-15156,-24,736,-4850,22,-44,-20,17
236,-15162,-18,728,-4849,22,-44,-20,17
237,-15168,-24,736,-4849,22,-43,-20,17
238,-15168,-20,738,-4848,22,-44,-19,17
239,-15170,-16,740,-4848,22,-44,-19,17
240,-15170,-16,734,-4847,22,-44,-19,17
241,-15174,-14,738,-4846,22,-44,-19,17
242,-15178,-12,736,-4848,22,-44,-20,17
243,-15178,-18,740,-4848,22,-43,-20,17
244,-15172,-16,738,-4845,22,-43,-19,17
245,-15158,-12,734,-4848,22,-43,-19,17
246,-15158,-12,726,-4847,22,-43,-19,17
247,-15162,-16,726,-4848,22,-43,-20,17
248,-15160,-22,726,-4848,22,-43,-20,17
249,-15164,-22,730,-4849,22,-43,-20,17
250,-15170,-22,730,-4848,22,-43,-20,17
251,-15168,-24,734,-4848,22,-44,-20,17
252,-15168,-20,742,-4847,22,-43,-20,17
253,-15156,-14,736,-4847,22,-44,-19,17
254,-15154,-14,742,-4847,22,-44,-19,17
255,-15144,-22,730,-4848,22,-43,-19,17
256,-15150,-18,738,-4847,22,-43,-19,17
257,-15154,-16,756,-4846,22,-44,-19,17
258,-15156,-24,754,-4846,22,-43,-19,17
259,-15152,-18,770,-4846,22,-43,-19,17
260,-15154,-6,776,-4847,22,-44,-19,17
261,-15156,-4,760,-4848,22,-44,-19,17
262,-15158,-4,758,-4848,22,-44,-19,17
263,-15168,0,756,-4847,22,-44,-19,17
264,-15152,0,750,-4847,22,-44,-20,17
265,-15160,-8,742,-4848,22,-44,-19,17
266,-15150,-4,750,-4848,22,-44,-19,17
267,-15144,2,750,-4848,22,-44,-19,17
268,-15154,-2,734,-4848,22,-44,-19,17
269,-15154,0,726,-4848,22,-44,-19,17
270,-15158,-10,722,-4848,22,-44,-19,17
271,-15164,-6,720,-4847,22,-43,-20,17
272,-15164,-14,728,-4845,22,-44,-20,17
273,-15162,-14,736,-4843,22,-44,-20,17
274,-15170,-8,740,-4842,22,-44,-20,17
275,-15158,-4,718,-4844,22,-44,-20,17
276,-15148,4,718,-4845,22,-44,-20,17
277,-15150,6,724,-4845,22,-44,-20,17
278,-15144,6,730,-4844,22,-44,-20,17
279,-15146,-8,742,-4844,22,-44,-20,17
280,-15142,-10,748,-4846,22,-44,-20,17
281,-15140,-16,742,-4845,22,-44,-20,17
282,-15144,-10,750,-4846,22,-44,-20,17
283,-15146,-2,748,-4845,22,-43,-20,17
284,-15148,-6,740,-4843,22,-44,-20,17
285,-15146,-6,724,-4843,22,-44,-20,17
286,-15156,-20,736,-4842,22,-44,-19,17
287,-15154,-16,732,-4841,22,-43,-20,17
288,-15152,-12,742,-4842,22,-43,-20,17
289,-15168,-4,736,-4842,22,-44,-20,17
290,-15162,-4,738,-4845,22,-44,-19,16
291,-15156,-8,718,-4844,22,-43,-20,16
292,-15154,-10,730,-4845,22,-43,-20,16
293,-15156,-10,752,-4845,22,-43,-20,17
294,-15152,-14,742,-4842,22,-44,-20,17
295,-15154,-12,742,-4843,22,-44,-20,17
296,-15158,-16,734,-4843,22,-44,-20,17
297,-15162,-8,732,-4843,22,-44,-19,17
298,-15168,4,728,-4843,22,-44,-19,17
299,-15180,-6,740,-4841,22,-44,-19,17
300,-15174,-8,736,-4840,22,-44,-19,17
301,-15172,-10,738,-4840,22,-44,-19,17
302,-15168,-16,746,-4841,22,-44,-20,17
303,-15158,-12,752,-4840,22,-44,-20,17
304,-15160,-16,738,-4840,22,-44,-20,17
305,-15154,-22,738,-4841,22,-44,-20,17
306,-15154,-18,738,-4842,22,-44,-20,17
307,-15152,-24,744,-4841,22,-44,-20,17
308,-15156,-28,748,-4841,22,-44,-20,17
309,-15154,-20,758,-4841,22,-43,-20,17
310,-15160,-12,752,-4840,22,-43,-20,17
311,-15154,-10,746,-4841,22,-44,-20,17
312,-15154,-8,742,-4841,22,-44,-19,17
313,-15150,-4,744,-4838,22,-44,-20,17
314,-15138,-8,746,-4838,22,-44,-20,17
315,-15134,-4,750,-4840,22,-44,-20,17
316,-15152,2,750,-4839,22,-43,-20,16
317,-15158,-2,752,-4840,22,-43,-19,16
318,-15162,-10,760,-4841,22,-44,-19,17
319,-15162,-8,756,-4841,22,-44,-19,17
320,-15168,-10,746,-4839,22,-44,-20,17
321,-15172,-10,740,-4842,22,-44,-19,17
322,-15176,-12,724,-4842,22,-44,-19,17
323,-15170,-12,716,-4841,22,-44,-19,17
324,-15160,-8,716,-4842,22,-44,-20,17
325,-15152,-18,716,-4842,22,-44,-20,17
326,-15172,-22,728,-4844,22,-44,-20,17
327,-15164,-20,738,-4844,22,-44,-20,17
328,-15164,-26,738,-4842,22,-44,-20,17
329,-15166,-20,740,-4842,22,-44,-20,17
330,-15164,-20,758,-4841,22,-44,-19,17
331,-15160,-24,754,-4840,22,-44,-19,17
332,-15156,-18,750,-4839,22,-44,-19,17
333,-15152,-24,744,-4839,22,-44,-19,17
334,-15160,-22,728,-4838,22,-44,-19,17
335,-15162,-26,714,-4838,22,-44,-19,17
336,-15162,-28,720,-4839,22,-44,-19,17
337,-15160,-20,714,-4839,22,-44,-19,17
338,-15172,-10,720,-4838,22,-44,-19,17
339,-15168,-6,732,-4837,22,-44,-19,17
340,-15168,-8,738,-4837,22,-44,-19,17
341,-15156,-6,758,-4835,22,-44,-19,17
342,-15164,-4,748,-4836,22,-44,-20,17
343,-15166,-4,756,-4837,22,-44,-20,17
344,-15158,-6,756,-4838,22,-43,-20,17
345,-15158,-2,748,-4837,22,-43,-20,17
346,-15162,-2,750,-4837,22,-43,-20,17
347,-15158,-10,744,-4837,22,-43,-20,17
348,-15160,-14,750,-4836,22,-44,-19,16
349,-15162,-16,740,-4837,22,-44,-19,17
350,-15162,-12,732,-4837,22,-44,-19,17
351,-15160,-12,738,-4838,22,-44,-19,17
352,-15160,-12,726,-4837,22,-44,-19,17
353,-15158,-4,720,-4836,22,-44,-19,17
354,-15152,-4,722,-4837,22,-44,-20,17
355,-15162,-6,736,-4836,22,-44,-20,17
356,-15166,-8,732,-4838,22,-44,-20,17
357,-15168,-6,736,-4839,22,-44,-20,17
358,-15166,-4,732,-4837,22,-44,-20,17
359,-15154,-2,746,-4837,22,-44,-19,17
360,-15150,-12,744,-4838,22,-44,-19,17
361,-15150,-8,742,-4838,22,-44,-19,17
362,-15152,-8,754,-4836,22,-44,-19,17
363,-15154,-18,744,-4836,22,-44,-19,17
364,-15152,-8,744,-4837,22,-44,-19,17
365,-15154,-4,746,-4836,22,-44,-19,17
366,-15152,-4,746,-4836,22,-44,-19,17
367,-15148,-10,758,-4837,22,-44,-20,17
368,-15148,-8,748,-4837,22,-44,-20,17
369,-15148,-8,744,-4837,22,-44,-20,17
370,-15156,0,748,-4835,22,-44,-20,17
371,-15162,-4,762,-4836,22,-43,-19,17
372,-15164,-8,758,-4838,22,-44,-19,17
373,-15158,-4,750,-4839,22,-44,-19,17
374,-15156,-2,750,-4839,22,-44,-20,17
375,-15154,-10,754,-4836,22,-44,-20,17
376,-15156,-14,760,-4837,22,-44,-20,17
377,-15166,-10,768,-4837,22,-44,-20,17
378,-15160,-14,766,-4836,22,-44,-20,17
379,-15156,-10,756,-4834,22,-44,-20,17
380,-15152,-8,752,-4836,22,-44,-20,17
381,-15156,-6,754,-4835,22,-44,-20,17
382,-15158,-10,758,-4835,22,-44,-20,17
383,-15158,-18,756,-4834,22,-44,-20,17
384,-15154,-14,746,-4833,22,-44,-20,17
385,-15146,-16,740,-4833,22,-44,-20,17
386,-15144,-6,736,-4833,22,-44,-20,17
387,-15152,-8,730,-4834,22,-44,-20,17
388,-15154,-6,746,-4831,22,-44,-20,17
389,-15146,-20,746,-4832,22,-43,-20,17
390,-15144,-20,736,-4832,22,-44,-20,17
391,-15144,-14,734,-4831,22,-44,-20,17
392,-15150,-18,720,-4832,22,-44,-20,17
393,-15152,-10,706,-4832,22,-44,-20,17
394,-15154,-4,708,-4833,22,-44,-20,17
395,-15162,-2,720,-4833,22,-44,-20,17
396,-15166,-6,720,-4833,22,-44,-20,17
397,-15160,-6,734,-4831,22,-44,-20,16
398,-15160,-6,728,-4831,22,-44,-20,17
399,-15158,-16,754,-4831,22,-44,-20,17
400,-15160,-24,754,-4832,22,-43,-19,17
401,-15156,-12,748,-4832,22,-43,-19,17
402,-15154,-8,748,-4831,22,-43,-19,17
403,-15152,-10,756,-4829,22,-43,-19,17
404,-15150,-18,762,-4831,22,-43,-19,17
405,-15152,-14,776,-4833,22,-44,-20,17
406,-15150,-20,768,-4834,22,-43,-19,17
407,-15152,-16,756,-4833,22,-44,-19,17
408,-15146,-16,760,-4833,22,-44,-20,17
409,-15150,-16,758,-4834,22,-44,-20,17
410,-15150,-16,742,-4833,22,-44,-20,17
411,-15146,-16,736,-4834,22,-44,-20,17
412,-15142,-10,740,-4832,22,-43,-20,17
413,-15144,-14,744,-4833,22,-44,-20,17
414,-15150,-12,744,-4833,22,-43,-20,17
415,-15146,-14,744,-4833,22,-43,-19,17
416,-15148,2,736,-4833,22,-44,-19,17
417,-15142,0,750,-4834,22,-43,-19,17
418,-15136,6,772,-4835,22,-43,-19,17
419,-15150,2,754,-4833,22,-43,-19,17
420,-15146,0,748,-4833,22,-43,-19,17
421,-15148,2,744,-4832,22,-43,-20,17
422,-15148,0,736,-4833,22,-43,-19,17
423,-15152,0,736,-4835,22,-43,-19,17
424,-15150,-4,750,-4834,22,-43,-19,17
425,-15156,2,758,-4834,22,-43,-19,17
426,-15158,-8,750,-4833,22,-44,-19,17
427,-15148,-6,752,-4834,22,-44,-19,17
428,-15144,-6,754,-4832,22,-44,-19,17
429,-15150,-8,746,-4834,22,-44,-19,17
430,-15158,-8,740,-4833,22,-44,-19,17
431,-15170,-8,752,-4833,22,-44,-19,17
432,-15166,-10,760,-4832,22,-44,-19,17
433,-15168,-6,752,-4832,22,-44,-20,17
434,-15172,-14,748,-4831,22,-44,-20,17
435,-15162,-12,746,-4831,22,-44,-20,17
436,-15160,-10,738,-4831,22,-44,-20,17
437,-15162,-4,728,-4832,22,-44,-20,17
438,-15162,-2,740,-4831,22,-43,-20,17
439,-15150,-8,744,-4832,22,-43,-20,17
440,-15152,-10,746,-4832,22,-43,-20,17
441,-15154,-6,740,-4833,22,-44,-19,17
442,-15152,-8,734,-4834,22,-44,-20,17
443,-15152,-6,732,-4832,22,-44,-20,17
444,-15150,-10,742,-4830,22,-44,-20,17
445,-15152,-6,744,-4831,22,-44,-20,17
446,-15150,-10,736,-4830,22,-44,-20,17
447,-15154,-16,730,-4828,22,-44,-20,17
448,-15158,-20,746,-4829,22,-44,-20,17
449,-15162,-24,758,-4828,22,-44,-20,17
450,-15166,-30,762,-4828,22,-44,-20,17
451,-15160,-24,752,-4827,22,-44,-20,17
452,-15160,-24,738,-4829,22,-43,-20,17
453,-15160,-22,738,-4830,22,-44,-20,17
454,-15162,-12,744,-4831,22,-44,-20,17
455,-15158,-12,754,-4831,22,-43,-20,17
456,-15164,-12,746,-4831,22,-44,-20,17
457,-15162,-10,750,-4829,22,-44,-20,17
458,-15160,-10,730,-4829,22,-44,-20,17
459,-15162,-10,730,-4829,22,-44,-20,17
460,-15164,-22,724,-4829,22,-44,-20,17
461,-15168,-16,732,-4829,22,-44,-19,16
462,-15154,-16,742,-4830,22,-44,-20,16
463,-15150,-16,734,-4832,22,-43,-20,16
464,-15148,-18,738,-4830,22,-43,-20,17
465,-15152,-18,738,-4827,22,-43,-19,16
466,-15146,-18,742,-4826,22,-43,-19,16
467,-15150,-20,752,-4826,22,-43,-20,16
468,-15152,-20,758,-4826,22,-43,-20,17
469,-15148,-16,758,-4827,22,-43,-20,17
470,-15146,-24,752,-4828,22,-43,-20,17
471,-15152,-16,750,-4828,22,-43,-20,17
472,-15144,-16,748,-4827,22,-43,-20,17
473,-15146,-12,754,-4827,22,-43,-20,16
474,-15148,-14,758,-4827,22,-43,-20,17
475,-15154,-16,740,-4826,22,-43,-20,17
476,-15158,-16,740,-4825,22,-43,-20,17
477,-15156,-8,750,-4827,22,-43,-20,17
478,-15154,-8,746,-4828,22,-43,-20,17
479,-15164,-4,746,-4829,22,-43,-20,17
480,-15162,-4,758,-4828,22,-43,-20,17
481,-15158,2,748,-4828,22,-43,-20,17
482,-15154,2,746,-4825,22,-43,-20,17
483,-15154,-4,748,-4825,22,-43,-20,17
484,-15148,4,740,-4826,22,-43,-20,17
485,-15148,6,724,-4827,22,-43,-20,17
486,-15152,4,740,-4826,22,-43,-20,17
487,-15146,4,754,-4825,22,-43,-20,17
488,-15156,-4,740,-4825,22,-44,-20,17
489,-15160,-6,738,-4825,22,-44,-20,17
490,-15154,-16,724,-4827,22,-44,-20,17
491,-15162,-20,726,-4824,22,-43,-20,17
492,-15174,-20,730,-4824,22,-44,-20,17
493,-15160,-10,740,-4824,22,-43,-19,17
494,-15168,-14,738,-4823,22,-43,-20,17
495,-15166,-6,728,-4824,22,-43,-20,17
496,-15166,-12,728,-4825,22,-43,-19,17
497,-15164,-8,718,-4825,22,-43,-20,17
498,-15154,-12,738,-4826,22,-43,-20,17
499,-15154,-28,742,-4826,22,-43,-19,17
500,-15152,-24,744,-4828,22,-43,-20,17
501,-15154,-24,738,-4829,22,-43,-19,17
502,-15154,-16,722,-4830,22,-44,-20,17
503,-15154,-8,724,-4830,22,-43,-19,17
504,-15156,-10,738,-4828,22,-43,-19,17
505,-15150,-20,732,-4829,22,-43,-19,17
506,-15144,-20,728,-4828,22,-43,-20,17
507,-15144,-20,730,-4829,22,-43,-19,17
508,-15138,-14,742,-4827,22,-43,-19,17
509,-15140,-18,750,-4828,22,-43,-19,17
510,-15146,-4,760,-4827,22,-43,-19,17
511,-15136,-16,762,-4824,22,-43,-19,16
512,-15142,-20,768,-4823,22,-43,-20,16
513,-15138,-16,752,-4823,22,-43,-20,17
514,-15140,-10,732,-4824,22,-43,-19,17
515,-15152,2,740,-4825,22,-43,-19,17
516,-15166,0,752,-4824,22,-43,-19,17
517,-15170,2,750,-4826,22,-44,-20,17
518,-15170,-2,746,-4826,22,-44,-20,17
519,-15156,2,740,-4827,22,-44,-20,17
520,-15150,4,732,-4825,22,-44,-19,17
521,-15150,4,730,-4826,22,-44,-20,17
522,-15146,6,720,-4826,22,-44,-20,17
523,-15150,-2,714,-4825,22,-44,-20,17
524,-15156,0,732,-4826,22,-44,-20,17
525,-15156,0,742,-4825,22,-44,-20,17
526,-15152,10,756,-4824,22,-44,-20,17
527,-15148,6,748,-4824,22,-44,-20,17
528,-15144,8,762,-4824,22,-44,-20,17
529,-15152,4,758,-4825,22,-44,-20,17
530,-15156,8,756,-4824,22,-44,-20,17
531,-15158,4,750,-4823,22,-44,-19,17
532,-15150,2,756,-4825,22,-44,-19,17
533,-15154,-10,744,-4824,22,-44,-19,17
534,-15152,-10,746,-4824,22,-44,-19,17
535,-15144,-8,738,-4825,22,-43,-20,17
536,-15138,-8,748,-4825,22,-43,-20,17
537,-15136,-14,732,-4824,22,-44,-20,17
538,-15154,-10,734,-4823,22,-44,-20,17
539,-15146,-10,746,-4823,22,-44,-20,17
540,-15152,-8,744,-4824,22,-44,-20,17
541,-15152,-4,758,-4824,22,-44,-20,17
542,-15154,-6,758,-4825,22,-44,-20,17
543,-15148,-6,766,-4825,22,-44,-19,17
544,-15152,-12,748,-4823,22,-44,-20,17
545,-15152,-12,744,-4823,22,-44,-20,17
546,-15146,-10,748,-4824,22,-44,-20,17
547,-15160,-16,740,-4822,22,-44,-20,17
548,-15154,-10,728,-4825,22,-44,-20,17
549,-15146,-10,728,-4825,22,-44,-20,17
550,-15146,-16,722,-4826,22,-44,-20,17
551,-15160,-14,720,-4825,22,-44,-20,17
552,-15158,-22,734,-4826,22,-44,-20,17
553,-15154,-16,728,-4828,22,-44,-20,17
554,-15156,-8,730,-4827,22,-44,-20,17
555,-15152,-12,724,-4828,22,-44,-20,17
556,-15152,-14,726,-4829,22,-44,-20,17
557,-15156,-20,726,-4827,22,-43,-20,17
558,-15152,-26,726,-4827,22,-43,-20,17
559,-15160,-22,724,-4826,22,-44,-20,17
560,-15162,-20,738,-4826,22,-44,-20,17
561,-15162,-4,744,-4826,22,-44,-20,17
562,-15158,-10,722,-4823,22,-44,-20,17
563,-15154,-2,716,-4824,22,-44,-19,17
564,-15150,-6,722,-4823,22,-43,-19,17
565,-15154,6,724,-4821,22,-44,-20,17
566,-15154,4,732,-4821,22,-43,-19,17
567,-15148,4,738,-4821,22,-43,-19,17
568,-15148,-10,742,-4822,22,-43,-19,17
569,-15148,-10,746,-4823,22,-43,-19,17
570,-15152,-10,752,-4821,22,-43,-19,17
571,-15152,-8,746,-4822,22,-43,-19,17
572,-15152,-12,762,-4822,22,-44,-19,17
573,-15156,-16,768,-4819,22,-44,-19,17
574,-15152,-8,752,-4818,22,-44,-20,17
575,-15170,2,740,-4819,22,-44,-19,17
576,-15164,0,736,-4818,22,-44,-19,17
577,-15156,-8,728,-4818,22,-43,-19,17
578,-15160,-10,738,-4817,22,-43,-20,17
579,-15160,-12,736,-4818,22,-43,-20,17
580,-15160,-6,730,-4818,22,-43,-20,17
581,-15154,-6,724,-4820,22,-43,-20,17
582,-15164,-10,728,-4821,22,-43,-20,17
583,-15158,-6,726,-4820,22,-44,-20,17
584,-15152,2,722,-4820,22,-43,-20,17
585,-15156,2,720,-4819,22,-44,-20,17
586,-15168,8,722,-4817,22,-44,-20,17
587,-15166,10,736,-4818,22,-43,-20,17
588,-15158,8,742,-4819,22,-44,-20,17
589,-15154,16,746,-4819,22,-44,-20,17
590,-15152,14,748,-4820,22,-44,-20,17
591,-15158,8,762,-4819,22,-44,-20,18
592,-15164,-2,758,-4819,22,-44,-20,17
593,-15152,0,750,-4819,22,-44,-20,17
594,-15148,0,736,-4820,22,-44,-20,17
595,-15146,2,740,-4820,22,-44,-20,17
596,-15150,-8,734,-4817,22,-44,-20,17
597,-15152,-12,742,-4817,22,-44,-20,17
598,-15152,-20,722,-4818,22,-44,-20,17
599,-15150,-24,724,-4819,22,-44,-20,17
600,-15158,-16,708,-4820,22,-44,-20,17
601,-15154,-16,716,-4822,22,-44,-20,17
602,-15160,-12,718,-4823,22,-44,-20,17
603,-15152,-14,726,-4822,22,-44,-20,17
604,-15154,-16,730,-4821,22,-43,-20,17
605,-15158,-6,736,-4820,22,-43,-20,16
606,-15158,-6,740,-4821,22,-44,-20,16
607,-15158,-4,740,-4822,22,-44,-20,16
608,-15152,-10,746,-4821,22,-43,-20,16
609,-15160,-6,748,-4820,22,-43,-19,17
610,-15162,-2,756,-4820,22,-43,-19,17
611,-15156,-10,756,-4821,22,-43,-19,17
612,-15148,-12,752,-4821,22,-43,-19,17
613,-15150,-14,754,-4818,22,-43,-19,17
614,-15166,-8,764,-4817,22,-43,-19,17
615,-15160,-8,760,-4817,22,-43,-19,17
616,-15162,-8,754,-4818,22,-43,-19,17
617,-15168,2,750,-4818,22,-43,-20,17
618,-15164,0,736,-4819,22,-43,-20,17
619,-15164,-12,728,-4819,22,-43,-19,17
620,-15156,-16,742,-4819,22,-43,-20,17
621,-15154,-8,744,-4818,22,-43,-20,17
622,-15148,6,744,-4818,22,-44,-19,17
623,-15150,-4,736,-4818,22,-44,-19,17
624,-15148,4,748,-4820,22,-43,-20,17
625,-15152,4,766,-4818,22,-44,-20,17
626,-15160,12,756,-4820,22,-44,-20,17
627,-15164,0,748,-4820,22,-44,-20,17
628,-15166,-4,764,-4819,22,-44,-20,17
629,-15160,-16,758,-4818,22,-44,-20,17
630,-15172,-20,744,-4816,22,-43,-20,17
631,-15168,-22,732,-4819,22,-43,-20,17
632,-15160,-14,738,-4819,22,-43,-20,17
633,-15152,-22,748,-4819,22,-44,-20,17
634,-15150,-24,754,-4818,22,-43,-20,17
635,-15150,-18,760,-4817,22,-43,-20,17
636,-15152,-16,750,-4816,22,-43,-20,17
637,-15152,-8,750,-4816,22,-43,-20,17
638,-15154,-4,746,-4816,22,-43,-20,17
639,-15156,-4,746,-4815,22,-44,-20,17
640,-15162,-4,748,-4816,22,-44,-20,17
641,-15162,-10,746,-4815,22,-44,-20,17
642,-15158,-8,754,-4814,22,-43,-20,17
643,-15162,-6,752,-4815,22,-43,-19,17
644,-15158,-8,750,-4815,22,-44,-19,17
645,-15148,0,746,-4817,22,-44,-20,17
646,-15148,0,754,-4818,22,-44,-20,17
647,-15144,-10,756,-4819,22,-44,-20,17
648,-15142,-12,752,-4819,22,-44,-20,17
649,-15140,-18,752,-4817,22,-44,-20,17
650,-15144,-20,750,-4815,22,-44,-20,17
651,-15152,-18,742,-4815,22,-44,-20,17
652,-15162,-12,734,-4818,22,-44,-20,17
653,-15164,-2,744,-4819,22,-44,-20,17
654,-15170,-8,734,-4819,22,-44,-20,17
655,-15156,-10,738,-4817,22,-44,-19,17
656,-15156,-18,734,-4815,22,-44,-20,17
657,-15158,-18,738,-4813,22,-44,-20,17
658,-15150,-20,726,-4812,22,-44,-20,17
659,-15156,-14,716,-4811,22,-44,-20,17
660,-15156,-16,726,-4811,22,-44,-20,17
661,-15162,-12,748,-4810,22,-44,-20,17
662,-15160,-20,742,-4811,22,-44,-20,17
663,-15154,-6,732,-4813,22,-44,-20,17
664,-15152,-8,724,-4813,22,-44,-20,17
665,-15148,-14,726,-4812,22,-44,-19,17
666,-15152,-8,738,-4813,22,-43,-20,17
667,-15154,-2,740,-4816,22,-44,-20,17
668,-15158,-6,734,-4816,22,-44,-20,17
669,-15154,-16,720,-4815,22,-44,-20,17
670,-15152,-10,718,-4813,22,-44,-20,17
671,-15154,-20,728,-4812,22,-43,-19,17
672,-15150,-12,748,-4812,22,-43,-20,17
673,-15152,-4,748,-4814,22,-43,-20,17
674,-15150,0,756,-4812,22,-43,-20,17
675,-15152,-2,746,-4815,22,-43,-20,17
676,-15158,-12,752,-4815,22,-43,-19,17
677,-15158,-4,746,-4816,22,-43,-19,17
678,-15158,-4,740,-4814,22,-44,-19,17
679,-15168,-12,738,-4814,22,-44,-20,17
680,-15170,-10,742,-4814,22,-44,-20,17
681,-15158,-12,740,-4815,22,-44,-20,17
682,-15160,-20,742,-4816,22,-44,-20,17
683,-15162,-16,726,-4817,22,-44,-20,17
684,-15166,-14,720,-4818,22,-44,-19,17
685,-15164,-18,712,-4817,22,-44,-20,17
686,-15160,-14,738,-4817,22,-44,-20,17
687,-15152,-12,738,-4817,22,-44,-20,17
688,-15148,-4,734,-4817,22,-43,-20,17
689,-15148,-6,740,-4815,22,-44,-19,17
690,-15150,-4,738,-4816,22,-44,-19,17
691,-15148,-2,754,-4816,22,-44,-19,17
692,-15146,-8,744,-4816,22,-44,-19,17
693,-15150,-14,742,-4818,22,-44,-19,17
694,-15156,-6,726,-4818,22,-44,-19,17
695,-15152,-14,734,-4816,22,-44,-20,17
696,-15154,-18,728,-4815,22,-44,-20,17
697,-15148,-22,724,-4816,22,-43,-20,17
698,-15152,-18,722,-4814,22,-43,-19,17
699,-15150,-22,732,-4815,22,-44,-19,17
700,-15142,-24,736,-4815,22,-44,-19,17
701,-15144,-16,730,-4815,22,-44,-19,17
702,-15154,-16,732,-4815,22,-44,-20,17
703,-15156,-12,730,-4815,22,-44,-19,17
704,-15158,-22,734,-4815,22,-44,-19,17
705,-15152,-16,744,-4813,22,-44,-19,17
706,-15166,-10,752,-4813,22,-44,-19,17
707,-15172,-16,740,-4811,22,-44,-19,17
708,-15180,-14,732,-4813,22,-44,-20,17
709,-15174,-14,742,-4813,22,-44,-20,17
710,-15166,-14,744,-4813,22,-43,-20,17
711,-15166,-12,738,-4813,22,-44,-20,17
712,-15156,-18,752,-4813,22,-44,-20,17
713,-15154,-14,738,-4813,22,-44,-20,17
714,-15154,-16,732,-4812,22,-44,-20,17
715,-15156,-16,744,-4814,22,-44,-20,17
716,-15154,-12,740,-4816,22,-44,-20,17
717,-15154,-16,728,-4815,22,-44,-20,17
718,-15154,-20,750,-4815,22,-44,-20,17
719,-15152,-22,756,-4812,22,-44,-20,17
720,-15150,-20,742,-4812,22,-44,-20,17
721,-15156,-14,742,-4811,22,-44,-20,16
722,-15150,-8,724,-4811,22,-44,-20,16
723,-15152,-14,730,-4810,22,-44,-20,16
724,-15154,-20,736,-4813,22,-44,-20,16
725,-15156,-22,750,-4812,22,-44,-20,16
726,-15162,-26,746,-4811,22,-44,-19,17
727,-15162,-22,742,-4810,22,-44,-19,17
728,-15164,-6,748,-4810,22,-44,-19,17
729,-15152,-4,750,-4810,22,-44,-19,17
730,-15152,-2,754,-4810,22,-44,-19,17
731,-15144,-4,744,-4810,22,-44,-19,17
732,-15142,-14,748,-4810,22,-44,-19,17
733,-15144,-16,738,-4810,22,-44,-19,17
734,-15154,-2,748,-4810,22,-44,-19,17
735,-15148,-16,738,-4811,22,-44,-20,17
736,-15156,-12,742,-4812,22,-44,-20,17
737,-15154,-16,762,-4811,22,-44,-20,17
738,-15158,-10,768,-4811,22,-43,-20,17
739,-15162,2,772,-4812,22,-44,-19,17
740,-15170,-6,764,-4812,22,-44,-20,17
741,-15172,-8,764,-4811,22,-44,-20,17
742,-15160,-14,770,-4812,22,-44,-20,17
743,-15160,-4,760,-4811,22,-44,-20,17
744,-15172,-4,756,-4810,22,-44,-20,17
745,-15162,-12,748,-4811,22,-44,-20,17
746,-15156,-16,748,-4809,22,-44,-20,17
747,-15160,-22,746,-4809,22,-44,-20,17
748,-15158,-14,740,-4808,22,-44,-20,17
749,-15156,-12,746,-4807,22,-44,-20,17
750,-15150,-4,756,-4808,22,-44,-20,17
751,-15150,-2,756,-4807,22,-43,-20,17
752,-15150,10,738,-4808,22,-44,-20,17
753,-15152,-4,740,-4809,22,-44,-20,17
754,-15152,2,742,-4810,22,-44,-20,17
755,-15154,-2,758,-4811,22,-44,-19,17
756,-15148,-4,760,-4812,22,-44,-19,17
757,-15144,2,768,-4810,22,-44,-19,17
758,-15144,6,750,-4810,22,-44,-19,17
759,-15148,10,754,-4808,22,-44,-20,17
760,-15154,12,746,-4809,22,-44,-19,17
761,-15152,2,742,-4810,22,-44,-20,17
762,-15156,6,742,-4811,22,-44,-20,17
763,-15156,2,748,-4811,22,-44,-19,17
764,-15146,6,766,-4812,22,-44,-19,17
765,-15148,10,766,-4813,22,-44,-19,17
766,-15156,2,746,-4812,22,-44,-19,17
767,-15148,10,738,-4811,22,-44,-19,17
768,-15150,-4,740,-4812,22,-44,-19,17
769,-15144,-8,740,-4811,22,-44,-19,17
770,-15142,-10,752,-4811,22,-44,-19,17
771,-15148,-12,754,-4812,22,-44,-19,17
772,-15152,-8,752,-4812,22,-44,-19,17
773,-15160,-8,750,-4811,22,-44,-19,17
774,-15162,-6,756,-4812,22,-44,-20,17
775,-15160,-12,766,-4812,22,-44,-20,17
776,-15156,-4,762,-4811,22,-44,-20,17
777,-15166,-16,766,-4810,22,-44,-20,17
778,-15166,-20,764,-4809,22,-44,-20,17
779,-15160,-18,750,-4811,22,-44,-20,17
780,-15160,-6,744,-4810,22,-44,-20,17
781,-15170,-10,756,-4808,22,-44,-20,17
782,-15152,-2,764,-4808,22,-44,-20,17
783,-15152,0,744,-4807,22,-44,-20,17
784,-15148,-8,732,-4806,22,-44,-20,17
785,-15156,-12,734,-4808,22,-44,-20,17
786,-15166,-4,734,-4809,22,-44,-20,17
787,-15164,-10,738,-4808,22,-44,-19,17
788,-15168,-6,728,-4807,22,-44,-19,17
789,-15158,0,728,-4807,22,-44,-19,17
790,-15156,-8,724,-4810,22,-43,-19,16
791,-15154,0,738,-4810,22,-43,-20,16
792,-15148,-14,742,-4809,22,-43,-20,16
793,-15146,-20,752,-4812,22,-44,-20,17
794,-15152,-22,762,-4812,22,-44,-20,17
795,-15156,-20,748,-4813,22,-44,-20,17
796,-15154,-14,752,-4814,22,-44,-20,17
797,-15148,-20,750,-4813,22,-44,-20,17
798,-15156,-22,744,-4810,22,-44,-20,17
799,-15156,-18,738,-4811,22,-43,-19,16
800,-15156,-20,750,-4810,22,-44,-19,17
801,-15150,-24,758,-4811,22,-44,-20,17
802,-15164,-12,750,-4810,22,-43,-20,17
803,-15158,-4,748,-4811,22,-43,-20,17
804,-15160,4,752,-4811,22,-43,-20,17
805,-15156,8,748,-4810,22,-43,-20,17
806,-15168,4,754,-4809,22,-43,-20,17
807,-15178,4,752,-4809,22,-43,-20,17
808,-15172,-4,764,-4809,22,-43,-20,17
809,-15164,-6,744,-4810,22,-43,-20,17
810,-15166,-10,734,-4810,22,-43,-20,17
811,-15160,-6,724,-4810,22,-43,-20,17
812,-15160,-2,732,-4811,22,-43,-20,17
813,-15162,-4,736,-4810,22,-43,-20,17
814,-15166,-14,732,-4810,22,-43,-20,17
815,-15168,-20,726,-4811,22,-43,-20,17
816,-15164,-10,730,-4810,22,-43,-20,17
817,-15152,-10,742,-4809,22,-43,-20,17
818,-15158,-10,746,-4809,22,-43,-20,17
819,-15154,-2,744,-4809,22,-43,-20,17
820,-15156,-4,732,-4808,22,-44,-20,17
821,-15156,2,730,-4807,22,-44,-19,17
822,-15154,2,728,-4807,22,-44,-20,16
823,-15158,-2,734,-4807,22,-44,-20,17
824,-15158,-6,748,-4808,22,-44,-20,17
825,-15158,-8,738,-4809,22,-44,-20,17
826,-15154,-6,734,-4808,22,-43,-20,17
827,-15162,-18,732,-4807,22,-43,-20,17
828,-15156,-26,732,-4807,22,-44,-20,17
829,-15162,-30,724,-4808,22,-44,-20,17
830,-15162,-24,722,-4808,22,-44,-20,17
831,-15162,-22,730,-4807,22,-44,-20,17
832,-15160,-24,726,-4809,22,-44,-20,17
833,-15166,-20,712,-4808,22,-44,-20,17
834,-15170,-18,720,-4807,22,-44,-20,17
835,-15170,-20,738,-4809,22,-44,-20,17
836,-15164,-20,744,-4809,22,-44,-20,17
837,-15168,-22,750,-4807,22,-43,-19,17
838,-15162,-24,758,-4807,22,-43,-19,17
839,-15166,-18,760,-4806,22,-43,-19,17
840,-15172,-16,760,-4806,22,-44,-19,17
841,-15156,-10,760,-4806,22,-44,-19,17
842,-15148,-12,750,-4808,22,-44,-20,16
843,-15156,-16,754,-4806,22,-43,-20,17
844,-15160,-16,756,-4807,22,-43,-20,17
845,-15158,-10,752,-4808,22,-44,-20,16
846,-15160,-12,746,-4808,22,-43,-20,17
847,-15156,-10,748,-4805,22,-43,-20,16
848,-15154,-14,760,-4805,22,-44,-20,17
849,-15156,-14,736,-4807,22,-43,-20,17
850,-15160,-14,730,-4807,22,-43,-20,17
851,-15160,-18,730,-4807,22,-43,-20,17
852,-15146,-24,738,-4805,22,-44,-20,17
853,-15150,-30,740,-4807,22,-44,-20,17
854,-15154,-20,732,-4809,22,-44,-20,17
855,-15156,-10,720,-4810,22,-44,-20,17
856,-15148,-14,726,-4811,22,-44,-20,17
857,-15160,-16,732,-4810,22,-44,-20,17
858,-15164,-22,724,-4811,22,-43,-20,17
859,-15160,-22,724,-4809,22,-43,-20,17
860,-15168,-20,732,-4809,22,-44,-20,17
861,-15166,-18,736,-4811,22,-44,-19,17
862,-15172,-14,740,-4809,22,-44,-19,17
863,-15168,-6,742,-4806,22,-43,-20,17
864,-15170,-2,760,-4806,22,-43,-20,17
865,-15164,-6,750,-4805,22,-43,-20,17
866,-15164,-12,742,-4806,22,-44,-20,16
867,-15150,-16,738,-4805,22,-44,-20,17
868,-15154,-12,720,-4805,22,-44,-20,17
869,-15152,-16,726,-4803,22,-44,-20,17
870,-15152,-22,738,-4805,22,-44,-19,17
871,-15146,-16,746,-4805,22,-44,-19,16
872,-15152,-16,760,-4805,22,-44,-20,17
873,-15158,-20,738,-4805,22,-44,-19,17
874,-15160,-6,728,-4805,22,-44,-20,17
875,-15150,-10,730,-4806,22,-44,-19,17
876,-15154,-6,728,-4806,22,-44,-19,17
877,-15152,-6,722,-4806,22,-44,-19,17
878,-15150,-10,710,-4807,22,-44,-20,17
879,-15146,-28,730,-4807,22,-44,-20,17
880,-15142,-26,734,-4808,22,-44,-20,17
881,-15146,-20,738,-4809,22,-44,-20,17
882,-15138,-18,736,-4809,22,-44,-20,17
883,-15154,-10,748,-4809,22,-43,-20,17
884,-15150,-12,754,-4810,22,-43,-20,17
885,-15154,0,754,-4808,22,-43,-20,17
886,-15150,-8,750,-4809,22,-43,-20,17
887,-15162,-6,752,-4809,22,-44,-20,17
888,-15156,-10,750,-4808,22,-44,-20,17
889,-15158,-6,746,-4808,22,-44,-20,17
890,-15158,-6,746,-4808,22,-44,-20,17
891,-15154,-6,736,-4807,22,-44,-20,17
892,-15152,-8,742,-4807,22,-44,-20,17
893,-15148,-26,738,-4806,22,-44,-20,17
894,-15148,-22,722,-4807,22,-44,-20,17
895,-15156,-20,726,-4808,22,-44,-19,17
896,-15156,-22,734,-4807,22,-44,-20,17
897,-15154,-16,730,-4807,22,-43,-20,17
898,-15154,-18,734,-4807,22,-43,-20,17
899,-15156,-14,730,-4806,22,-44,-20,17
900,-15156,-4,732,-4805,22,-44,-20,17
901,-15158,-8,736,-4807,22,-44,-20,17
902,-15150,-16,736,-4807,22,-44,-20,17
903,-15144,-10,750,-4807,22,-44,-20,17
904,-15146,-6,762,-4807,22,-44,-19,17
905,-15154,8,742,-4808,22,-44,-19,17
906,-15160,2,728,-4807,22,-44,-20,17
907,-15156,4,730,-4805,22,-44,-20,17
908,-15160,-2,740,-4805,22,-44,-20,17
909,-15162,-2,736,-4805,22,-44,-20,17
910,-15160,-6,730,-4805,22,-44,-20,17
911,-15164,-8,738,-4807,22,-44,-19,17
912,-15162,-16,760,-4806,22,-44,-19,17
913,-15166,-16,760,-4807,22,-44,-19,17
914,-15158,-12,738,-4807,22,-44,-20,17
915,-15158,-16,734,-4806,22,-44,-19,17
916,-15152,-18,742,-4806,22,-44,-19,17
917,-15144,-10,760,-4806,22,-44,-19,17
918,-15142,-14,762,-4805,22,-44,-19,17
919,-15140,-10,758,-4804,22,-44,-19,17
920,-15136,-14,756,-4805,22,-44,-20,17
921,-15144,-8,758,-4805,22,-44,-20,17
922,-15150,-4,758,-4806,22,-44,-20,17
923,-15154,-8,750,-4807,22,-44,-20,17
924,-15144,-6,744,-4806,22,-43,-20,17
925,-15144,-6,758,-4804,22,-43,-19,17
926,-15140,-10,750,-4805,22,-43,-19,17
927,-15150,-10,758,-4806,22,-43,-20,17
928,-15152,-16,762,-4808,22,-43,-20,17
929,-15144,-16,742,-4809,22,-43,-20,17
930,-15140,-26,746,-4808,22,-43,-20,17
931,-15142,-28,742,-4805,22,-43,-20,17
932,-15158,-30,748,-4806,22,-43,-20,17
933,-15164,-24,742,-4805,22,-44,-20,17
934,-15158,-26,730,-4807,22,-43,-20,17
935,-15152,-16,742,-4806,22,-43,-20,17
936,-15146,-10,728,-4807,22,-43,-20,16
937,-15154,-18,736,-4808,22,-44,-20,17
938,-15160,-26,728,-4808,22,-44,-20,17
939,-15168,-30,722,-4808,22,-44,-20,17
940,-15154,-36,734,-4806,22,-44,-20,17
941,-15156,-32,736,-4805,22,-44,-20,17
942,-15160,-38,738,-4805,22,-44,-20,17
943,-15164,-32,742,-4803,22,-43,-20,17
944,-15170,-32,738,-4805,22,-44,-19,17
945,-15166,-34,746,-4804,22,-43,-19,16
946,-15166,-26,742,-4804,22,-43,-19,17
947,-15182,-30,746,-4805,22,-44,-20,17
948,-15170,-32,744,-4805,22,-43,-20,17
949,-15166,-28,752,-4805,22,-44,-20,17
950,-15168,-18,748,-4805,22,-44,-20,17
951,-15160,-12,748,-4805,22,-44,-20,17
952,-15160,-20,732,-4807,22,-44,-20,17
953,-15154,-18,742,-4808,22,-44,-20,17
954,-15152,-12,762,-4806,22,-44,-20,17
955,-15158,-14,756,-4805,22,-44,-19,17
956,-15152,-12,754,-4805,22,-44,-19,17
957,-15154,-4,752,-4804,22,-44,-20,17
958,-15150,-4,752,-4803,22,-44,-20,17
959,-15140,-2,756,-4803,22,-44,-20,17
960,-15138,2,750,-4801,22,-44,-20,17
961,-15134,-10,750,-4801,22,-44,-20,17
962,-15142,-10,740,-4801,22,-44,-20,17
963,-15154,-20,754,-4803,22,-44,-20,17
964,-15154,-20,754,-4802,22,-44,-20,17
965,-15158,-20,752,-4802,22,-44,-20,17
966,-15158,-20,742,-4802,22,-44,-20,17
967,-15160,-14,746,-4802,22,-44,-20,17
968,-15152,-10,748,-4801,22,-44,-20,17
969,-15160,-10,742,-4802,22,-44,-20,17
970,-15152,-4,752,-4802,22,-44,-20,17
971,-15154,-14,760,-4801,22,-43,-20,17
972,-15164,-18,746,-4801,22,-43,-20,17
973,-15166,-14,762,-4800,22,-43,-20,17
974,-15170,-12,764,-4801,22,-44,-19,17
975,-15172,-14,748,-4802,22,-44,-19,17
976,-15180,-8,754,-4803,22,-44,-19,17
977,-15170,2,748,-4803,22,-44,-19,17
978,-15178,4,738,-4803,22,-44,-20,16
979,-15166,2,752,-4804,22,-44,-19,17
980,-15166,-2,748,-4803,22,-44,-20,17
981,-15166,-8,754,-4804,22,-44,-20,17
982,-15164,-4,772,-4803,22,-44,-20,17
983,-15174,-6,772,-4804,22,-44,-20,17
984,-15170,-6,760,-4804,22,-44,-20,17
985,-15168,-16,756,-4805,22,-44,-20,17
986,-15162,-22,748,-4805,22,-44,-20,17
987,-15158,-32,746,-4803,22,-44,-20,17
988,-15158,-28,732,-4801,22,-43,-20,17
989,-15152,-28,738,-4803,22,-43,-20,17
990,-15152,-24,744,-4801,22,-43,-19,17
991,-15150,-20,744,-4801,22,-43,-19,17
992,-15150,-14,744,-4801,22,-44,-20,17
993,-15164,-12,734,-4801,22,-43,-20,17
994,-15162,-6,720,-4802,22,-43,-20,17
995,-15166,-6,728,-4802,22,-43,-20,17
