,acc_X,acc_Y,acc_Z,temp,tempC,gyr_X,gyr_Y,gyr_Z
0,-3791,-6,188,-4737,23,-44,-20,17
1,-3791,-7,188,-4738,23,-44,-20,17
2,-3789,-6,187,-4740,23,-44,-20,17
3,-3789,-5,186,-4738,23,-44,-19,17
4,-3789,-4,190,-4735,23,-44,-19,17
5,-3788,-3,189,-4735,23,-44,-19,17
6,-3791,0,186,-4736,23,-44,-20,17
7,-3791,-2,190,-4735,23,-44,-19,17
8,-3789,-3,188,-4734,23,-44,-20,17
9,-3790,-2,188,-4735,23,-44,-20,17
10,-3789,-3,188,-4733,23,-44,-20,17
11,-3790,-6,186,-4733,23,-44,-19,17
12,-3791,-7,185,-4732,23,-44,-20,17
13,-3791,-6,187,-4730,23,-44,-20,17
14,-3790,-4,186,-4731,23,-44,-20,17
15,-3789,-2,183,-4728,23,-44,-20,17
16,-3791,-2,184,-4728,23,-44,-20,17
17,-3788,-1,185,-4727,23,-44,-20,17
18,-3787,-2,187,-4727,23,-44,-20,17
19,-3787,-3,189,-4727,23,-44,-20,17
20,-3785,-3,190,-4726,23,-44,-20,17
21,-3785,0,187,-4726,23,-44,-20,17
22,-3788,-2,190,-4727,23,-44,-20,17
23,-3789,0,184,-4728,23,-44,-20,17
24,-3789,-2,186,-4726,23,-43,-20,17
25,-3786,0,185,-4726,23,-44,-20,17
26,-3787,-3,185,-4726,23,-44,-20,17
27,-3790,-2,188,-4724,23,-44,-20,17
28,-3791,-2,187,-4723,23,-44,-20,17
29,-3790,-2,190,-4723,23,-44,-20,17
30,-3789,-2,187,-4723,23,-44,-20,17
31,-3788,-4,186,-4724,23,-44,-20,17
32,-3789,-6,187,-4724,23,-44,-20,17
33,-3786,-7,186,-4724,23,-44,-20,17
34,-3785,-5,188,-4724,23,-44,-20,17
35,-3787,-5,187,-4725,23,-44,-20,17
36,-3789,-4,187,-4724,23,-44,-20,17
37,-3790,-2,187,-4722,23,-44,-20,17
38,-3789,-3,188,-4724,23,-44,-20,17
39,-3790,0,189,-4722,23,-44,-19,17
40,-3790,-1,191,-4720,23,-44,-19,17
41,-3790,-1,190,-4721,23,-43,-20,17
42,-3789,-1,190,-4721,23,-44,-20,17
43,-3788,-1,187,-4720,23,-44,-20,17
44,-3789,-3,190,-4721,23,-44,-20,17
45,-3787,-3,190,-4721,23,-44,-20,17
46,-3789,-4,187,-4720,23,-44,-20,17
47,-3789,-3,186,-4720,23,-43,-20,17
48,-3788,-2,182,-4718,23,-44,-20,17
49,-3789,-2,186,-4718,23,-44,-20,17
50,-3788,-3,184,-4720,23,-44,-20,17
51,-3786,-2,186,-4719,23,-44,-20,17
52,-3785,-4,190,-4717,23,-44,-20,17
53,-3788,-4,191,-4718,23,-44,-20,17
54,-3786,-5,188,-4718,23,-44,-19,17
55,-3785,-5,185,-4717,23,-44,-19,17
56,-3786,-6,181,-4718,23,-44,-19,17
57,-3786,-6,184,-4718,23,-44,-19,17
58,-3791,-3,184,-4717,23,-44,-19,17
59,-3791,-1,185,-4716,23,-44,-19,17
60,-3788,-4,186,-4716,23,-44,-19,17
61,-3787,-5,184,-4714,23,-44,-19,17
62,-3786,-4,184,-4715,23,-44,-19,17
63,-3786,-7,184,-4714,23,-44,-19,17
64,-3789,-8,187,-4713,23,-44,-20,17
65,-3790,-6,184,-4713,23,-44,-19,18
66,-3791,-3,185,-4712,23,-44,-20,17
67,-3791,-3,185,-4711,23,-44,-20,17
68,-3795,-4,183,-4712,23,-44,-20,17
69,-3792,-2,181,-4711,23,-44,-20,17
70,-3790,-4,182,-4711,23,-44,-20,17
71,-3789,-5,186,-4711,23,-44,-20,17
72,-3787,-5,190,-4712,23,-44,-20,17
73,-3788,-4,191,-4712,23,-44,-20,17
74,-3787,-4,188,-4714,23,-44,-20,17
75,-3789,-4,185,-4713,23,-44,-20,17
76,-3788,-3,183,-4711,23,-44,-20,17
77,-3785,-6,185,-4711,23,-44,-19,17
78,-3786,-9,186,-4712,23,-44,-19,17
79,-3788,-7,187,-4710,23,-44,-19,17
80,-3787,-4,183,-4711,23,-44,-19,17
81,-3788,-6,188,-4711,23,-44,-19,17
82,-3787,-4,187,-4710,23,-44,-19,17
83,-3787,-4,188,-4710,23,-44,-19,17
84,-3787,-3,191,-4711,23,-44,-19,17
85,-3786,-3,188,-4712,23,-44,-20,17
86,-3786,-2,189,-4714,23,-44,-20,17
87,-3787,-3,187,-4715,23,-44,-19,17
88,-3785,-2,185,-4713,23,-43,-19,17
89,-3785,1,188,-4715,23,-43,-19,17
90,-3788,4,188,-4715,23,-43,-19,17
91,-3787,2,189,-4715,23,-44,-19,17
92,-3788,-1,186,-4713,23,-44,-19,17
93,-3789,2,184,-4712,23,-43,-19,17
94,-3787,-1,184,-4711,23,-44,-20,17
95,-3786,1,185,-4710,23,-44,-20,17
96,-3789,0,188,-4709,23,-44,-20,17
97,-3788,0,190,-4709,23,-44,-20,17
98,-3791,1,192,-4707,23,-44,-20,17
99,-3791,-1,193,-4708,23,-44,-20,17
100,-3792,0,194,-4709,23,-44,-20,17
101,-3791,0,193,-4708,23,-44,-20,17
102,-3791,-3,195,-4708,23,-44,-20,17
103,-3789,-4,195,-4709,23,-44,-19,17
104,-3791,-5,195,-4708,23,-44,-19,17
105,-3789,-5,192,-4707,23,-44,-19,17
106,-3787,-4,191,-4708,23,-44,-20,17
107,-3788,-3,190,-4706,23,-44,-20,17
108,-3788,-4,186,-4706,23,-44,-19,17
109,-3791,-5,189,-4706,23,-44,-20,17
110,-3789,-5,190,-4706,23,-44,-20,17
111,-3787,-5,186,-4704,23,-44,-20,17
112,-3788,-5,185,-4705,23,-44,-20,17
113,-3788,-3,183,-4704,23,-44,-20,17
114,-3789,-5,184,-4705,23,-44,-20,17
115,-3787,-3,184,-4705,23,-44,-20,17
116,-3786,-3,187,-4705,23,-44,-19,17
117,-3788,-4,190,-4703,23,-44,-20,17
118,-3787,-5,190,-4703,23,-44,-20,17
119,-3787,-4,188,-4703,23,-44,-19,17
120,-3787,-3,185,-4701,23,-44,-20,17
121,-3788,-3,188,-4700,23,-44,-20,17
122,-3787,-2,189,-4702,23,-44,-20,17
123,-3793,-1,190,-4703,23,-44,-20,17
124,-3792,-2,190,-4704,23,-44,-20,17
125,-3789,-4,190,-4702,23,-44,-20,17
126,-3789,-3,192,-4700,23,-44,-20,17
127,-3790,-1,191,-4701,23,-44,-20,17
128,-3789,0,192,-4702,23,-44,-20,17
129,-3792,0,194,-4702,23,-44,-20,17
130,-3792,-2,194,-4701,23,-44,-20,17
131,-3789,-2,192,-4702,23,-44,-20,17
132,-3790,-3,190,-4702,23,-44,-19,17
133,-3790,-1,190,-4701,23,-44,-20,17
134,-3788,-1,192,-4701,23,-44,-20,17
135,-3789,-1,189,-4701,23,-44,-20,17
136,-3789,0,188,-4700,23,-44,-20,17
137,-3788,0,186,-4700,23,-44,-20,17
138,-3790,-1,187,-4699,23,-44,-20,17
139,-3790,-3,186,-4696,23,-44,-20,17
140,-3787,-3,187,-4696,23,-44,-20,17
141,-3787,-5,187,-4696,23,-44,-20,17
142,-3784,-7,188,-4697,23,-44,-20,17
143,-3785,-5,190,-4698,23,-44,-20,17
144,-3786,-4,190,-4697,23,-44,-20,17
145,-3786,-3,190,-4698,23,-44,-20,17
146,-3785,-5,189,-4697,23,-44,-20,17
147,-3786,-2,191,-4697,23,-44,-20,17
148,-3785,-2,189,-4697,23,-43,-19,17
149,-3788,-1,189,-4698,23,-43,-19,17
150,-3790,0,189,-4698,23,-43,-20,17
151,-3789,-1,186,-4697,23,-43,-19,17
152,-3791,-1,186,-4699,23,-44,-19,17
153,-3791,0,184,-4698,23,-44,-19,17
154,-3790,-2,185,-4698,23,-44,-19,17
155,-3790,-2,186,-4700,23,-44,-19,17
156,-3792,-4,187,-4698,23,-44,-19,17
157,-3790,-5,186,-4699,23,-44,-19,17
158,-3789,-4,184,-4699,23,-44,-19,17
159,-3789,-3,185,-4697,23,-44,-19,17
160,-3789,-2,187,-4698,23,-44,-19,17
161,-3787,-4,181,-4699,23,-44,-19,17
162,-3784,-3,183,-4699,23,-44,-19,17
163,-3784,-5,179,-4698,23,-44,-19,17
164,-3788,-5,179,-4695,23,-44,-19,17
165,-3785,-4,182,-4695,23,-44,-19,17
166,-3787,-6,180,-4694,23,-44,-19,17
167,-3788,-7,181,-4695,23,-44,-19,17
168,-3786,-9,185,-4695,23,-44,-19,17
169,-3789,-4,184,-4693,23,-44,-19,17
170,-3790,-2,186,-4692,23,-44,-19,17
171,-3788,-4,187,-4694,23,-44,-19,17
172,-3785,-3,189,-4691,23,-44,-19,17
173,-3786,-4,186,-4690,23,-44,-19,17
174,-3786,-5,188,-4692,23,-44,-20,17
175,-3787,-4,187,-4691,23,-44,-20,17
176,-3788,-3,185,-4691,23,-44,-20,17
177,-3787,-5,188,-4690,23,-44,-20,17
178,-3788,-6,189,-4690,23,-44,-19,17
179,-3788,-7,189,-4691,23,-44,-19,17
180,-3789,-3,188,-4691,23,-44,-19,17
181,-3790,-4,190,-4691,23,-44,-19,17
182,-3791,-4,193,-4691,23,-44,-19,16
183,-3790,-4,193,-4690,23,-44,-19,17
184,-3790,-3,195,-4688,23,-44,-19,17
185,-3789,-3,192,-4688,23,-44,-19,17
186,-3789,-4,190,-4690,23,-44,-19,17
187,-3789,-5,193,-4690,23,-44,-19,17
188,-3789,-5,193,-4689,23,-44,-19,17
189,-3790,-7,192,-4690,23,-44,-19,17
190,-3789,-8,192,-4689,23,-44,-19,17
191,-3791,-4,189,-4690,23,-44,-20,17
192,-3788,-6,186,-4691,23,-44,-19,17
193,-3786,-4,188,-4692,23,-44,-19,17
194,-3787,-5,189,-4689,23,-44,-20,17
195,-3786,-6,187,-4689,23,-45,-20,17
196,-3788,-5,183,-4688,23,-44,-19,17
197,-3788,-4,182,-4689,23,-44,-19,17
198,-3790,-3,187,-4688,23,-44,-19,17
199,-3789,-2,187,-4689,23,-44,-19,16
200,-3788,-4,186,-4688,23,-44,-19,17
201,-3788,-3,182,-4689,23,-44,-19,17
202,-3788,-3,183,-4688,23,-44,-19,17
203,-3788,-4,186,-4688,23,-44,-19,17
204,-3788,-4,182,-4687,23,-44,-19,17
205,-3788,-3,185,-4687,23,-44,-20,17
206,-3789,-3,185,-4688,23,-44,-19,17
207,-3788,-1,187,-4689,23,-44,-19,17
208,-3789,1,188,-4688,23,-44,-19,17
209,-3790,1,187,-4687,23,-44,-19,17
210,-3787,-2,186,-4689,23,-44,-19,17
211,-3787,-1,188,-4691,23,-44,-19,17
212,-3788,-2,189,-4690,23,-44,-19,17
213,-3787,-2,184,-4689,23,-44,-19,17
214,-3787,-4,184,-4689,23,-44,-19,17
215,-3785,-1,185,-4687,23,-44,-19,17
216,-3788,-1,185,-4688,23,-44,-19,17
217,-3786,-3,184,-4688,23,-44,-19,17
218,-3788,-3,186,-4688,23,-44,-19,17
219,-3789,-3,182,-4687,23,-44,-19,17
220,-3790,-1,178,-4687,23,-44,-19,17
221,-3790,-1,181,-4686,23,-44,-20,17
222,-3789,0,179,-4687,23,-44,-19,17
223,-3789,-2,181,-4688,23,-44,-19,17
224,-3788,-2,180,-4689,23,-44,-20,17
225,-3790,-1,183,-4688,23,-44,-20,17
226,-3790,-3,183,-4687,23,-43,-20,17
227,-3790,-3,184,-4687,23,-44,-20,17
228,-3789,-2,185,-4688,23,-44,-20,17
229,-3790,-2,183,-4688,23,-44,-20,17
230,-3789,0,186,-4686,23,-44,-20,17
231,-3792,0,189,-4685,23,-44,-20,17
232,-3793,-2,187,-4684,23,-44,-20,17
233,-3793,-5,192,-4683,23,-44,-20,17
234,-3791,-4,192,-4682,23,-44,-20,17
235,-3791,-4,188,-4682,23,-44,-20,17
236,-3790,-5,189,-4683,23,-44,-20,17
237,-3789,-6,189,-4683,23,-44,-20,17
238,-3788,-5,186,-4682,23,-44,-20,16
239,-3788,-3,187,-4683,23,-44,-19,17
240,-3789,-2,190,-4683,23,-44,-19,17
241,-3787,-3,190,-4682,23,-44,-19,17
242,-3787,-1,186,-4683,23,-44,-19,17
243,-3789,-1,188,-4684,23,-44,-20,17
244,-3786,-2,188,-4684,23,-44,-19,17
245,-3788,-1,186,-4683,23,-44,-20,17
246,-3789,-2,185,-4685,23,-44,-20,17
247,-3788,-2,185,-4685,23,-44,-19,17
248,-3787,-1,188,-4685,23,-44,-19,17
249,-3786,0,189,-4685,23,-44,-20,17
250,-3788,0,189,-4685,23,-44,-19,17
251,-3790,-1,189,-4684,23,-44,-19,17
252,-3790,-1,187,-4685,23,-44,-19,17
253,-3789,-1,190,-4684,23,-44,-19,17
254,-3790,-1,192,-4684,23,-44,-20,17
255,-3788,-2,193,-4685,23,-44,-20,17
256,-3789,-3,189,-4685,23,-44,-20,17
257,-3788,-3,190,-4684,23,-44,-20,17
258,-3786,-3,190,-4682,23,-44,-20,17
259,-3785,-3,186,-4682,23,-44,-20,17
260,-3788,-2,188,-4683,23,-44,-19,17
261,-3788,-1,185,-4683,23,-44,-19,17
262,-3790,0,186,-4683,23,-44,-19,18
263,-3790,-1,184,-4683,23,-44,-19,17
264,-3789,-4,183,-4683,23,-44,-19,17
265,-3789,-2,186,-4681,23,-44,-19,17
266,-3788,-3,189,-4679,23,-44,-20,17
267,-3787,-3,187,-4680,23,-44,-20,18
268,-3787,-4,190,-4680,23,-44,-20,18
269,-3788,-5,189,-4679,23,-44,-19,18
270,-3788,-5,190,-4678,23,-44,-19,17
271,-3788,-5,190,-4679,23,-44,-20,17
272,-3787,-5,189,-4679,23,-44,-19,17
273,-3788,-4,187,-4677,23,-44,-20,17
274,-3788,-5,190,-4679,23,-43,-20,17
275,-3787,-4,189,-4679,23,-44,-20,17
276,-3791,-3,192,-4680,23,-44,-19,17
277,-3792,-3,190,-4678,23,-44,-19,17
278,-3792,-4,188,-4679,23,-44,-19,17
279,-3792,-4,186,-4680,23,-44,-19,17
280,-3790,-4,184,-4680,23,-44,-19,18
281,-3790,-4,179,-4677,23,-44,-19,17
282,-3792,-4,181,-4678,23,-44,-20,18
283,-3793,-3,187,-4678,23,-44,-20,18
284,-3792,-4,189,-4677,23,-44,-19,18
285,-3792,-5,188,-4678,23,-44,-20,17
286,-3794,-4,190,-4678,23,-44,-20,17
287,-3794,-5,190,-4678,23,-44,-19,17
288,-3794,-5,187,-4678,23,-44,-19,17
289,-3793,-5,185,-4678,23,-44,-19,17
290,-3792,-6,185,-4678,23,-44,-19,17
291,-3791,-4,185,-4678,23,-44,-20,17
292,-3791,-5,187,-4679,23,-44,-20,17
293,-3789,-3,184,-4678,23,-44,-19,17
294,-3791,-4,185,-4677,23,-44,-19,17
295,-3788,-3,182,-4677,23,-44,-19,17
296,-3787,0,183,-4676,23,-44,-19,17
297,-3786,0,182,-4677,23,-44,-19,17
298,-3786,-3,187,-4677,23,-44,-19,17
299,-3785,-2,188,-4677,23,-44,-19,17
300,-3785,-1,187,-4676,23,-44,-19,17
301,-3786,0,188,-4675,23,-44,-19,17
302,-3788,-1,186,-4677,23,-44,-19,17
303,-3788,-2,187,-4677,23,-44,-19,17
304,-3790,-3,187,-4678,23,-44,-19,17
305,-3788,-3,185,-4676,23,-44,-19,17
306,-3787,-2,187,-4675,23,-44,-19,17
307,-3788,-1,186,-4676,23,-44,-19,17
308,-3787,-1,193,-4677,23,-44,-19,17
309,-3785,0,192,-4677,23,-44,-19,17
310,-3784,-1,192,-4677,23,-44,-19,17
311,-3784,0,189,-4675,23,-44,-20,17
312,-3785,-2,188,-4676,23,-44,-19,17
313,-3787,-2,191,-4676,23,-44,-20,17
314,-3786,-1,194,-4677,23,-44,-20,17
315,-3788,2,187,-4676,23,-44,-20,17
316,-3789,0,188,-4676,23,-44,-20,17
317,-3788,0,185,-4678,23,-44,-20,17
318,-3788,0,184,-4677,23,-44,-20,17
319,-3787,-2,185,-4678,23,-44,-20,17
320,-3789,-5,186,-4676,23,-43,-20,17
321,-3790,-7,182,-4675,23,-44,-20,17
322,-3790,-8,181,-4677,23,-44,-20,17
323,-3788,-8,186,-4675,23,-44,-20,18
324,-3790,-6,185,-4676,23,-43,-20,18
325,-3789,-3,187,-4675,23,-43,-19,17
326,-3790,-2,189,-4676,23,-44,-19,17
327,-3791,-3,190,-4674,23,-44,-19,17
328,-3793,-3,191,-4672,23,-44,-19,17
329,-3792,-3,189,-4674,23,-44,-19,17
330,-3791,-4,188,-4676,23,-44,-19,18
331,-3790,-3,189,-4673,23,-44,-19,18
332,-3787,-3,191,-4673,23,-44,-20,18
333,-3787,-3,191,-4674,23,-44,-20,18
334,-3787,-1,186,-4675,23,-44,-20,18
335,-3787,-2,187,-4674,23,-44,-20,18
336,-3787,-1,189,-4674,23,-44,-20,18
337,-3788,-2,190,-4673,23,-44,-20,18
338,-3786,-3,192,-4672,23,-44,-20,17
339,-3787,-3,189,-4672,23,-44,-20,18
340,-3787,-4,190,-4670,23,-44,-20,18
341,-3787,-1,186,-4671,23,-44,-20,18
342,-3791,-4,187,-4671,23,-44,-20,18
343,-3790,-4,187,-4672,23,-44,-19,18
344,-3788,-3,187,-4671,23,-44,-20,17
345,-3790,-4,191,-4671,23,-44,-20,18
346,-3788,-4,190,-4673,23,-44,-20,18
347,-3789,-7,188,-4673,23,-44,-20,18
348,-3787,-7,189,-4673,23,-44,-20,17
349,-3786,-7,189,-4675,23,-44,-20,17
350,-3784,-5,189,-4674,23,-44,-20,17
351,-3784,-6,187,-4673,23,-44,-20,17
352,-3783,-6,189,-4675,23,-44,-20,17
353,-3782,-7,195,-4673,23,-44,-20,17
354,-3782,-7,193,-4673,23,-44,-19,17
355,-3783,-5,193,-4672,23,-44,-19,17
356,-3783,-1,193,-4670,23,-44,-20,17
357,-3784,-1,191,-4671,23,-44,-19,17
358,-3785,-3,191,-4670,23,-44,-19,17
359,-3786,-2,191,-4670,23,-44,-19,17
360,-3787,-2,190,-4670,23,-43,-19,17
361,-3787,-2,189,-4670,23,-44,-19,17
362,-3787,-3,192,-4671,23,-44,-19,17
363,-3788,-5,189,-4671,23,-44,-19,17
364,-3788,-6,188,-4671,23,-44,-19,17
365,-3787,-6,186,-4670,23,-44,-19,17
366,-3787,-5,186,-4669,23,-44,-19,17
367,-3787,-5,188,-4669,23,-44,-20,17
368,-3788,-4,187,-4670,23,-44,-19,17
369,-3789,-5,183,-4672,23,-44,-19,17
370,-3788,-5,185,-4672,23,-44,-19,17
371,-3787,-5,183,-4672,23,-44,-19,17
372,-3788,-5,188,-4671,23,-44,-19,17
373,-3790,-6,189,-4671,23,-44,-20,17
374,-3789,-6,189,-4673,23,-44,-19,17
375,-3788,-4,191,-4673,23,-44,-19,17
376,-3790,-4,189,-4673,23,-44,-19,17
377,-3791,-3,189,-4674,23,-44,-19,17
378,-3789,-5,189,-4673,23,-44,-19,17
379,-3790,-6,186,-4674,23,-44,-19,17
380,-3789,-6,190,-4674,23,-44,-19,17
381,-3786,-6,192,-4672,23,-44,-19,17
382,-3786,-6,191,-4670,23,-44,-19,17
383,-3788,-6,188,-4670,23,-44,-19,17
384,-3792,-5,189,-4671,23,-44,-19,17
385,-3791,-5,188,-4671,23,-44,-19,17
386,-3789,-3,187,-4671,23,-44,-20,17
387,-3788,-5,186,-4669,23,-44,-20,17
388,-3791,-2,186,-4669,23,-44,-20,17
389,-3794,-1,186,-4669,23,-44,-20,17
390,-3793,-3,188,-4670,23,-44,-20,17
391,-3792,-5,187,-4668,23,-44,-20,17
392,-3791,-5,185,-4668,23,-44,-20,17
393,-3789,-6,184,-4668,23,-44,-20,17
394,-3787,-4,184,-4667,23,-44,-20,17
395,-3786,-5,185,-4667,23,-44,-20,17
396,-3786,-4,185,-4668,23,-44,-20,17
397,-3785,-5,187,-4667,23,-44,-20,17
398,-3787,-5,191,-4667,23,-44,-19,17
399,-3789,-3,192,-4665,23,-44,-19,17
400,-3789,-1,193,-4668,23,-44,-19,17
401,-3793,0,196,-4668,23,-44,-19,17
402,-3791,0,194,-4668,23,-44,-19,17
403,-3790,-2,192,-4667,23,-44,-19,17
404,-3787,0,191,-4666,23,-44,-19,17
405,-3785,-3,193,-4666,23,-44,-19,17
406,-3788,-4,193,-4666,23,-44,-19,17
407,-3788,-4,192,-4667,23,-44,-19,17
408,-3788,-3,190,-4667,23,-44,-19,17
409,-3787,-1,188,-4667,23,-44,-19,17
410,-3789,-2,187,-4667,23,-44,-20,17
411,-3788,-3,190,-4667,23,-44,-20,17
412,-3789,-2,185,-4668,23,-44,-20,17
413,-3788,-2,183,-4668,23,-44,-20,17
414,-3790,-3,182,-4669,23,-44,-20,17
415,-3790,-2,185,-4668,23,-44,-20,17
416,-3787,-4,182,-4667,23,-44,-19,17
417,-3787,-1,181,-4669,23,-44,-19,17
418,-3788,-4,188,-4670,23,-44,-19,17
419,-3789,-5,189,-4670,23,-44,-20,17
420,-3791,-7,188,-4668,23,-44,-19,17
421,-3791,-8,190,-4665,23,-44,-20,17
422,-3789,-8,191,-4664,23,-44,-20,17
423,-3788,-5,190,-4664,23,-44,-20,17
424,-3789,-5,190,-4665,23,-44,-19,17
425,-3790,-4,191,-4665,23,-44,-19,17
426,-3787,-1,193,-4665,23,-44,-19,17
427,-3790,0,189,-4666,23,-44,-19,17
428,-3787,-1,190,-4668,23,-44,-19,17
429,-3790,-2,192,-4669,23,-44,-19,17
430,-3791,0,195,-4671,23,-44,-20,17
431,-3789,-2,195,-4671,23,-44,-20,17
432,-3790,-2,194,-4669,23,-44,-20,17
433,-3790,-3,194,-4670,23,-44,-20,17
434,-3789,-2,194,-4669,23,-44,-20,17
435,-3788,-4,197,-4666,23,-44,-20,17
436,-3788,-5,194,-4665,23,-44,-20,17
437,-3790,-5,192,-4665,23,-44,-19,17
438,-3789,-5,191,-4667,23,-44,-20,17
439,-3787,-4,192,-4665,23,-44,-20,17
440,-3788,-4,188,-4665,23,-44,-20,17
441,-3788,-5,187,-4666,23,-44,-20,17
442,-3787,-4,188,-4667,23,-44,-20,17
443,-3789,-2,187,-4668,23,-44,-19,17
444,-3789,-2,189,-4666,23,-44,-19,17
445,-3788,-3,190,-4667,23,-44,-19,17
446,-3791,-3,192,-4666,23,-44,-20,17
447,-3792,-4,193,-4667,23,-44,-20,17
448,-3790,-4,195,-4665,23,-44,-20,18
449,-3791,-5,194,-4664,23,-44,-19,17
450,-3790,-6,194,-4664,23,-44,-19,17
451,-3788,-5,196,-4663,23,-44,-20,17
452,-3788,-5,191,-4661,23,-44,-20,17
453,-3789,-4,190,-4661,23,-44,-19,17
454,-3790,-2,187,-4661,23,-44,-20,17
455,-3791,-2,186,-4661,23,-44,-20,17
456,-3792,-2,185,-4661,23,-44,-19,17
457,-3791,-1,189,-4661,23,-44,-19,17
458,-3791,-2,189,-4661,23,-44,-19,17
459,-3788,-1,189,-4664,23,-44,-19,17
460,-3790,-1,188,-4664,23,-44,-19,17
461,-3792,-3,189,-4664,23,-44,-19,17
462,-3791,0,190,-4664,23,-44,-19,17
463,-3790,-1,189,-4663,23,-44,-19,17
464,-3791,-1,187,-4662,23,-44,-19,17
465,-3790,-4,186,-4662,23,-44,-19,17
466,-3789,-1,186,-4664,23,-44,-20,17
467,-3791,-3,188,-4663,23,-44,-19,17
468,-3791,-4,188,-4665,23,-44,-19,18
469,-3792,-2,186,-4666,23,-44,-19,18
470,-3792,-1,187,-4666,23,-44,-19,17
471,-3790,0,185,-4665,23,-44,-19,17
472,-3789,1,185,-4663,23,-44,-20,17
473,-3786,2,187,-4664,23,-44,-20,17
474,-3787,3,189,-4662,23,-45,-20,17
475,-3789,2,191,-4665,23,-45,-20,17
476,-3789,2,193,-4666,23,-45,-20,17
477,-3787,2,196,-4666,23,-44,-19,17
478,-3788,3,194,-4665,23,-44,-20,17
479,-3789,1,191,-4664,23,-44,-19,17
480,-3788,1,190,-4664,23,-44,-19,17
481,-3789,1,189,-4662,23,-44,-19,17
482,-3789,-1,185,-4664,23,-44,-19,17
483,-3787,1,182,-4663,23,-44,-20,17
484,-3788,0,186,-4663,23,-44,-19,17
485,-3788,-3,189,-4664,23,-45,-20,17
486,-3788,-2,186,-4664,23,-44,-20,17
487,-3786,-2,186,-4662,23,-44,-19,17
488,-3786,-1,186,-4661,23,-44,-20,17
489,-3787,-3,187,-4661,23,-44,-20,17
490,-3787,-1,185,-4664,23,-44,-20,17
491,-3789,0,184,-4664,23,-44,-19,17
492,-3790,-2,182,-4663,23,-44,-19,17
493,-3791,-2,179,-4663,23,-44,-20,17
494,-3790,0,183,-4663,23,-44,-19,17
495,-3791,-1,186,-4663,23,-44,-20,17
496,-3790,-3,183,-4662,23,-44,-20,17
497,-3790,-3,187,-4662,23,-44,-20,17
498,-3790,-4,184,-4664,23,-44,-20,17
499,-3791,-4,185,-4665,23,-44,-20,17
500,-3791,-5,182,-4664,23,-44,-20,17
501,-3793,-4,182,-4663,23,-44,-20,17
502,-3794,-4,180,-4661,23,-44,-20,17
503,-3796,-2,183,-4662,23,-44,-20,17
504,-3797,-1,185,-4664,23,-44,-20,17
505,-3797,1,186,-4664,23,-44,-19,17
506,-3795,-1,185,-4664,23,-44,-19,17
507,-3793,-1,183,-4663,23,-44,-19,17
508,-3791,-1,183,-4662,23,-44,-19,17
509,-3791,1,181,-4663,23,-44,-19,17
510,-3789,-1,183,-4661,23,-44,-20,17
511,-3788,-3,182,-4661,23,-44,-20,17
512,-3789,-4,186,-4661,23,-44,-20,17
513,-3790,-2,187,-4660,23,-44,-20,17
514,-3790,-3,190,-4661,23,-44,-19,17
515,-3790,-5,186,-4663,23,-44,-19,17
516,-3791,-6,188,-4663,23,-44,-19,17
517,-3789,-4,188,-4664,23,-44,-20,17
518,-3788,-5,188,-4664,23,-44,-19,17
519,-3789,-7,185,-4661,23,-44,-19,17
520,-3789,-5,185,-4661,23,-44,-19,17
521,-3789,-4,185,-4664,23,-44,-19,17
522,-3788,-4,186,-4662,23,-44,-19,17
523,-3787,-5,187,-4663,23,-44,-19,17
524,-3787,-5,191,-4661,23,-44,-19,17
525,-3788,-1,193,-4661,23,-44,-19,17
526,-3789,-2,191,-4661,23,-44,-19,17
527,-3786,-3,188,-4662,23,-44,-19,17
528,-3785,-3,192,-4662,23,-44,-19,17
529,-3785,-2,188,-4661,23,-44,-19,17
530,-3783,-4,190,-4661,23,-43,-19,17
531,-3785,-4,190,-4661,23,-43,-19,17
532,-3786,-4,187,-4660,23,-44,-19,17
533,-3786,-2,188,-4660,23,-44,-19,17
534,-3785,-2,187,-4659,23,-44,-19,17
535,-3785,-4,188,-4658,23,-44,-19,17
536,-3787,-2,187,-4659,23,-44,-19,17
537,-3787,-1,190,-4658,23,-44,-19,17
538,-3787,-1,191,-4658,23,-44,-19,17
539,-3787,-1,191,-4660,23,-44,-20,17
540,-3786,-2,194,-4660,23,-44,-19,17
541,-3786,-1,195,-4659,23,-45,-19,17
542,-3788,-6,192,-4660,23,-44,-19,17
543,-3787,-5,188,-4661,23,-44,-20,17
544,-3789,-6,190,-4659,23,-44,-19,17
545,-3791,-6,189,-4657,23,-44,-19,17
546,-3790,-7,190,-4658,23,-44,-19,17
547,-3790,-9,190,-4659,23,-44,-19,17
548,-3792,-7,190,-4658,23,-44,-19,17
549,-3791,-7,190,-4659,23,-44,-19,17
550,-3790,-6,187,-4658,23,-44,-19,17
551,-3789,-6,189,-4657,23,-44,-19,17
552,-3788,-5,189,-4660,23,-44,-20,17
553,-3789,-3,184,-4658,23,-44,-20,17
554,-3787,-2,186,-4658,23,-44,-20,17
555,-3788,-4,188,-4658,23,-44,-20,17
556,-3788,-2,191,-4658,23,-44,-20,17
557,-3787,-2,194,-4658,23,-44,-20,17
558,-3788,-6,192,-4659,23,-44,-20,17
559,-3788,-4,195,-4660,23,-44,-20,17
560,-3789,-5,194,-4662,23,-44,-20,17
561,-3790,-4,193,-4661,23,-44,-20,17
562,-3793,-2,192,-4660,23,-44,-20,17
563,-3791,-3,187,-4659,23,-44,-19,17
564,-3790,-2,188,-4660,23,-44,-19,17
565,-3789,-4,186,-4660,23,-44,-19,17
566,-3788,-4,186,-4661,23,-44,-20,17
567,-3788,-4,188,-4662,23,-44,-19,17
568,-3787,-3,187,-4662,23,-44,-19,17
569,-3787,-2,184,-4660,23,-44,-20,17
570,-3787,-4,179,-4660,23,-44,-19,17
571,-3787,-3,181,-4659,23,-44,-20,17
572,-3788,-1,181,-4658,23,-44,-20,17
573,-3789,-2,182,-4659,23,-44,-19,17
574,-3791,-1,182,-4659,23,-44,-20,17
575,-3789,1,183,-4657,23,-44,-19,17
576,-3789,1,185,-4658,23,-44,-19,17
577,-3787,1,186,-4658,23,-44,-19,17
578,-3787,0,187,-4659,23,-44,-19,17
579,-3789,-2,187,-4658,23,-44,-19,17
580,-3789,-3,187,-4658,23,-44,-19,17
581,-3788,-4,187,-4658,23,-44,-19,17
582,-3791,-3,189,-4658,23,-44,-19,17
583,-3790,-2,189,-4658,23,-44,-19,17
584,-3790,-2,192,-4659,23,-44,-19,17
585,-3789,-3,191,-4660,23,-44,-19,17
586,-3788,-2,189,-4660,23,-44,-19,17
587,-3785,-2,190,-4658,23,-44,-19,17
588,-3784,2,191,-4658,23,-45,-19,17
589,-3785,2,189,-4658,23,-44,-19,17
590,-3786,0,186,-4658,23,-44,-19,17
591,-3788,-1,185,-4658,23,-44,-19,17
592,-3787,-1,185,-4655,23,-44,-19,17
593,-3786,-4,183,-4656,23,-44,-20,17
594,-3784,-5,185,-4657,23,-44,-20,17
595,-3784,-4,187,-4658,23,-44,-19,17
596,-3784,-4,190,-4658,23,-44,-20,17
597,-3787,-3,186,-4658,23,-44,-20,17
598,-3790,-3,182,-4660,23,-44,-20,17
599,-3790,-4,183,-4658,23,-44,-20,17
600,-3788,0,185,-4656,23,-44,-20,17
601,-3788,1,184,-4655,23,-44,-20,18
602,-3788,2,185,-4657,23,-44,-20,17
603,-3791,1,184,-4654,23,-44,-20,17
604,-3788,1,182,-4655,23,-44,-19,17
605,-3789,1,181,-4654,23,-44,-19,17
606,-3789,1,183,-4656,23,-44,-19,17
607,-3789,0,183,-4657,23,-44,-20,17
608,-3789,-3,184,-4655,23,-44,-20,17
609,-3789,-3,188,-4654,23,-44,-20,17
610,-3790,-1,187,-4655,23,-44,-20,17
611,-3788,0,188,-4657,23,-44,-20,17
612,-3790,-1,190,-4656,23,-44,-20,17
613,-3790,2,193,-4657,23,-44,-20,17
614,-3792,0,189,-4656,23,-44,-20,17
615,-3791,0,188,-4657,23,-44,-19,17
616,-3788,2,187,-4656,23,-45,-20,17
617,-3787,1,186,-4655,23,-45,-19,17
618,-3787,-1,184,-4653,23,-44,-20,17
619,-3788,-1,184,-4652,23,-44,-20,17
620,-3788,0,184,-4654,23,-44,-20,17
621,-3789,-1,184,-4653,23,-44,-19,17
622,-3791,3,189,-4653,23,-44,-20,17
623,-3789,2,189,-4652,23,-44,-20,17
624,-3790,0,189,-4651,23,-44,-20,17
625,-3793,0,189,-4651,23,-44,-19,17
626,-3791,0,186,-4650,23,-44,-19,17
627,-3792,0,188,-4650,23,-44,-19,17
628,-3792,-1,187,-4649,23,-44,-19,17
629,-3791,-1,187,-4650,23,-44,-19,17
630,-3791,0,188,-4651,23,-44,-19,17
631,-3789,1,186,-4652,23,-44,-20,17
632,-3789,0,183,-4652,23,-44,-19,17
633,-3790,-2,182,-4654,23,-44,-19,17
634,-3790,0,180,-4654,23,-44,-19,17
635,-3790,1,180,-4655,23,-44,-19,17
636,-3786,2,181,-4657,23,-44,-19,17
637,-3789,-2,183,-4659,23,-44,-19,17
638,-3790,-3,184,-4656,23,-44,-19,17
639,-3792,-2,186,-4657,23,-44,-19,17
640,-3792,-4,184,-4657,23,-44,-19,17
641,-3792,-6,182,-4656,23,-44,-20,17
642,-3793,-8,182,-4657,23,-44,-19,17
643,-3793,-7,184,-4658,23,-44,-19,17
644,-3791,-7,183,-4658,23,-43,-19,17
645,-3792,-7,186,-4657,23,-44,-19,17
646,-3792,-6,187,-4655,23,-44,-19,17
647,-3792,-5,189,-4654,23,-44,-19,17
648,-3792,-4,192,-4655,23,-44,-19,17
649,-3790,-3,189,-4654,23,-44,-19,18
650,-3791,-1,189,-4653,23,-44,-19,17
651,-3793,-4,187,-4653,23,-44,-19,17
652,-3792,-4,190,-4654,23,-44,-19,17
653,-3790,-4,190,-4653,23,-44,-19,17
654,-3788,-4,190,-4655,23,-44,-19,17
655,-3786,-4,192,-4655,23,-44,-20,17
656,-3788,-4,187,-4654,23,-44,-20,17
657,-3790,-5,190,-4653,23,-44,-20,17
658,-3790,-3,189,-4654,23,-44,-20,17
659,-3789,-2,191,-4653,23,-44,-19,17
660,-3789,1,192,-4653,23,-44,-19,17
661,-3790,1,193,-4652,23,-44,-19,17
662,-3790,0,191,-4651,23,-44,-20,17
663,-3790,-2,185,-4652,23,-44,-19,17
664,-3791,-3,184,-4652,23,-44,-20,17
665,-3791,0,187,-4651,23,-44,-20,18
666,-3792,-1,188,-4652,23,-44,-19,17
667,-3790,-1,188,-4653,23,-44,-20,18
668,-3792,-2,186,-4655,23,-44,-20,17
669,-3793,-3,188,-4655,23,-44,-20,17
670,-3790,-5,188,-4654,23,-44,-20,17
671,-3791,-4,187,-4654,23,-44,-20,17
672,-3789,-4,180,-4654,23,-44,-20,17
673,-3790,-6,185,-4652,23,-44,-19,17
674,-3789,-5,185,-4653,23,-44,-19,17
675,-3791,-5,190,-4654,23,-44,-19,17
676,-3790,-7,188,-4654,23,-44,-19,17
677,-3790,-7,187,-4654,23,-44,-19,17
678,-3790,-7,185,-4654,23,-44,-20,17
679,-3787,-9,184,-4654,23,-44,-20,17
680,-3786,-10,183,-4652,23,-44,-20,17
681,-3785,-4,184,-4653,23,-44,-20,17
682,-3783,-5,186,-4652,23,-44,-20,17
683,-3786,-4,187,-4652,23,-44,-20,17
684,-3787,-3,187,-4653,23,-44,-20,17
685,-3787,-4,187,-4655,23,-44,-20,17
686,-3788,-5,187,-4655,23,-44,-20,17
687,-3788,-4,184,-4654,23,-44,-19,17
688,-3788,-3,184,-4654,23,-44,-19,17
689,-3788,-2,185,-4654,23,-44,-20,17
690,-3786,-1,185,-4653,23,-44,-20,17
691,-3787,0,187,-4652,23,-45,-20,17
692,-3787,0,189,-4652,23,-45,-20,17
693,-3788,0,189,-4654,23,-44,-20,17
694,-3790,-1,188,-4652,23,-44,-20,17
695,-3790,-2,186,-4653,23,-44,-20,17
696,-3787,-3,188,-4654,23,-44,-20,17
697,-3787,-6,190,-4654,23,-44,-20,17
698,-3787,-7,191,-4653,23,-44,-20,17
699,-3785,-7,193,-4651,23,-44,-20,17
700,-3786,-5,189,-4651,23,-44,-20,17
701,-3787,-6,187,-4652,23,-44,-20,17
702,-3787,-5,188,-4651,23,-44,-20,17
703,-3785,-6,189,-4653,23,-44,-19,17
704,-3786,-5,190,-4653,23,-44,-20,17
705,-3784,-6,188,-4654,23,-44,-20,17
706,-3784,-6,190,-4652,23,-44,-20,17
707,-3788,-6,189,-4652,23,-44,-20,17
708,-3789,-6,190,-4652,23,-44,-20,17
709,-3790,-8,190,-4651,23,-44,-20,17
710,-3788,-7,194,-4650,23,-44,-20,17
711,-3789,-6,191,-4650,23,-44,-20,17
712,-3789,-6,189,-4650,23,-44,-20,17
713,-3791,-6,191,-4651,23,-44,-19,17
714,-3791,-6,194,-4650,23,-44,-19,17
715,-3791,-5,189,-4650,23,-44,-19,17
716,-3793,-4,192,-4649,23,-44,-19,17
717,-3792,-7,193,-4650,23,-44,-19,17
718,-3789,-6,191,-4648,23,-44,-19,17
719,-3790,-4,190,-4650,23,-44,-19,17
720,-3791,-7,191,-4649,23,-44,-20,17
721,-3790,-5,193,-4650,23,-44,-19,17
722,-3792,-8,193,-4648,23,-44,-20,17
723,-3793,-7,196,-4650,23,-44,-20,17
724,-3793,-7,198,-4650,23,-44,-20,17
725,-3793,-6,198,-4650,23,-44,-20,17
726,-3790,-6,193,-4649,23,-44,-20,17
727,-3788,-5,194,-4649,23,-44,-19,17
728,-3785,-6,193,-4649,23,-44,-19,17
729,-3788,-6,193,-4650,23,-44,-19,17
730,-3790,-2,193,-4650,23,-44,-20,17
731,-3789,0,191,-4650,23,-44,-20,17
732,-3788,0,189,-4652,23,-44,-20,17
733,-3786,0,189,-4651,23,-44,-19,17
734,-3787,-3,189,-4650,23,-44,-19,17
735,-3792,-5,191,-4649,23,-44,-19,17
736,-3790,-5,194,-4649,23,-44,-19,17
737,-3789,-6,194,-4651,23,-44,-19,17
738,-3789,-6,194,-4651,23,-44,-20,17
739,-3786,-4,191,-4649,23,-44,-20,17
740,-3784,-4,192,-4648,23,-44,-20,17
741,-3785,-6,189,-4650,23,-44,-20,17
742,-3789,-7,186,-4652,23,-44,-20,17
743,-3787,-6,185,-4652,23,-44,-20,17
744,-3785,-6,189,-4649,23,-44,-19,17
745,-3785,-6,190,-4649,23,-44,-19,17
746,-3785,-3,192,-4648,23,-44,-20,17
747,-3786,-4,193,-4647,23,-44,-19,17
748,-3788,-5,193,-4648,23,-44,-19,17
749,-3788,-1,191,-4648,23,-44,-19,17
750,-3790,-1,192,-4647,23,-44,-20,17
751,-3793,-1,191,-4648,23,-44,-19,17
752,-3789,0,191,-4647,23,-44,-19,17
753,-3790,0,190,-4649,23,-44,-20,17
754,-3790,-1,186,-4649,23,-44,-20,17
755,-3788,0,189,-4650,23,-44,-20,17
756,-3787,0,189,-4648,23,-44,-20,17
757,-3787,-1,190,-4647,23,-44,-20,17
758,-3788,-1,189,-4644,23,-44,-20,17
759,-3788,-2,188,-4645,23,-44,-19,17
760,-3789,-1,190,-4647,23,-44,-19,17
761,-3790,-3,187,-4648,23,-44,-20,17
762,-3789,-3,185,-4647,23,-44,-20,17
763,-3791,-5,187,-4648,23,-44,-19,17
764,-3792,-3,184,-4648,23,-44,-20,17
765,-3791,-1,183,-4650,23,-44,-20,17
766,-3791,-3,184,-4648,23,-44,-20,17
767,-3793,-3,183,-4651,23,-44,-20,17
768,-3793,-3,186,-4651,23,-44,-20,17
769,-3789,-2,186,-4651,23,-44,-20,17
770,-3790,-3,185,-4650,23,-44,-20,17
771,-3789,-5,185,-4650,23,-44,-20,17
772,-3790,-4,185,-4651,23,-44,-20,17
773,-3791,-2,186,-4650,23,-44,-20,17
774,-3791,-3,185,-4649,23,-44,-19,17
775,-3791,-3,184,-4647,23,-44,-19,17
776,-3793,0,183,-4646,23,-44,-19,17
777,-3791,0,186,-4646,23,-44,-19,17
778,-3790,-2,186,-4646,23,-44,-19,17
779,-3792,-6,188,-4646,23,-44,-20,17
780,-3791,-5,187,-4647,23,-44,-20,17
781,-3790,-5,190,-4647,23,-44,-20,17
782,-3793,-7,191,-4647,23,-44,-20,17
783,-3791,-8,189,-4647,23,-44,-20,17
784,-3790,-8,187,-4647,23,-44,-20,17
785,-3790,-5,185,-4646,23,-44,-20,17
786,-3791,-5,183,-4646,23,-44,-20,17
787,-3791,-4,183,-4646,23,-44,-20,17
788,-3790,-4,188,-4644,23,-45,-20,17
789,-3788,0,189,-4645,23,-44,-20,17
790,-3788,2,187,-4643,23,-44,-19,18
791,-3791,1,188,-4644,23,-44,-20,17
792,-3792,0,186,-4643,23,-44,-19,17
793,-3792,-1,185,-4644,23,-44,-19,17
794,-3791,-2,184,-4643,23,-44,-19,17
795,-3789,-3,191,-4642,23,-44,-19,17
796,-3789,-4,191,-4644,23,-44,-20,17
797,-3788,-3,194,-4644,23,-44,-19,17
798,-3791,-3,195,-4642,23,-44,-19,17
799,-3788,-3,193,-4644,23,-44,-19,17
800,-3788,-5,190,-4644,23,-44,-19,17
801,-3788,-5,192,-4644,23,-44,-20,17
802,-3785,-6,195,-4647,23,-44,-20,17
803,-3787,-2,192,-4648,23,-44,-20,17
804,-3788,0,190,-4648,23,-44,-20,17
805,-3790,-4,187,-4650,23,-44,-20,17
806,-3790,-4,189,-4649,23,-44,-20,17
807,-3789,-3,190,-4649,23,-44,-19,17
808,-3787,-6,186,-4647,23,-43,-19,17
809,-3788,-4,187,-4645,23,-43,-19,17
810,-3788,-3,186,-4645,23,-44,-19,17
811,-3789,-5,188,-4645,23,-44,-19,17
812,-3789,-6,189,-4645,23,-44,-19,17
813,-3790,-5,188,-4645,23,-44,-20,17
814,-3791,-5,186,-4643,23,-44,-20,17
815,-3791,-5,189,-4644,23,-44,-20,17
816,-3791,-4,190,-4644,23,-44,-19,17
817,-3792,-3,188,-4645,23,-44,-19,17
818,-3789,-2,188,-4644,23,-44,-19,17
819,-3787,-3,189,-4644,23,-44,-19,17
820,-3785,-5,189,-4643,23,-44,-19,17
821,-3786,-4,192,-4643,23,-44,-20,17
822,-3785,-4,192,-4643,23,-44,-20,17
823,-3787,-4,189,-4642,23,-44,-20,17
824,-3786,-4,187,-4641,23,-44,-19,17
825,-3788,-4,187,-4640,23,-44,-19,17
826,-3788,-3,184,-4641,23,-44,-19,17
827,-3788,-6,188,-4641,23,-44,-20,17
828,-3788,-4,191,-4641,23,-44,-20,17
829,-3786,-3,196,-4642,23,-44,-20,17
830,-3785,-3,198,-4641,23,-44,-20,17
831,-3788,-2,196,-4643,23,-44,-20,17
832,-3789,-1,196,-4643,23,-44,-20,17
833,-3789,0,196,-4643,23,-44,-20,17
834,-3790,-3,195,-4642,23,-44,-19,17
835,-3792,-1,193,-4643,23,-44,-19,17
836,-3794,1,192,-4643,23,-44,-19,17
837,-3793,0,188,-4644,23,-44,-19,17
838,-3790,1,186,-4642,23,-44,-20,18
839,-3791,0,185,-4643,23,-44,-20,17
840,-3791,-1,186,-4645,23,-44,-20,17
841,-3791,-4,187,-4644,23,-44,-19,17
842,-3793,-4,190,-4644,23,-44,-20,17
843,-3791,-2,191,-4643,23,-44,-20,17
844,-3789,-6,189,-4643,23,-44,-20,17
845,-3790,-6,190,-4642,23,-44,-20,17
846,-3793,-5,187,-4641,23,-44,-20,17
847,-3795,-6,187,-4642,23,-44,-20,17
848,-3794,-9,185,-4642,23,-44,-20,17
849,-3792,-7,187,-4642,23,-44,-20,17
850,-3791,-9,187,-4643,23,-44,-19,17
851,-3787,-7,191,-4642,23,-44,-19,17
852,-3789,-6,194,-4642,23,-44,-20,17
853,-3790,-6,191,-4642,23,-44,-19,17
854,-3789,-5,188,-4643,23,-44,-19,17
855,-3787,-3,188,-4644,23,-44,-19,17
856,-3788,-2,189,-4644,23,-44,-20,17
857,-3789,-3,188,-4644,23,-44,-20,17
858,-3787,-4,184,-4642,23,-44,-20,17
859,-3787,-6,182,-4643,23,-44,-20,17
860,-3790,-7,184,-4643,23,-44,-20,17
861,-3792,-6,187,-4643,23,-44,-20,17
862,-3791,-6,187,-4643,23,-44,-20,17
863,-3792,-6,190,-4643,23,-44,-20,17
864,-3791,-4,185,-4644,23,-44,-20,17
865,-3791,-4,185,-4646,23,-44,-20,17
866,-3790,-3,186,-4645,23,-44,-20,17
867,-3789,-6,187,-4645,23,-44,-20,17
868,-3790,-5,191,-4645,23,-44,-20,17
869,-3791,-2,193,-4645,23,-44,-20,17
870,-3792,-3,197,-4644,23,-44,-20,17
871,-3793,-2,195,-4644,23,-44,-20,17
872,-3792,-2,193,-4645,23,-44,-20,17
873,-3790,-1,192,-4644,23,-44,-20,17
874,-3792,-2,189,-4646,23,-44,-20,17
875,-3790,-4,185,-4645,23,-44,-20,17
876,-3789,-2,187,-4641,23,-44,-20,17
877,-3787,0,184,-4643,23,-44,-20,17
878,-3788,0,182,-4643,23,-44,-20,17
879,-3789,-1,184,-4644,23,-44,-19,17
880,-3790,-1,181,-4643,23,-44,-19,17
881,-3790,0,183,-4644,23,-44,-19,17
882,-3790,-2,186,-4645,23,-44,-19,17
883,-3789,1,184,-4645,23,-44,-20,17
884,-3790,-1,186,-4644,23,-44,-20,17
885,-3787,-1,188,-4646,23,-44,-19,17
886,-3787,-1,191,-4643,23,-45,-19,17
887,-3786,-1,188,-4641,23,-44,-19,17
888,-3789,0,189,-4640,23,-45,-19,17
889,-3788,0,189,-4640,23,-45,-19,17
890,-3789,-1,190,-4639,23,-44,-19,17
891,-3788,0,190,-4639,23,-44,-19,17
892,-3788,-3,184,-4641,23,-44,-19,17
893,-3788,-6,185,-4642,23,-44,-19,17
894,-3788,-5,190,-4643,23,-44,-19,17
895,-3786,-6,189,-4644,23,-44,-19,17
896,-3787,-5,190,-4642,23,-44,-20,17
897,-3787,-5,186,-4641,23,-44,-20,17
898,-3786,-4,187,-4642,23,-44,-20,17
899,-3786,-4,188,-4641,23,-44,-20,17
900,-3785,-5,187,-4641,23,-44,-20,17
901,-3787,-4,190,-4641,23,-44,-20,17
902,-3789,-4,192,-4641,23,-44,-20,17
903,-3790,-3,193,-4644,23,-44,-19,17
904,-3788,-6,192,-4644,23,-44,-19,17
905,-3790,-5,192,-4643,23,-44,-20,17
906,-3788,-6,193,-4642,23,-44,-19,17
907,-3790,-6,188,-4643,23,-44,-19,17
908,-3789,-7,187,-4644,23,-44,-19,17
909,-3789,-4,190,-4643,23,-44,-19,17
910,-3787,-7,191,-4641,23,-44,-19,17
911,-3786,-8,189,-4641,23,-44,-19,17
912,-3786,-7,188,-4641,23,-44,-19,17
913,-3783,-7,187,-4640,23,-44,-19,17
914,-3785,-3,186,-4638,23,-44,-19,17
915,-3785,-2,186,-4639,23,-44,-20,17
916,-3788,-3,190,-4640,23,-44,-20,17
917,-3787,-4,188,-4640,23,-44,-20,17
918,-3788,-4,191,-4640,23,-44,-20,17
919,-3789,0,190,-4641,23,-44,-20,17
920,-3789,1,189,-4641,23,-44,-20,17
921,-3790,-1,186,-4640,23,-44,-20,17
922,-3790,-2,189,-4637,23,-44,-20,17
923,-3786,-2,193,-4638,23,-44,-20,17
924,-3786,-3,192,-4639,23,-44,-20,17
925,-3786,-5,190,-4639,23,-44,-19,16
926,-3786,-5,193,-4639,23,-44,-20,16
927,-3786,-5,193,-4637,23,-44,-19,17
928,-3787,-6,192,-4639,23,-44,-19,17
929,-3786,-4,193,-4639,23,-44,-20,17
930,-3784,-3,193,-4639,23,-44,-19,17
931,-3786,-1,192,-4641,23,-44,-19,17
932,-3785,-2,192,-4640,23,-44,-19,17
933,-3784,-4,189,-4641,23,-44,-19,18
934,-3785,-3,189,-4641,23,-44,-19,17
935,-3786,-2,190,-4642,23,-44,-19,17
936,-3789,0,188,-4642,23,-44,-20,17
937,-3788,1,190,-4641,23,-44,-20,17
938,-3789,1,189,-4643,23,-44,-20,17
939,-3793,-2,191,-4642,23,-44,-20,17
940,-3791,-5,188,-4640,23,-44,-20,17
941,-3791,-4,189,-4638,23,-44,-19,17
942,-3792,-3,194,-4640,23,-44,-20,17
943,-3791,-5,193,-4641,23,-44,-20,17
944,-3789,-5,188,-4643,23,-44,-20,17
945,-3788,-3,190,-4641,23,-44,-19,17
946,-3787,-5,192,-4641,23,-44,-20,17
947,-3786,-2,187,-4641,23,-45,-20,17
948,-3788,-1,185,-4640,23,-44,-20,17
949,-3787,-1,185,-4640,23,-44,-20,17
950,-3788,-2,189,-4640,23,-44,-19,17
951,-3790,-2,193,-4642,23,-44,-19,17
952,-3789,-2,193,-4641,23,-44,-19,17
953,-3790,-2,189,-4642,23,-44,-19,17
954,-3787,-1,186,-4641,23,-44,-19,17
955,-3788,-1,192,-4640,23,-44,-19,17
956,-3790,0,192,-4640,23,-44,-19,17
957,-3790,-2,191,-4639,23,-44,-19,18
958,-3789,-3,190,-4640,23,-44,-19,18
959,-3789,-3,190,-4640,23,-44,-19,18
960,-3789,-2,192,-4639,23,-44,-19,17
961,-3790,-4,191,-4639,23,-44,-19,17
962,-3789,-6,188,-4640,23,-44,-19,17
963,-3791,-5,191,-4641,23,-44,-19,17
964,-3788,-6,189,-4641,23,-44,-19,17
965,-3788,-8,190,-4641,23,-44,-19,18
966,-3788,-6,193,-4641,23,-44,-19,17
967,-3786,-4,189,-4642,23,-44,-19,17
968,-3788,-4,190,-4642,23,-44,-19,17
969,-3788,-5,189,-4641,23,-44,-19,17
970,-3789,-3,189,-4639,23,-44,-19,17
971,-3788,-2,189,-4637,23,-44,-19,17
972,-3787,1,190,-4637,23,-44,-19,17
973,-3789,0,188,-4637,23,-44,-19,17
974,-3788,-2,187,-4638,23,-44,-19,17
975,-3789,-3,190,-4638,23,-44,-19,17
976,-3789,-1,186,-4637,23,-44,-19,17
977,-3787,-3,185,-4638,23,-44,-19,17
978,-3789,-4,187,-4637,23,-44,-20,17
979,-3788,-3,188,-4638,23,-44,-19,17
980,-3789,-3,186,-4640,23,-44,-19,17
981,-3791,-3,188,-4642,23,-44,-20,17
982,-3791,-3,189,-4642,23,-44,-19,17
983,-3791,-4,189,-4643,23,-45,-19,17
984,-3791,-2,191,-4643,23,-44,-20,17
985,-3788,-3,192,-4642,23,-44,-19,17
986,-3787,-5,192,-4641,23,-44,-19,17
987,-3786,-4,190,-4641,23,-44,-19,17
988,-3788,-4,193,-4641,23,-44,-19,17
989,-3787,-2,192,-4642,23,-44,-19,17
990,-3786,-2,192,-4641,23,-44,-19,17
991,-3786,-4,191,-4640,23,-44,-19,17
992,-3788,-4,190,-4640,23,-44,-19,17
993,-3787,-5,190,-4639,23,-44,-19,17
994,-3787,-3,191,-4641,23,-44,-19,17
995,-3786,-4,193,-4641,23,-44,-19,17
