,acc_X,acc_Y,acc_Z,temp,tempC,gyr_X,gyr_Y,gyr_Z
0,-15216,-6,798,-4710,23,-168,-80,71
1,-15220,34,674,-4697,23,-163,-74,71
2,-15076,-52,692,-4711,23,-184,-83,70
3,-15118,-44,834,-4718,23,-174,-83,74
4,-15160,-38,728,-4704,23,-184,-75,75
5,-15126,2,788,-4708,23,-175,-78,73
6,-15178,16,658,-4698,23,-173,-74,66
7,-15166,-72,618,-4710,23,-166,-83,69
8,-15190,36,714,-4727,23,-177,-79,71
9,-15148,-50,722,-4707,23,-170,-73,71
10,-15118,20,782,-4692,23,-168,-75,78
11,-15198,-20,814,-4704,23,-174,-80,68
12,-15162,-2,664,-4718,23,-169,-82,74
13,-15136,-90,636,-4690,23,-169,-67,78
14,-15152,-12,868,-4696,23,-170,-77,73
15,-15080,0,688,-4715,23,-182,-81,70
16,-15198,-48,762,-4715,23,-163,-81,72
17,-15236,40,722,-4711,23,-180,-80,71
18,-15194,26,844,-4712,23,-174,-82,62
19,-15150,-28,736,-4700,23,-176,-77,67
20,-15136,60,760,-4711,23,-175,-78,81
21,-15186,-20,720,-4709,23,-173,-78,68
22,-15210,38,606,-4700,23,-176,-68,65
23,-15164,-12,700,-4712,23,-171,-67,59
24,-15182,-32,638,-4703,23,-176,-67,64
25,-15140,-4,756,-4704,23,-177,-75,70
26,-15144,-66,802,-4704,23,-173,-79,69
27,-15170,-46,740,-4716,23,-175,-69,72
28,-15190,8,820,-4708,23,-181,-67,76
29,-15132,-90,816,-4701,23,-175,-78,75
30,-15160,-26,726,-4710,23,-174,-80,68
31,-15152,66,808,-4701,23,-179,-70,61
32,-15146,-110,734,-4703,23,-169,-73,69
33,-15074,-4,726,-4714,23,-170,-79,68
34,-15208,-36,824,-4702,23,-171,-81,64
35,-15176,68,742,-4720,23,-178,-75,68
36,-15220,-40,776,-4707,23,-173,-75,68
37,-15108,-4,816,-4707,23,-170,-75,70
38,-15068,18,886,-4709,23,-168,-77,62
39,-15184,50,838,-4710,23,-178,-81,64
40,-15190,34,796,-4705,23,-178,-85,74
41,-15144,-78,682,-4701,23,-175,-72,67
42,-15202,-2,770,-4706,23,-164,-73,74
43,-15104,-58,732,-4699,23,-178,-75,69
44,-15196,32,760,-4703,23,-180,-82,72
45,-15170,-100,740,-4706,23,-177,-75,74
46,-15184,40,734,-4691,23,-169,-73,71
47,-15118,-6,642,-4708,23,-176,-70,72
48,-15156,-26,718,-4693,23,-170,-74,74
49,-15112,4,686,-4706,23,-168,-70,69
50,-15096,-54,728,-4706,23,-165,-80,70
51,-15142,-78,726,-4717,23,-181,-70,63
52,-15150,30,784,-4704,23,-162,-87,73
53,-15120,30,628,-4700,23,-172,-96,74
54,-15140,-6,816,-4712,23,-168,-75,71
55,-15142,-80,786,-4709,23,-182,-80,76
56,-15158,10,782,-4709,23,-171,-81,65
57,-15078,-42,734,-4711,23,-174,-75,77
58,-15160,26,820,-4708,23,-179,-78,69
59,-15150,18,818,-4709,23,-175,-77,70
60,-15168,46,700,-4696,23,-169,-74,66
61,-15152,90,816,-4707,23,-167,-81,74
62,-15154,-26,886,-4698,23,-166,-79,66
63,-15102,-16,718,-4714,23,-181,-68,72
64,-15136,-52,688,-4702,23,-169,-84,68
65,-15082,-62,784,-4712,23,-168,-71,68
66,-15172,-86,716,-4697,23,-161,-71,61
67,-15140,-2,882,-4698,23,-173,-82,65
68,-15172,-38,724,-4724,23,-169,-73,62
69,-15130,0,806,-4706,23,-175,-77,72
70,-15138,-22,738,-4695,23,-177,-76,64
71,-15122,-62,750,-4701,23,-175,-66,69
72,-15200,-36,756,-4704,23,-172,-74,61
73,-15168,-28,758,-4712,23,-162,-74,74
74,-15106,22,654,-4727,23,-174,-74,70
75,-15162,12,590,-4701,23,-170,-83,72
76,-15100,54,710,-4712,23,-173,-68,67
77,-15168,-42,792,-4700,23,-173,-75,74
78,-15196,-46,818,-4704,23,-175,-71,73
79,-15156,38,684,-4705,23,-170,-81,67
80,-15158,-20,800,-4706,23,-184,-73,72
81,-15150,-36,760,-4704,23,-174,-76,69
82,-15108,6,708,-4702,23,-171,-78,71
83,-15098,16,830,-4697,23,-174,-75,66
84,-15148,34,774,-4719,23,-177,-82,72
85,-15084,-24,720,-4706,23,-172,-81,71
86,-15112,-78,636,-4711,23,-166,-72,72
87,-15190,0,828,-4713,23,-175,-69,60
88,-15192,74,618,-4711,23,-179,-86,65
89,-15190,-44,742,-4715,23,-179,-74,69
90,-15114,60,774,-4694,23,-182,-87,63
91,-15082,14,738,-4701,23,-179,-79,70
92,-15086,20,698,-4707,23,-175,-83,72
93,-15262,-32,708,-4703,23,-174,-81,68
94,-15126,32,618,-4706,23,-172,-73,72
95,-15118,-40,614,-4701,23,-167,-81,69
96,-15166,34,766,-4692,23,-175,-74,69
97,-15138,-42,764,-4705,23,-182,-81,67
98,-15110,-16,716,-4715,23,-180,-87,70
99,-15152,24,834,-4693,23,-185,-74,65
100,-15222,-38,756,-4709,23,-175,-72,70
101,-15108,-6,716,-4701,23,-168,-80,79
102,-15244,-72,762,-4691,23,-171,-74,69
103,-15146,46,768,-4703,23,-178,-86,78
104,-15122,0,756,-4709,23,-168,-70,65
105,-15146,44,672,-4704,23,-180,-79,72
106,-15122,52,812,-4723,23,-174,-84,65
107,-15112,-6,770,-4702,23,-166,-73,69
108,-15092,70,702,-4707,23,-160,-68,73
109,-15262,16,802,-4710,23,-176,-68,74
110,-15116,-4,814,-4706,23,-178,-81,74
111,-15250,-88,722,-4706,23,-185,-75,65
112,-15118,12,758,-4706,23,-172,-72,64
113,-15178,-12,774,-4700,23,-173,-68,71
114,-15128,-62,798,-4697,23,-167,-83,67
115,-15118,-46,758,-4718,23,-176,-79,67
116,-15250,-26,746,-4717,23,-170,-74,68
117,-15144,-6,802,-4700,23,-176,-74,66
118,-15120,58,612,-4712,23,-171,-76,71
119,-15154,80,728,-4707,23,-174,-75,73
120,-15154,-102,842,-4700,23,-182,-81,69
121,-15200,-18,692,-4699,23,-170,-74,78
122,-15130,-40,724,-4712,23,-176,-79,60
123,-15122,-104,758,-4700,23,-174,-84,65
124,-15196,-76,642,-4703,23,-166,-87,70
125,-15142,-6,748,-4712,23,-174,-65,71
126,-15238,38,704,-4705,23,-180,-78,68
127,-15200,-58,720,-4708,23,-174,-77,64
128,-15124,60,724,-4698,23,-176,-74,69
129,-15162,-30,820,-4703,23,-177,-74,78
130,-15120,-46,806,-4723,23,-172,-85,72
131,-15200,-24,824,-4703,23,-179,-76,66
132,-15136,30,760,-4710,23,-177,-78,72
133,-15134,-44,748,-4712,23,-169,-74,66
134,-15232,-46,716,-4705,23,-177,-85,68
135,-15074,2,800,-4696,23,-169,-75,64
136,-15184,8,788,-4709,23,-180,-75,63
137,-15108,8,760,-4707,23,-173,-79,73
138,-15192,36,732,-4702,23,-168,-77,69
139,-15120,-54,886,-4698,23,-178,-81,76
140,-15102,-58,690,-4707,23,-176,-72,69
141,-15180,-100,820,-4699,23,-173,-80,70
142,-15188,-84,806,-4707,23,-168,-73,64
143,-15146,16,778,-4702,23,-174,-77,72
144,-15228,50,700,-4701,23,-178,-80,68
145,-15114,-66,796,-4713,23,-182,-87,77
146,-15118,12,816,-4713,23,-172,-78,62
147,-15142,22,862,-4690,23,-179,-77,68
148,-15198,-10,748,-4704,23,-186,-84,74
149,-15072,-110,838,-4704,23,-180,-74,68
150,-15178,-10,734,-4702,23,-178,-77,74
151,-15180,76,830,-4700,23,-183,-76,69
152,-15108,-28,762,-4715,23,-180,-87,71
153,-15226,-6,782,-4708,23,-170,-82,64
154,-15190,-16,658,-4706,23,-174,-78,61
155,-15162,-28,910,-4695,23,-171,-79,66
156,-15062,36,828,-4714,23,-178,-76,78
157,-15172,-22,824,-4698,23,-180,-80,71
158,-15168,20,734,-4696,23,-171,-85,64
159,-15130,-26,732,-4694,23,-180,-78,66
160,-15146,-32,740,-4707,23,-170,-70,76
161,-15134,-4,804,-4713,23,-175,-81,70
162,-15134,-6,668,-4716,23,-175,-77,73
163,-15140,-62,830,-4701,23,-173,-74,74
164,-15158,64,636,-4709,23,-169,-77,62
165,-15126,22,742,-4702,23,-177,-85,72
166,-15146,92,726,-4702,23,-173,-79,61
167,-15216,-106,646,-4701,23,-172,-79,68
168,-15152,-18,720,-4695,23,-169,-74,70
169,-15148,6,818,-4722,23,-179,-79,71
170,-15146,-124,862,-4691,23,-174,-79,68
171,-15086,50,754,-4703,23,-182,-76,62
172,-15128,-126,790,-4706,23,-176,-66,64
173,-15132,20,768,-4706,23,-168,-77,66
174,-15172,10,698,-4708,23,-174,-73,69
175,-15116,-58,902,-4701,23,-177,-76,66
176,-15090,-24,814,-4697,23,-174,-74,66
177,-15136,-8,790,-4701,23,-183,-76,66
178,-15172,16,704,-4698,23,-171,-75,74
179,-15144,24,890,-4711,23,-174,-77,74
180,-15106,-10,780,-4712,23,-171,-76,62
181,-15142,-70,718,-4710,23,-178,-78,73
182,-15196,66,696,-4705,23,-177,-80,71
183,-15256,-18,732,-4693,23,-172,-82,63
184,-15174,-74,792,-4691,23,-174,-74,71
185,-15098,-60,698,-4717,23,-166,-89,78
186,-15182,-158,750,-4697,23,-174,-74,76
187,-15200,-62,678,-4706,23,-176,-78,69
188,-15192,0,824,-4702,23,-177,-74,66
189,-15206,14,774,-4699,23,-168,-77,67
190,-15162,-106,752,-4702,23,-168,-79,65
191,-15112,4,806,-4693,23,-177,-76,68
192,-15212,-14,762,-4690,23,-170,-86,69
193,-15160,6,732,-4702,23,-175,-81,74
194,-15140,4,740,-4704,23,-170,-84,68
195,-15202,-58,854,-4701,23,-169,-75,70
196,-15160,30,844,-4707,23,-174,-84,69
197,-15184,20,716,-4715,23,-174,-82,70
198,-15128,-24,670,-4706,23,-173,-71,74
199,-15096,-38,800,-4704,23,-173,-72,66
200,-15180,-8,788,-4705,23,-180,-68,71
201,-15130,-72,796,-4704,23,-175,-78,65
202,-15170,-4,764,-4711,23,-167,-78,62
203,-15158,-12,762,-4712,23,-177,-80,62
204,-15142,12,786,-4705,23,-173,-77,72
205,-15128,-62,686,-4697,23,-184,-77,67
206,-15232,-14,704,-4711,23,-177,-68,73
207,-15212,-50,638,-4693,23,-174,-73,65
208,-15216,12,798,-4710,23,-176,-79,73
209,-15142,-62,840,-4711,23,-165,-75,71
210,-15238,-58,654,-4706,23,-173,-83,71
211,-15200,-54,678,-4700,23,-180,-74,68
212,-15090,-60,824,-4706,23,-180,-78,64
213,-15076,-8,676,-4703,23,-173,-75,77
214,-15116,-80,668,-4694,23,-172,-67,61
215,-15156,-110,744,-4703,23,-180,-81,70
216,-15120,-40,762,-4681,23,-171,-74,72
217,-15046,20,792,-4703,23,-170,-75,77
218,-15156,24,826,-4703,23,-177,-74,63
219,-15248,22,700,-4702,23,-175,-75,63
220,-15156,-70,814,-4703,23,-172,-81,67
221,-15182,94,788,-4707,23,-175,-76,61
222,-15166,-40,638,-4707,23,-174,-74,61
223,-15172,18,804,-4699,23,-176,-71,62
224,-15166,-16,774,-4703,23,-168,-71,77
225,-15128,-48,684,-4704,23,-171,-78,65
226,-15118,-82,672,-4706,23,-168,-73,68
227,-15110,2,780,-4714,23,-171,-66,70
228,-15132,-42,664,-4694,23,-177,-80,71
229,-15156,4,888,-4698,23,-171,-77,63
230,-15162,10,800,-4699,23,-170,-82,68
231,-15154,-42,800,-4706,23,-173,-80,70
232,-15082,-6,848,-4700,23,-171,-80,68
233,-15094,-72,836,-4716,23,-180,-74,77
234,-15164,0,752,-4692,23,-170,-78,70
235,-15124,18,736,-4709,23,-177,-69,68
236,-15094,-30,672,-4704,23,-183,-70,72
237,-15158,14,704,-4697,23,-188,-77,68
238,-15226,28,846,-4705,23,-162,-82,75
239,-15186,-8,744,-4715,23,-169,-67,71
240,-15118,-28,806,-4698,23,-181,-88,70
241,-15126,-108,716,-4710,23,-179,-85,75
242,-15110,-44,702,-4706,23,-170,-77,73
243,-15140,40,786,-4703,23,-179,-75,67
244,-15082,-54,762,-4725,23,-173,-79,75
245,-15080,-14,684,-4719,23,-177,-83,71
246,-15150,4,646,-4706,23,-182,-85,72
247,-15126,42,762,-4700,23,-173,-80,71
248,-15104,-20,804,-4699,23,-180,-71,65
249,-15124,-152,728,-4699,23,-174,-91,73
250,-15154,-8,698,-4692,23,-177,-86,67
251,-15230,-32,806,-4708,23,-175,-85,69
252,-15216,0,728,-4697,23,-178,-78,74
253,-15106,2,694,-4717,23,-169,-79,70
254,-15114,-86,680,-4699,23,-171,-80,69
255,-15124,4,680,-4701,23,-169,-78,72
256,-15146,14,668,-4699,23,-175,-73,73
257,-15100,-24,816,-4696,23,-169,-80,62
258,-15164,-38,718,-4715,23,-173,-84,75
259,-15238,54,788,-4700,23,-171,-75,69
260,-15070,-58,722,-4708,23,-184,-84,67
261,-15240,-12,818,-4708,23,-168,-75,69
262,-15124,-52,724,-4710,23,-167,-77,73
263,-15170,10,776,-4701,23,-170,-78,73
264,-15096,-2,750,-4700,23,-175,-64,69
265,-15112,-24,742,-4692,23,-175,-81,78
266,-15164,-24,854,-4710,23,-169,-65,64
267,-15118,34,710,-4709,23,-178,-77,71
268,-15130,-42,808,-4698,23,-174,-80,67
269,-15152,-76,804,-4701,23,-178,-78,70
270,-15220,-4,606,-4694,23,-171,-77,66
271,-15126,88,814,-4705,23,-181,-76,66
272,-15160,-2,846,-4699,23,-179,-73,67
273,-15134,18,808,-4710,23,-181,-80,74
274,-15196,-78,844,-4705,23,-178,-76,70
275,-15128,-18,708,-4705,23,-171,-79,73
276,-15138,16,702,-4697,23,-175,-80,62
277,-15174,98,776,-4696,23,-179,-74,68
278,-15178,-48,774,-4700,23,-170,-84,64
279,-15200,-36,798,-4705,23,-172,-73,72
280,-15168,64,748,-4696,23,-170,-69,76
281,-15158,0,784,-4700,23,-173,-76,69
282,-15154,-2,808,-4704,23,-172,-71,70
283,-15050,42,686,-4708,23,-179,-76,75
284,-15174,-18,630,-4705,23,-174,-83,62
285,-15164,8,778,-4707,23,-173,-75,71
286,-15206,28,732,-4701,23,-174,-77,65
287,-15106,-16,814,-4701,23,-169,-68,67
288,-15212,-14,832,-4702,23,-171,-76,69
289,-15234,-30,764,-4701,23,-175,-83,65
290,-15198,26,850,-4709,23,-172,-75,70
291,-15126,-64,784,-4703,23,-174,-79,73
292,-15138,-34,724,-4703,23,-167,-77,72
293,-15120,-46,854,-4705,23,-166,-69,71
294,-15168,-48,822,-4705,23,-172,-76,71
295,-15106,28,740,-4703,23,-184,-74,67
296,-15178,-40,702,-4696,23,-182,-72,68
297,-15076,-14,738,-4707,23,-177,-86,59
298,-15128,-10,684,-4706,23,-180,-81,77
299,-15138,12,712,-4705,23,-180,-72,65
300,-15238,-48,694,-4700,23,-174,-70,63
301,-15214,-12,756,-4688,23,-183,-78,74
302,-15150,-44,758,-4713,23,-170,-83,61
303,-15200,-12,744,-4705,23,-177,-82,66
304,-15164,50,674,-4703,23,-166,-79,71
305,-15198,-80,722,-4711,23,-180,-77,67
306,-15054,58,648,-4706,23,-178,-85,67
307,-15126,-34,640,-4698,23,-182,-90,65
308,-15156,10,656,-4708,23,-158,-72,69
309,-15090,-2,760,-4721,23,-179,-75,66
310,-15170,-32,764,-4704,23,-171,-80,70
311,-15172,28,734,-4704,23,-177,-80,75
312,-15094,10,724,-4706,23,-177,-74,68
313,-15182,0,664,-4705,23,-172,-78,62
314,-15210,-24,706,-4711,23,-166,-71,62
315,-15146,-94,944,-4700,23,-169,-73,71
316,-15188,20,684,-4702,23,-184,-73,74
317,-15136,-64,650,-4695,23,-178,-74,70
318,-15190,6,886,-4711,23,-171,-78,76
319,-15128,4,652,-4706,23,-180,-81,71
320,-15074,-4,692,-4704,23,-175,-82,67
321,-15124,-44,644,-4696,23,-174,-71,65
322,-15130,-20,652,-4692,23,-182,-77,74
323,-15138,-18,840,-4695,23,-170,-72,71
324,-15246,0,702,-4698,23,-174,-76,70
325,-15120,28,744,-4695,23,-169,-74,73
326,-15152,-78,788,-4708,23,-168,-77,74
327,-15144,34,754,-4713,23,-174,-72,79
328,-15106,-18,744,-4698,23,-171,-78,78
329,-15112,-44,858,-4710,23,-175,-78,69
330,-15084,-16,764,-4707,23,-176,-71,78
331,-15090,36,700,-4696,23,-177,-80,68
332,-15096,-68,748,-4699,23,-171,-78,68
333,-15122,58,754,-4697,23,-174,-78,73
334,-15086,28,758,-4696,23,-163,-72,73
335,-15164,82,730,-4685,23,-171,-80,65
336,-15178,-60,720,-4696,23,-167,-63,72
337,-15148,36,806,-4685,23,-176,-79,70
338,-15090,36,756,-4692,23,-170,-71,74
339,-15156,42,656,-4700,23,-180,-83,65
340,-15200,38,720,-4688,23,-181,-82,74
341,-15158,-32,704,-4717,23,-174,-80,72
342,-15144,-2,818,-4710,23,-174,-76,62
343,-15136,-90,810,-4711,23,-180,-69,69
344,-15188,-6,778,-4697,23,-165,-70,71
345,-15202,56,748,-4694,23,-171,-82,68
346,-15166,40,746,-4708,23,-182,-76,69
347,-15058,30,636,-4702,23,-168,-85,69
348,-15144,16,774,-4697,23,-173,-68,72
349,-15126,-66,734,-4703,23,-179,-73,71
350,-15136,-40,756,-4704,23,-175,-77,63
351,-15100,-54,810,-4708,23,-166,-74,68
352,-15096,-50,856,-4716,23,-176,-77,70
353,-15128,108,896,-4710,23,-177,-80,76
354,-15206,-50,762,-4701,23,-170,-76,81
355,-15160,10,794,-4705,23,-176,-82,71
356,-15226,-16,758,-4708,23,-177,-82,68
357,-15086,-22,686,-4712,23,-164,-81,64
358,-15092,-82,810,-4705,23,-175,-73,73
359,-15060,-6,718,-4707,23,-177,-77,69
360,-15132,2,686,-4706,23,-167,-74,73
361,-15212,-8,798,-4702,23,-172,-74,77
362,-15148,-54,736,-4700,23,-169,-84,73
363,-15238,60,668,-4693,23,-169,-73,65
364,-15120,-2,612,-4695,23,-172,-72,68
365,-15124,10,778,-4691,23,-177,-77,76
366,-15156,36,720,-4685,23,-174,-81,74
367,-15196,40,720,-4708,23,-171,-78,71
368,-15150,12,650,-4701,23,-170,-69,74
369,-15172,72,782,-4700,23,-167,-85,67
370,-15130,-38,612,-4682,23,-177,-69,64
371,-15156,-4,758,-4705,23,-172,-83,73
372,-15200,-16,726,-4687,23,-170,-74,63
373,-15206,8,846,-4694,23,-172,-78,74
374,-15114,40,754,-4707,23,-174,-73,66
375,-15134,-134,770,-4711,23,-174,-83,65
376,-15202,-58,756,-4699,23,-176,-86,75
377,-15232,0,688,-4693,23,-173,-82,59
378,-15170,-18,770,-4707,23,-175,-70,69
379,-15140,-44,776,-4698,23,-173,-72,66
380,-15136,0,828,-4704,23,-171,-75,69
381,-15140,78,654,-4703,23,-167,-69,71
382,-15126,-28,808,-4707,23,-174,-72,65
383,-15044,14,734,-4705,23,-179,-79,77
384,-15240,6,648,-4693,23,-170,-86,68
385,-15074,46,848,-4704,23,-174,-77,64
386,-15148,50,784,-4701,23,-169,-69,63
387,-15112,42,846,-4699,23,-170,-66,67
388,-15234,-100,708,-4707,23,-163,-79,61
389,-15196,-22,806,-4704,23,-165,-76,62
390,-15142,20,722,-4699,23,-170,-90,70
391,-15172,104,816,-4711,23,-178,-71,66
392,-15216,18,692,-4704,23,-176,-75,65
393,-15126,-74,786,-4698,23,-167,-76,66
394,-15218,4,826,-4710,23,-174,-71,51
395,-15068,-32,690,-4707,23,-169,-77,69
396,-15108,-82,794,-4699,23,-173,-77,67
397,-15100,12,704,-4698,23,-182,-78,62
398,-15144,-36,618,-4709,23,-176,-72,68
399,-15148,10,734,-4710,23,-172,-78,72
400,-15196,38,682,-4705,23,-167,-75,63
401,-15160,-32,652,-4700,23,-174,-77,67
402,-15122,-26,710,-4691,23,-175,-74,66
403,-15214,-62,688,-4694,23,-175,-85,71
404,-15196,0,578,-4695,23,-165,-74,71
405,-15248,-50,760,-4687,23,-174,-74,61
406,-15216,94,714,-4704,23,-177,-79,62
407,-15146,0,798,-4701,23,-170,-98,74
408,-15178,-48,736,-4699,23,-162,-79,66
409,-15220,44,738,-4707,23,-171,-74,65
410,-15194,-58,772,-4696,23,-178,-81,75
411,-15186,80,816,-4699,23,-173,-82,67
412,-15184,-78,788,-4698,23,-163,-72,69
413,-15140,-18,752,-4713,23,-175,-76,67
414,-15154,28,792,-4711,23,-172,-75,73
415,-15144,-74,808,-4691,23,-169,-72,65
416,-15258,28,820,-4698,23,-169,-81,68
417,-15078,-8,750,-4698,23,-164,-75,73
418,-15126,54,776,-4699,23,-177,-77,62
419,-15118,-44,866,-4706,23,-171,-86,65
420,-15194,-48,780,-4696,23,-175,-67,66
421,-15176,-38,778,-4691,23,-178,-75,76
422,-15168,14,740,-4694,23,-175,-79,69
423,-15126,40,764,-4718,23,-178,-78,61
424,-15134,-76,862,-4712,23,-172,-79,69
425,-15034,-58,708,-4690,23,-168,-83,72
426,-15116,-36,768,-4702,23,-174,-71,61
427,-15096,14,674,-4712,23,-176,-79,60
428,-15170,-86,732,-4707,23,-174,-86,72
429,-15166,2,784,-4698,23,-174,-77,73
430,-15130,-84,736,-4694,23,-175,-85,68
431,-15004,12,664,-4707,23,-177,-75,66
432,-15196,-8,726,-4713,23,-177,-81,73
433,-15140,4,810,-4703,23,-171,-78,68
434,-15174,-4,860,-4700,23,-177,-74,69
435,-15180,-16,728,-4695,23,-177,-74,70
436,-15202,-12,828,-4689,23,-173,-87,64
437,-15114,-10,808,-4691,23,-171,-73,65
438,-15144,58,738,-4690,23,-176,-72,62
439,-15164,4,832,-4704,23,-179,-87,78
440,-15114,18,802,-4703,23,-174,-77,70
441,-15190,0,650,-4689,23,-174,-74,72
442,-15116,8,768,-4694,23,-176,-70,67
443,-15160,-44,748,-4695,23,-164,-75,60
444,-15222,-34,872,-4712,23,-170,-85,72
445,-15174,-50,800,-4707,23,-169,-70,69
446,-15190,24,670,-4693,23,-171,-69,71
447,-15126,-82,750,-4711,23,-173,-85,70
448,-15168,-26,826,-4705,23,-174,-76,77
449,-15124,-64,688,-4710,23,-172,-71,63
450,-15182,-16,730,-4708,23,-176,-76,65
451,-15158,4,758,-4703,23,-177,-84,63
452,-15144,-22,766,-4696,23,-168,-69,78
453,-15176,-86,808,-4699,23,-168,-67,75
454,-15142,-14,746,-4698,23,-172,-72,66
455,-15178,2,766,-4706,23,-173,-82,71
456,-15152,26,720,-4709,23,-165,-77,71
457,-15182,-34,776,-4695,23,-168,-70,73
458,-15116,14,794,-4706,23,-169,-76,79
459,-15218,-48,840,-4711,23,-171,-83,78
460,-15070,-12,720,-4698,23,-176,-87,74
461,-15156,-52,754,-4709,23,-175,-71,65
462,-15170,-16,718,-4704,23,-172,-75,65
463,-15178,-50,892,-4699,23,-180,-79,71
464,-15216,-6,828,-4700,23,-179,-78,76
465,-15216,-56,884,-4706,23,-171,-69,74
466,-15150,-16,808,-4703,23,-177,-80,61
467,-15196,-56,744,-4702,23,-177,-79,78
468,-15180,-106,748,-4709,23,-170,-81,69
469,-15138,-108,816,-4704,23,-169,-78,72
470,-15184,-50,750,-4707,23,-174,-84,67
471,-15108,26,900,-4697,23,-170,-83,67
472,-15144,24,570,-4692,23,-170,-76,72
473,-15178,-4,656,-4689,23,-162,-74,64
474,-15224,-28,826,-4687,23,-166,-77,70
475,-15162,-70,838,-4699,23,-175,-80,74
476,-15152,6,866,-4713,23,-174,-87,64
477,-15106,-48,740,-4708,23,-170,-84,70
478,-15052,-60,812,-4703,23,-166,-80,66
479,-15260,-8,706,-4686,23,-178,-79,73
480,-15168,26,726,-4703,23,-183,-74,73
481,-15096,-64,744,-4707,23,-176,-76,74
482,-15110,-32,788,-4696,23,-174,-75,74
483,-15188,-62,754,-4708,23,-172,-82,71
484,-15114,-36,822,-4687,23,-178,-75,69
485,-15152,-16,818,-4690,23,-175,-73,70
486,-15098,48,696,-4707,23,-177,-76,65
487,-15178,-80,730,-4697,23,-174,-69,72
488,-15166,12,756,-4697,23,-176,-76,75
489,-15174,-4,712,-4704,23,-179,-82,69
490,-15122,-30,772,-4698,23,-175,-79,69
491,-15114,-38,756,-4713,23,-168,-85,79
492,-15164,64,766,-4694,23,-175,-83,72
493,-15246,-86,662,-4707,23,-182,-69,69
494,-15196,-46,752,-4714,23,-173,-67,68
495,-15186,-44,728,-4688,23,-173,-79,78
496,-15090,-68,764,-4696,23,-176,-81,80
497,-15074,20,706,-4697,23,-184,-71,64
498,-15202,-44,708,-4695,23,-176,-84,71
499,-15108,20,744,-4699,23,-170,-77,72
500,-15200,52,640,-4706,23,-167,-76,64
501,-15096,-58,724,-4709,23,-175,-82,73
502,-15130,-64,834,-4711,23,-170,-76,71
503,-15188,-16,608,-4714,23,-177,-68,73
504,-15160,-2,722,-4705,23,-173,-80,60
505,-15094,-82,790,-4704,23,-171,-78,72
506,-15236,-36,836,-4695,23,-176,-70,70
507,-15186,62,852,-4714,23,-183,-80,65
508,-15178,-16,670,-4700,23,-173,-75,73
509,-15164,-60,704,-4690,23,-174,-80,70
510,-15176,-38,716,-4693,23,-168,-87,73
511,-15190,6,770,-4704,23,-177,-80,69
512,-15100,-6,728,-4709,23,-171,-70,64
513,-15208,24,730,-4703,23,-173,-80,76
514,-15066,8,874,-4699,23,-168,-69,66
515,-15122,48,826,-4693,23,-177,-79,73
516,-15220,-44,752,-4695,23,-157,-71,68
517,-15216,64,774,-4687,23,-170,-78,76
518,-15204,-4,820,-4708,23,-173,-71,74
519,-15130,-34,752,-4715,23,-181,-70,72
520,-15182,-106,714,-4704,23,-173,-78,74
521,-15158,-14,804,-4690,23,-164,-68,72
522,-15184,-58,702,-4697,23,-170,-77,68
523,-15188,12,702,-4704,23,-166,-68,68
524,-15144,4,810,-4704,23,-179,-81,72
525,-15136,-70,784,-4709,23,-169,-80,66
526,-15082,16,724,-4704,23,-176,-74,75
527,-15120,-12,948,-4697,23,-180,-80,73
528,-15142,0,718,-4701,23,-167,-86,69
529,-15196,110,766,-4701,23,-170,-70,66
530,-15154,-46,704,-4704,23,-175,-75,77
531,-15090,14,694,-4709,23,-180,-77,64
532,-15174,-28,828,-4702,23,-171,-79,72
533,-15080,68,728,-4684,23,-172,-71,70
534,-15210,-46,768,-4692,23,-174,-75,71
535,-15184,12,732,-4692,23,-171,-83,72
536,-15084,-26,824,-4697,23,-172,-79,74
537,-15220,36,890,-4694,23,-174,-82,67
538,-15162,-24,724,-4700,23,-173,-79,74
539,-15130,-18,808,-4698,23,-177,-79,65
540,-15160,-36,736,-4692,23,-179,-88,71
541,-15114,36,694,-4707,23,-164,-74,66
542,-15164,-52,598,-4707,23,-174,-72,74
543,-15168,88,708,-4709,23,-175,-69,71
544,-15148,6,648,-4700,23,-179,-79,69
545,-15146,-34,768,-4701,23,-172,-77,71
546,-15120,-96,770,-4701,23,-178,-82,70
547,-15230,20,774,-4695,23,-168,-86,72
548,-15122,-8,784,-4689,23,-172,-81,72
549,-15144,-38,738,-4695,23,-172,-71,73
550,-15136,-100,856,-4697,23,-168,-84,69
551,-15118,-26,758,-4698,23,-174,-81,69
552,-15128,-54,752,-4693,23,-180,-75,72
553,-15108,-2,820,-4704,23,-172,-82,74
554,-15152,-76,690,-4699,23,-172,-77,74
555,-15156,-40,744,-4694,23,-184,-78,66
556,-15138,-28,656,-4713,23,-172,-74,68
557,-15170,-42,720,-4697,23,-179,-77,66
558,-15200,-24,814,-4713,23,-171,-80,59
559,-15238,-16,868,-4704,23,-172,-74,69
560,-15124,6,812,-4710,23,-173,-71,68
561,-15176,-74,840,-4690,23,-171,-76,75
562,-15140,-38,674,-4704,23,-174,-71,75
563,-15126,4,666,-4697,23,-179,-76,69
564,-15144,28,772,-4702,23,-171,-75,68
565,-15122,-60,782,-4714,23,-167,-78,63
566,-15132,70,748,-4703,23,-176,-68,68
567,-15116,74,740,-4703,23,-171,-70,64
568,-15092,-16,696,-4694,23,-175,-82,77
569,-15076,20,736,-4702,23,-175,-91,70
570,-15138,-44,684,-4712,23,-167,-66,64
571,-15144,14,756,-4701,23,-171,-84,73
572,-15194,-48,780,-4704,23,-176,-75,72
573,-15132,28,680,-4711,23,-168,-85,68
574,-15192,-54,608,-4707,23,-176,-79,77
575,-15124,-24,652,-4704,23,-181,-76,61
576,-15114,-22,810,-4701,23,-165,-67,67
577,-15152,-66,756,-4703,23,-178,-88,69
578,-15124,-56,848,-4701,23,-180,-74,75
579,-15182,-66,858,-4706,23,-171,-69,71
580,-15100,-8,862,-4699,23,-173,-78,71
581,-15130,-4,596,-4701,23,-172,-72,64
582,-15098,2,658,-4698,23,-174,-80,73
583,-15240,-28,824,-4701,23,-181,-85,73
584,-15180,34,786,-4682,23,-172,-75,64
585,-15118,22,732,-4688,23,-172,-79,71
586,-15152,20,606,-4701,23,-178,-74,71
587,-15106,-20,788,-4699,23,-164,-76,75
588,-15180,-22,706,-4722,23,-178,-74,66
589,-15144,26,794,-4701,23,-169,-81,71
590,-15214,30,792,-4704,23,-179,-73,81
591,-15264,-68,744,-4700,23,-174,-76,74
592,-15086,-42,762,-4686,23,-172,-71,71
593,-15184,-28,742,-4702,23,-182,-83,66
594,-15156,2,818,-4705,23,-173,-83,73
595,-15096,2,716,-4710,23,-173,-73,74
596,-15158,48,826,-4714,23,-171,-74,70
597,-15118,-52,804,-4702,23,-179,-78,83
598,-15168,62,686,-4712,23,-170,-73,72
599,-15182,-12,830,-4712,23,-169,-81,77
600,-15190,30,876,-4704,23,-180,-74,76
601,-15124,-34,720,-4708,23,-174,-82,70
602,-15222,-30,812,-4703,23,-185,-84,73
603,-15150,-18,754,-4706,23,-172,-76,73
604,-15206,-8,806,-4703,23,-180,-71,67
605,-15174,-80,748,-4690,23,-180,-80,66
606,-15142,-62,666,-4699,23,-168,-70,69
607,-15166,36,738,-4706,23,-166,-76,61
608,-15100,10,696,-4722,23,-172,-86,65
609,-15128,-6,772,-4693,23,-172,-82,72
610,-15154,-46,722,-4706,23,-182,-73,65
611,-15182,-18,900,-4698,23,-172,-77,77
612,-15192,-84,744,-4708,23,-169,-79,63
613,-15194,10,788,-4704,23,-176,-85,68
614,-15070,24,816,-4702,23,-163,-72,69
615,-15142,-76,808,-4703,23,-180,-84,74
616,-15152,-32,686,-4700,23,-167,-86,74
617,-15132,-52,778,-4713,23,-169,-76,72
618,-15098,-46,710,-4700,23,-167,-77,69
619,-15200,28,824,-4699,23,-169,-74,77
620,-15186,-72,718,-4712,23,-179,-77,77
621,-15126,-40,730,-4704,23,-169,-74,66
622,-15174,-114,812,-4707,23,-178,-71,68
623,-15182,-70,804,-4694,23,-169,-78,76
624,-15176,12,704,-4701,23,-166,-79,65
625,-15124,-40,714,-4692,23,-180,-78,72
626,-15116,-106,712,-4703,23,-176,-75,68
627,-15174,-84,680,-4699,23,-175,-78,69
628,-15086,-58,762,-4703,23,-177,-76,72
629,-15122,-66,760,-4698,23,-175,-71,66
630,-15144,-2,756,-4705,23,-162,-74,64
631,-15136,-50,732,-4700,23,-167,-75,73
632,-15094,-54,648,-4689,23,-168,-76,66
633,-15124,-22,692,-4698,23,-172,-75,73
634,-15098,-38,698,-4702,23,-180,-77,69
635,-15182,-120,756,-4697,23,-182,-78,70
636,-15194,48,710,-4694,23,-173,-77,68
637,-15146,60,726,-4705,23,-169,-76,59
638,-15086,-108,590,-4694,23,-187,-82,72
639,-15234,-8,728,-4701,23,-177,-79,69
640,-15132,90,718,-4694,23,-168,-79,65
641,-15100,16,704,-4690,23,-176,-76,70
642,-15198,-78,692,-4709,23,-176,-74,74
643,-15088,14,730,-4698,23,-166,-75,72
644,-15138,-24,600,-4694,23,-180,-77,73
645,-15096,62,790,-4705,23,-175,-76,63
646,-15198,40,674,-4707,23,-172,-75,74
647,-15188,2,772,-4709,23,-178,-83,71
648,-15192,32,906,-4703,23,-182,-70,72
649,-15176,-36,700,-4695,23,-177,-74,76
650,-15126,20,678,-4707,23,-174,-77,63
651,-15124,12,856,-4701,23,-174,-84,68
652,-15172,24,754,-4699,23,-184,-72,73
653,-15058,-48,658,-4699,23,-174,-81,62
654,-15134,-60,814,-4715,23,-169,-78,68
655,-15122,-34,698,-4698,23,-178,-74,65
656,-15146,32,786,-4697,23,-175,-77,71
657,-15192,-20,752,-4704,23,-179,-79,65
658,-15170,20,914,-4696,23,-175,-81,67
659,-15122,8,842,-4691,23,-174,-79,66
660,-15172,-30,774,-4696,23,-176,-76,67
661,-15138,-36,754,-4688,23,-180,-71,70
662,-15186,4,784,-4715,23,-173,-77,75
663,-15146,-6,832,-4697,23,-177,-69,74
664,-15152,-6,654,-4701,23,-176,-66,60
665,-15244,32,814,-4700,23,-176,-86,67
666,-15026,4,686,-4699,23,-173,-78,69
667,-15124,-60,694,-4701,23,-167,-74,72
668,-15212,-38,790,-4707,23,-172,-78,65
669,-15164,-32,758,-4691,23,-173,-73,68
670,-15136,-86,754,-4701,23,-174,-69,64
671,-15106,-2,844,-4692,23,-175,-77,63
672,-15116,-8,732,-4711,23,-168,-79,76
673,-15134,-44,834,-4704,23,-170,-71,73
674,-15204,76,766,-4706,23,-170,-78,75
675,-15148,-22,732,-4696,23,-170,-79,69
676,-15046,26,708,-4705,23,-176,-76,62
677,-15122,-62,838,-4709,23,-178,-80,75
678,-15178,46,666,-4701,23,-180,-73,69
679,-15106,8,804,-4703,23,-171,-83,71
680,-15070,-54,712,-4697,23,-172,-79,66
681,-15198,-60,822,-4702,23,-176,-81,72
682,-15216,34,776,-4712,23,-173,-83,69
683,-15116,-34,766,-4716,23,-175,-77,67
684,-15150,-72,762,-4705,23,-174,-75,67
685,-15190,20,710,-4701,23,-168,-76,71
686,-15128,42,726,-4708,23,-174,-78,73
687,-15164,20,704,-4714,23,-170,-83,65
688,-15144,-26,710,-4690,23,-170,-81,72
689,-15116,26,660,-4700,23,-175,-70,70
690,-15200,-24,778,-4688,23,-180,-69,70
691,-15198,-8,830,-4699,23,-178,-78,66
692,-15198,-4,778,-4691,23,-167,-72,70
693,-15160,-76,836,-4699,23,-170,-72,70
694,-15250,-92,758,-4691,23,-166,-74,61
695,-15186,14,654,-4699,23,-164,-74,74
696,-15188,18,602,-4702,23,-178,-79,73
697,-15192,140,784,-4704,23,-177,-84,74
698,-15152,-42,844,-4714,23,-184,-81,66
699,-15184,-90,756,-4709,23,-174,-77,67
700,-15100,2,720,-4699,23,-176,-91,64
701,-15220,-66,880,-4715,23,-174,-69,72
702,-15204,6,712,-4697,23,-163,-74,68
703,-15120,10,756,-4696,23,-177,-77,73
704,-15074,-66,728,-4684,23,-172,-79,74
705,-15214,2,782,-4696,23,-170,-76,64
706,-15180,-10,766,-4710,23,-174,-84,75
707,-15082,-28,756,-4708,23,-177,-81,66
708,-15114,-2,796,-4698,23,-170,-84,73
709,-15238,-16,718,-4701,23,-171,-72,68
710,-15192,-14,750,-4689,23,-178,-77,65
711,-15096,34,668,-4691,23,-170,-89,73
712,-15112,-44,726,-4700,23,-171,-64,74
713,-15102,46,704,-4706,23,-182,-75,70
714,-15050,-54,714,-4707,23,-175,-83,67
715,-15142,14,662,-4694,23,-176,-74,71
716,-15116,8,762,-4693,23,-181,-83,62
717,-15064,48,722,-4717,23,-175,-82,76
718,-15176,28,866,-4701,23,-172,-80,75
719,-15158,74,720,-4707,23,-172,-84,78
720,-15150,28,692,-4709,23,-174,-82,71
721,-15106,-82,834,-4713,23,-180,-77,66
722,-15096,-70,820,-4696,23,-167,-77,68
723,-15204,8,796,-4700,23,-180,-66,68
724,-15196,-76,846,-4699,23,-177,-80,78
725,-15130,-68,798,-4710,23,-170,-76,72
726,-15150,-6,726,-4700,23,-175,-81,68
727,-15200,20,718,-4704,23,-173,-76,69
728,-15176,48,754,-4706,23,-167,-78,64
729,-15248,-60,784,-4694,23,-176,-77,69
730,-15178,-78,754,-4709,23,-185,-69,74
731,-15120,30,844,-4698,23,-171,-79,68
732,-15172,38,738,-4712,23,-175,-59,78
733,-15116,-12,654,-4712,23,-177,-76,66
734,-15150,4,710,-4700,23,-172,-83,68
735,-15180,-22,736,-4693,23,-180,-70,77
736,-15120,8,832,-4691,23,-173,-82,77
737,-15150,90,758,-4715,23,-175,-85,71
738,-15074,4,742,-4693,23,-161,-71,74
739,-15196,-34,768,-4692,23,-176,-70,61
740,-15208,-12,756,-4701,23,-174,-68,65
741,-15188,-66,824,-4695,23,-170,-74,72
742,-15170,30,790,-4693,23,-168,-82,73
743,-15216,-62,694,-4696,23,-173,-82,63
744,-15116,10,788,-4706,23,-179,-87,72
745,-15066,-4,752,-4710,23,-173,-80,69
746,-15194,-34,732,-4685,23,-172,-76,75
747,-15200,-38,784,-4704,23,-170,-71,71
748,-15220,-76,748,-4704,23,-173,-75,70
749,-15166,50,772,-4708,23,-182,-75,71
750,-15190,32,834,-4703,23,-170,-81,67
751,-15116,24,776,-4689,23,-176,-82,69
752,-15178,-84,700,-4702,23,-171,-72,66
753,-15150,-138,664,-4688,23,-169,-77,70
754,-15124,-42,608,-4704,23,-171,-80,68
755,-15244,-38,694,-4705,23,-174,-71,69
756,-15182,-4,654,-4694,23,-168,-79,71
757,-15100,42,920,-4698,23,-176,-92,69
758,-15184,-44,682,-4705,23,-174,-79,69
759,-15084,-24,682,-4704,23,-178,-74,75
760,-15200,52,658,-4693,23,-179,-76,64
761,-15210,-4,730,-4702,23,-171,-69,68
762,-15108,0,590,-4688,23,-181,-85,69
763,-15114,6,798,-4709,23,-172,-81,66
764,-15132,-82,776,-4700,23,-169,-80,73
765,-15162,34,802,-4698,23,-173,-77,68
766,-15090,-20,782,-4695,23,-170,-80,73
767,-15152,12,696,-4717,23,-171,-71,74
768,-15172,10,844,-4706,23,-180,-82,76
769,-15134,52,734,-4698,23,-179,-72,72
770,-15110,-70,734,-4711,23,-182,-78,64
771,-15150,-16,768,-4702,23,-164,-78,73
772,-15206,-30,632,-4710,23,-170,-73,77
773,-15186,78,758,-4699,23,-177,-74,73
774,-15080,-36,644,-4691,23,-173,-76,69
775,-15168,-22,842,-4698,23,-174,-78,75
776,-15158,-104,678,-4700,23,-168,-77,68
777,-15166,22,756,-4712,23,-169,-83,72
778,-15168,38,736,-4703,23,-176,-76,68
779,-15136,-74,810,-4707,23,-172,-74,62
780,-15174,54,728,-4710,23,-172,-81,69
781,-15162,12,708,-4687,23,-168,-77,66
782,-15156,0,714,-4707,23,-163,-77,65
783,-15156,-38,640,-4707,23,-165,-77,66
784,-15156,28,660,-4694,23,-175,-69,77
785,-15146,20,698,-4685,23,-183,-70,76
786,-15194,28,856,-4702,23,-171,-86,75
787,-15082,-28,652,-4700,23,-174,-76,68
788,-15104,-26,756,-4696,23,-188,-82,70
789,-15182,-12,826,-4701,23,-165,-75,67
790,-15256,6,656,-4701,23,-176,-79,73
791,-15080,22,730,-4699,23,-177,-80,68
792,-15188,16,756,-4707,23,-180,-71,75
793,-15126,12,704,-4708,23,-167,-76,68
794,-15214,-54,812,-4712,23,-172,-84,69
795,-15132,-70,616,-4694,23,-178,-77,68
796,-15212,8,788,-4717,23,-174,-66,75
797,-15152,-12,754,-4700,23,-174,-74,68
798,-15198,74,712,-4693,23,-163,-80,70
799,-15220,-22,630,-4689,23,-180,-78,73
800,-15246,12,754,-4705,23,-179,-74,75
801,-15154,-130,704,-4707,23,-171,-77,70
802,-15144,18,688,-4687,23,-175,-87,68
803,-15168,6,666,-4694,23,-177,-75,69
804,-15182,-54,804,-4688,23,-170,-74,71
805,-15212,82,718,-4707,23,-175,-78,62
806,-15108,-66,754,-4695,23,-182,-71,67
807,-15124,-56,808,-4702,23,-175,-76,71
808,-15164,-82,762,-4707,23,-182,-71,73
809,-15170,-58,796,-4698,23,-170,-70,64
810,-15188,26,656,-4709,23,-179,-69,67
811,-15176,-56,674,-4710,23,-177,-73,75
812,-15220,-30,790,-4701,23,-169,-74,67
813,-15200,-52,770,-4700,23,-171,-75,64
814,-15180,34,724,-4700,23,-172,-81,70
815,-15126,-50,776,-4690,23,-177,-83,77
816,-15190,-4,826,-4707,23,-178,-75,74
817,-15118,-22,648,-4701,23,-178,-77,75
818,-15106,-68,776,-4692,23,-174,-79,74
819,-15230,30,688,-4696,23,-178,-87,64
820,-15100,-20,670,-4694,23,-177,-78,68
821,-15136,-94,734,-4693,23,-171,-73,69
822,-15204,34,750,-4705,23,-172,-74,61
823,-15158,-18,834,-4699,23,-178,-85,65
824,-15158,-66,692,-4711,23,-178,-83,71
825,-15230,14,684,-4704,23,-172,-82,75
826,-15090,-108,744,-4711,23,-180,-79,73
827,-15140,6,638,-4698,23,-173,-82,69
828,-15124,-146,716,-4698,23,-175,-65,71
829,-15156,-34,738,-4702,23,-173,-77,63
830,-15208,-86,818,-4697,23,-173,-81,74
831,-15154,-2,796,-4709,23,-178,-71,73
832,-15138,2,668,-4704,23,-178,-76,66
833,-15110,-94,812,-4704,23,-175,-89,71
834,-15064,12,732,-4707,23,-173,-72,73
835,-15130,-10,750,-4700,23,-174,-80,75
836,-15160,-54,738,-4703,23,-168,-76,64
837,-15234,-26,760,-4705,23,-178,-82,71
838,-15160,32,780,-4717,23,-174,-74,67
839,-15212,-54,756,-4702,23,-172,-85,62
840,-15170,-10,774,-4699,23,-175,-68,69
841,-15170,66,654,-4703,23,-172,-78,76
842,-15054,64,674,-4698,23,-166,-77,66
843,-15146,28,778,-4703,23,-168,-89,72
844,-15182,-24,790,-4694,23,-178,-64,71
845,-15160,-64,772,-4710,23,-176,-78,69
846,-15132,46,756,-4706,23,-174,-73,72
847,-15120,-14,744,-4703,23,-173,-75,77
848,-15174,74,788,-4706,23,-166,-67,65
849,-15080,-80,610,-4699,23,-171,-79,71
850,-15150,-6,808,-4699,23,-172,-75,76
851,-15262,-48,772,-4690,23,-178,-76,67
852,-15138,-8,842,-4706,23,-170,-78,64
853,-15124,28,696,-4681,23,-175,-72,69
854,-15232,-56,660,-4704,23,-182,-75,70
855,-15128,-24,750,-4693,23,-176,-68,74
856,-15156,-14,762,-4699,23,-180,-81,65
857,-15108,-38,816,-4683,23,-169,-74,70
858,-15280,12,684,-4709,23,-174,-74,64
859,-15174,-52,678,-4702,23,-175,-73,62
860,-15200,-32,760,-4692,23,-169,-71,69
861,-15166,20,868,-4699,23,-185,-69,75
862,-15276,8,678,-4705,23,-174,-82,78
863,-15088,-18,788,-4701,23,-166,-86,80
864,-15168,-10,666,-4697,23,-169,-68,76
865,-15138,-26,710,-4700,23,-176,-70,72
866,-15056,30,670,-4697,23,-181,-85,75
867,-15178,40,796,-4701,23,-168,-84,69
868,-15136,82,850,-4700,23,-176,-82,71
869,-15162,-42,848,-4709,23,-177,-82,70
870,-15172,-32,624,-4705,23,-177,-70,76
871,-15170,-14,654,-4689,23,-172,-77,71
872,-15234,-50,718,-4690,23,-176,-82,71
873,-15158,-24,800,-4695,23,-172,-72,65
874,-15126,90,684,-4700,23,-172,-82,68
875,-15150,62,674,-4698,23,-177,-79,64
876,-15132,-8,664,-4706,23,-168,-78,78
877,-15138,-10,744,-4704,23,-179,-77,64
878,-15118,-4,706,-4695,23,-177,-75,67
879,-15108,12,732,-4691,23,-182,-67,78
880,-15150,26,708,-4704,23,-173,-80,70
881,-15126,-16,766,-4690,23,-174,-76,73
882,-15200,-8,790,-4703,23,-180,-74,70
883,-15164,-50,856,-4708,23,-168,-75,65
884,-15118,0,620,-4692,23,-163,-75,72
885,-15116,30,712,-4704,23,-167,-78,73
886,-15156,-64,724,-4704,23,-165,-62,71
887,-15122,40,820,-4699,23,-171,-86,75
888,-15162,-60,824,-4696,23,-182,-83,73
889,-15164,-36,800,-4701,23,-171,-81,64
890,-15106,-54,770,-4714,23,-180,-91,76
891,-15144,-58,700,-4690,23,-165,-80,68
892,-15080,58,750,-4691,23,-171,-72,68
893,-15212,-54,724,-4711,23,-174,-78,76
894,-15134,26,818,-4685,23,-169,-82,72
895,-15100,-4,862,-4700,23,-169,-75,66
896,-15220,-16,726,-4693,23,-173,-85,64
897,-15098,-28,768,-4692,23,-168,-84,66
898,-15254,4,732,-4689,23,-175,-76,69
899,-15124,-46,756,-4698,23,-181,-83,70
900,-15116,24,710,-4700,23,-174,-77,72
901,-15236,-44,768,-4694,23,-180,-69,68
902,-15164,64,786,-4702,23,-180,-81,68
903,-15108,-90,752,-4680,23,-176,-80,66
904,-15208,42,746,-4695,23,-168,-79,67
905,-15162,-88,704,-4705,23,-174,-76,75
906,-15116,-38,764,-4700,23,-172,-73,71
907,-15126,8,848,-4721,23,-182,-70,60
908,-15260,-56,792,-4711,23,-171,-82,64
909,-15160,-36,720,-4689,23,-175,-89,72
910,-15088,-30,732,-4708,23,-179,-68,63
911,-15250,48,702,-4689,23,-159,-79,65
912,-15142,-60,674,-4696,23,-171,-81,65
913,-15178,2,716,-4706,23,-180,-81,74
914,-15254,12,874,-4695,23,-175,-73,66
915,-15108,-12,798,-4689,23,-179,-67,73
916,-15152,-64,802,-4693,23,-174,-82,75
917,-15284,26,748,-4696,23,-175,-74,72
918,-15126,26,690,-4694,23,-170,-86,68
919,-15108,-58,778,-4712,23,-178,-71,70
920,-15120,-50,798,-4700,23,-171,-84,71
921,-15148,-20,732,-4701,23,-171,-76,71
922,-15148,-12,782,-4690,23,-176,-72,75
923,-15174,-10,828,-4690,23,-171,-78,69
924,-15220,42,700,-4709,23,-168,-82,74
925,-15082,-32,778,-4680,23,-173,-78,75
926,-15236,78,676,-4697,23,-171,-87,67
927,-15180,-58,744,-4703,23,-178,-82,70
928,-15148,-4,868,-4699,23,-172,-77,64
929,-15144,-36,680,-4687,23,-168,-69,72
930,-15128,6,774,-4688,23,-175,-72,72
931,-15120,22,828,-4702,23,-169,-78,70
932,-15144,-34,740,-4680,23,-172,-80,68
933,-15172,-24,796,-4719,23,-172,-85,71
934,-15170,-94,816,-4695,23,-176,-83,72
935,-15222,-28,796,-4699,23,-170,-81,71
936,-15152,36,778,-4702,23,-170,-76,71
937,-15134,-124,780,-4682,23,-166,-71,70
938,-15114,-8,802,-4699,23,-171,-80,71
939,-15212,-32,736,-4703,23,-179,-74,75
940,-15112,-52,856,-4694,23,-157,-78,72
941,-15118,40,738,-4685,23,-178,-78,68
942,-15168,22,736,-4695,23,-169,-87,64
943,-15108,-12,790,-4698,23,-175,-78,60
944,-15130,-40,794,-4698,23,-166,-68,66
945,-15158,8,702,-4704,23,-184,-77,62
946,-15116,-50,752,-4692,23,-175,-74,63
947,-15162,22,668,-4700,23,-174,-90,77
948,-15124,-24,810,-4696,23,-178,-76,68
949,-15110,2,848,-4699,23,-179,-73,74
950,-15198,-8,770,-4699,23,-174,-71,72
951,-15168,64,766,-4700,23,-170,-69,68
952,-15178,-38,786,-4703,23,-168,-78,74
953,-15184,26,854,-4701,23,-174,-75,69
954,-15156,-46,724,-4721,23,-180,-79,59
955,-15134,-66,702,-4690,23,-174,-69,72
956,-15096,-8,768,-4703,23,-184,-82,62
957,-15186,-80,746,-4695,23,-172,-83,73
958,-15102,32,760,-4696,23,-175,-82,72
959,-15166,20,712,-4699,23,-171,-81,64
960,-15096,16,670,-4709,23,-165,-87,69
961,-15156,82,718,-4693,23,-175,-76,67
962,-15124,20,792,-4696,23,-178,-79,75
963,-15168,-52,764,-4711,23,-176,-79,74
964,-15214,32,704,-4698,23,-170,-83,71
965,-15174,60,752,-4695,23,-174,-69,71
966,-15184,30,830,-4696,23,-170,-76,68
967,-15224,-36,732,-4709,23,-168,-82,65
968,-15166,-22,746,-4706,23,-171,-80,76
969,-15154,34,776,-4702,23,-164,-72,72
970,-15156,70,706,-4688,23,-178,-74,72
971,-15086,20,742,-4685,23,-169,-77,71
972,-15124,-6,774,-4692,23,-178,-80,68
973,-15178,-80,924,-4712,23,-165,-81,72
974,-15174,-12,724,-4692,23,-182,-73,69
975,-15138,-102,816,-4717,23,-171,-73,78
976,-15128,-24,834,-4710,23,-172,-75,75
977,-15166,60,812,-4708,23,-174,-71,76
978,-15158,12,660,-4714,23,-184,-67,70
979,-15124,-74,804,-4698,23,-177,-76,69
980,-15162,-36,698,-4705,23,-170,-74,68
981,-15146,-4,684,-4704,23,-181,-79,72
982,-15204,2,708,-4703,23,-176,-90,66
983,-15124,4,684,-4706,23,-173,-87,74
984,-15118,54,722,-4707,23,-173,-70,65
985,-15228,16,810,-4705,23,-172,-80,67
986,-15102,2,778,-4686,23,-175,-85,75
987,-15174,14,714,-4708,23,-180,-70,79
988,-15036,-42,686,-4715,23,-163,-75,66
989,-15114,32,796,-4712,23,-179,-82,79
990,-15132,42,802,-4695,23,-170,-84,71
991,-15222,40,686,-4697,23,-176,-75,64
992,-15152,10,768,-4701,23,-176,-76,70
993,-15172,-100,688,-4722,23,-173,-77,69
994,-15206,94,756,-4707,23,-177,-72,73
995,-15154,0,820,-4702,23,-179,-70,76
996,-15100,-2,700,-4704,23,-176,-78,69
997,-15200,-34,728,-4703,23,-161,-73,76
998,-15208,-28,744,-4698,23,-171,-82,63
