,acc_X,acc_Y,acc_Z,temp,tempC,gyr_X,gyr_Y,gyr_Z
0,-15158,-18,772,-4616,23,-44,-19,17
1,-15152,-26,772,-4616,23,-44,-20,17
2,-15150,-16,766,-4616,23,-44,-20,17
3,-15148,-20,772,-4615,23,-44,-20,17
4,-15162,-8,776,-4616,23,-44,-20,17
5,-15156,-20,776,-4618,23,-44,-20,17
6,-15162,-14,778,-4619,23,-44,-20,17
7,-15152,-6,772,-4617,23,-44,-20,17
8,-15156,-6,772,-4619,23,-44,-20,17
9,-15166,-6,772,-4618,23,-44,-20,17
10,-15160,0,780,-4618,23,-44,-19,17
11,-15176,8,770,-4620,23,-44,-19,17
12,-15168,2,766,-4620,23,-44,-20,17
13,-15168,6,764,-4620,23,-44,-20,17
14,-15172,12,762,-4619,23,-44,-20,17
15,-15170,6,762,-4617,23,-44,-19,17
16,-15166,-2,752,-4617,23,-44,-19,17
17,-15158,-2,752,-4616,23,-44,-19,18
18,-15160,4,746,-4616,23,-44,-19,18
19,-15160,-2,752,-4618,23,-44,-19,18
20,-15152,-4,762,-4619,23,-44,-19,18
21,-15150,-10,760,-4619,23,-44,-19,18
22,-15154,-4,766,-4617,23,-44,-19,18
23,-15156,-8,758,-4619,23,-44,-20,18
24,-15166,-8,766,-4617,23,-44,-20,17
25,-15158,0,774,-4617,23,-44,-20,17
26,-15170,-10,770,-4618,23,-44,-20,17
27,-15166,-8,754,-4618,23,-44,-20,17
28,-15166,-2,768,-4618,23,-44,-20,17
29,-15156,4,768,-4619,23,-44,-20,17
30,-15156,-10,752,-4619,23,-44,-20,17
31,-15168,-10,756,-4619,23,-44,-21,17
32,-15164,-2,748,-4617,23,-44,-20,17
33,-15162,-10,744,-4617,23,-44,-20,17
34,-15168,-16,738,-4617,23,-44,-20,17
35,-15178,-16,750,-4619,23,-44,-20,17
36,-15172,-24,736,-4618,23,-44,-20,17
37,-15168,-22,738,-4617,23,-44,-20,17
38,-15170,-30,748,-4619,23,-44,-20,17
39,-15164,-32,738,-4619,23,-44,-20,17
40,-15158,-28,738,-4620,23,-44,-20,17
41,-15160,-24,758,-4619,23,-44,-20,17
42,-15170,-18,762,-4619,23,-44,-20,17
43,-15164,-10,742,-4618,23,-44,-19,17
44,-15162,-10,750,-4618,23,-44,-19,17
45,-15156,-6,740,-4620,23,-44,-19,17
46,-15166,0,746,-4620,23,-44,-19,17
47,-15158,-8,746,-4619,23,-44,-19,17
48,-15150,-12,756,-4618,23,-44,-19,17
49,-15146,-14,758,-4617,23,-44,-19,17
50,-15144,-6,758,-4616,23,-44,-19,17
51,-15146,-4,754,-4617,23,-44,-19,17
52,-15146,-4,770,-4616,23,-44,-19,17
53,-15140,-2,762,-4616,23,-44,-19,17
54,-15140,-6,748,-4618,23,-44,-19,17
55,-15142,-8,738,-4617,23,-44,-19,17
56,-15158,-20,746,-4617,23,-44,-19,17
57,-15152,-24,752,-4617,23,-44,-19,17
58,-15154,-26,752,-4617,23,-44,-19,17
59,-15144,-24,766,-4619,23,-44,-19,17
60,-15146,-24,784,-4619,23,-44,-19,17
61,-15152,-32,766,-4618,23,-44,-19,17
62,-15146,-32,762,-4616,23,-44,-19,17
63,-15154,-22,770,-4618,23,-44,-19,17
64,-15150,-26,770,-4617,23,-44,-19,17
65,-15152,-22,752,-4618,23,-44,-19,17
66,-15152,-22,764,-4616,23,-44,-19,17
67,-15144,-14,776,-4617,23,-45,-19,17
68,-15146,-14,772,-4617,23,-44,-19,17
69,-15148,-12,760,-4620,23,-44,-19,17
70,-15156,-18,752,-4620,23,-44,-19,17
71,-15162,-16,758,-4618,23,-44,-19,17
72,-15168,-18,770,-4620,23,-44,-19,17
73,-15166,-20,770,-4620,23,-44,-20,17
74,-15164,-24,758,-4619,23,-44,-20,17
75,-15166,-34,764,-4620,23,-44,-20,17
76,-15158,-32,750,-4619,23,-44,-20,17
77,-15152,-30,754,-4619,23,-44,-20,17
78,-15146,-24,754,-4620,23,-44,-20,17
79,-15148,-16,764,-4620,23,-44,-20,17
80,-15152,-12,758,-4620,23,-44,-20,17
81,-15156,-16,750,-4621,23,-44,-20,17
82,-15158,-16,750,-4620,23,-44,-20,17
83,-15158,-24,750,-4620,23,-44,-19,17
84,-15154,-14,748,-4620,23,-44,-19,17
85,-15144,-8,760,-4621,23,-44,-19,17
86,-15152,-20,756,-4621,23,-44,-19,17
87,-15148,-22,764,-4621,23,-44,-20,17
88,-15146,-18,768,-4621,23,-44,-19,17
89,-15148,-12,760,-4620,23,-44,-19,17
90,-15148,-10,754,-4620,23,-44,-19,17
91,-15154,-10,760,-4620,23,-44,-19,17
92,-15156,-4,758,-4621,23,-44,-19,17
93,-15162,-14,754,-4621,23,-44,-19,17
94,-15170,-10,756,-4622,23,-44,-19,17
95,-15162,-4,756,-4621,23,-44,-19,17
96,-15174,-4,762,-4620,23,-44,-20,17
97,-15184,-6,764,-4618,23,-44,-20,17
98,-15180,-8,766,-4618,23,-44,-19,17
99,-15184,2,764,-4617,23,-45,-20,17
100,-15184,-2,758,-4617,23,-44,-19,17
101,-15180,-6,756,-4617,23,-44,-19,17
102,-15192,-2,754,-4616,23,-44,-19,17
103,-15182,-6,756,-4614,23,-44,-20,17
104,-15178,-16,760,-4614,23,-44,-20,18
105,-15164,-10,766,-4615,23,-44,-20,18
106,-15164,-6,756,-4615,23,-44,-20,18
107,-15152,-8,758,-4616,23,-44,-20,18
108,-15148,-8,758,-4616,23,-44,-20,18
109,-15144,-10,760,-4616,23,-44,-20,18
110,-15146,-8,746,-4616,23,-44,-20,17
111,-15142,-12,752,-4615,23,-44,-20,17
112,-15146,-6,766,-4613,23,-44,-20,17
113,-15142,-10,760,-4613,23,-44,-20,17
114,-15150,0,752,-4613,23,-44,-20,17
115,-15154,4,748,-4612,23,-44,-19,17
116,-15152,-8,752,-4613,23,-44,-19,17
117,-15160,-8,750,-4613,23,-44,-19,17
118,-15168,-2,744,-4613,23,-44,-19,17
119,-15162,-10,746,-4614,23,-44,-20,17
120,-15156,-8,742,-4613,23,-44,-19,17
121,-15152,-8,752,-4613,23,-44,-20,17
122,-15146,-14,762,-4612,23,-44,-20,17
123,-15152,-12,752,-4612,23,-44,-20,17
124,-15146,-14,766,-4612,23,-44,-20,17
125,-15138,-20,764,-4614,23,-44,-20,17
126,-15136,-20,754,-4614,23,-44,-20,17
127,-15132,-12,746,-4616,23,-44,-20,17
128,-15132,-16,742,-4615,23,-44,-20,17
129,-15132,-24,754,-4616,23,-44,-20,17
130,-15134,-24,762,-4617,23,-44,-19,17
131,-15146,-22,764,-4616,23,-44,-19,17
132,-15158,-14,770,-4616,23,-44,-20,17
133,-15162,-16,764,-4616,23,-44,-20,17
134,-15164,-16,758,-4616,23,-44,-20,17
135,-15170,-18,760,-4617,23,-44,-20,17
136,-15154,-20,762,-4618,23,-45,-20,17
137,-15146,-12,752,-4619,23,-45,-20,17
138,-15148,-18,752,-4617,23,-45,-20,17
139,-15150,-18,744,-4616,23,-44,-20,17
140,-15154,-18,752,-4617,23,-44,-20,17
141,-15156,-16,764,-4617,23,-44,-20,17
142,-15154,-10,768,-4618,23,-44,-20,17
143,-15140,-8,774,-4617,23,-44,-19,17
144,-15146,-10,778,-4617,23,-44,-19,17
145,-15150,-16,780,-4618,23,-44,-20,17
146,-15140,-10,774,-4618,23,-44,-19,17
147,-15148,-14,768,-4619,23,-44,-19,17
148,-15144,-28,760,-4618,23,-44,-19,17
149,-15146,-24,756,-4618,23,-44,-19,18
150,-15148,-32,748,-4618,23,-45,-19,17
151,-15150,-28,744,-4618,23,-44,-19,17
152,-15148,-24,744,-4616,23,-45,-20,17
153,-15154,-18,738,-4616,23,-45,-19,17
154,-15162,-16,736,-4617,23,-44,-19,17
155,-15160,-12,736,-4618,23,-44,-19,17
156,-15156,-8,726,-4616,23,-45,-19,17
157,-15144,-4,740,-4617,23,-45,-19,17
158,-15152,-8,740,-4616,23,-44,-19,17
159,-15158,-2,732,-4617,23,-44,-19,17
160,-15168,0,752,-4617,23,-44,-19,17
161,-15156,-4,750,-4618,23,-44,-19,17
162,-15156,-14,746,-4619,23,-44,-19,17
163,-15148,-8,742,-4617,23,-44,-19,17
164,-15146,4,764,-4616,23,-44,-19,18
165,-15148,-6,758,-4615,23,-44,-19,17
166,-15148,-8,760,-4614,23,-44,-19,17
167,-15138,-12,758,-4615,23,-44,-19,17
168,-15138,-8,774,-4615,23,-44,-20,17
169,-15138,-8,766,-4615,23,-45,-20,18
170,-15146,0,770,-4615,23,-44,-19,18
171,-15140,2,758,-4616,23,-44,-19,18
172,-15146,0,760,-4615,23,-44,-19,18
173,-15148,-12,766,-4614,23,-44,-19,17
174,-15146,-8,762,-4613,23,-44,-20,17
175,-15152,2,762,-4614,23,-44,-19,17
176,-15158,8,756,-4615,23,-44,-20,17
177,-15160,4,760,-4617,23,-44,-20,17
178,-15154,10,760,-4615,23,-44,-20,17
179,-15152,2,756,-4616,23,-44,-20,17
180,-15160,0,764,-4617,23,-44,-20,17
181,-15164,-2,768,-4618,23,-44,-20,17
182,-15160,6,768,-4616,23,-44,-20,17
183,-15168,-6,774,-4617,23,-44,-20,17
184,-15166,-14,772,-4618,23,-44,-20,17
185,-15162,-10,774,-4619,23,-44,-20,17
186,-15160,-6,776,-4617,23,-44,-20,17
187,-15166,-2,770,-4617,23,-44,-20,17
188,-15162,0,762,-4616,23,-44,-20,17
189,-15160,-4,756,-4615,23,-44,-20,17
190,-15156,4,752,-4615,23,-44,-20,17
191,-15160,6,738,-4615,23,-44,-19,17
192,-15160,6,742,-4614,23,-44,-19,18
193,-15164,10,740,-4613,23,-44,-19,18
194,-15162,10,752,-4614,23,-44,-19,17
195,-15164,0,760,-4616,23,-44,-19,17
196,-15164,0,760,-4614,23,-44,-19,17
197,-15160,-2,760,-4615,23,-44,-19,17
198,-15160,0,770,-4614,23,-44,-19,17
199,-15168,4,774,-4612,23,-44,-19,17
200,-15160,0,768,-4612,23,-44,-19,17
201,-15150,2,758,-4613,23,-44,-20,17
202,-15142,2,752,-4614,23,-44,-19,17
203,-15142,-4,746,-4613,23,-44,-19,17
204,-15140,-14,742,-4614,23,-44,-19,17
205,-15140,-12,730,-4614,23,-44,-19,17
206,-15150,-12,754,-4614,23,-44,-19,17
207,-15144,-16,748,-4614,23,-44,-20,17
208,-15152,-20,744,-4617,23,-44,-20,17
209,-15150,-8,752,-4616,23,-44,-19,17
210,-15144,-10,756,-4615,23,-44,-20,17
211,-15142,-14,752,-4611,23,-44,-20,17
212,-15146,-20,754,-4611,23,-44,-20,17
213,-15146,-16,750,-4613,23,-44,-20,17
214,-15148,-12,760,-4610,23,-44,-20,17
215,-15146,-6,768,-4611,23,-44,-20,17
216,-15148,2,772,-4613,23,-44,-20,17
217,-15154,0,778,-4614,23,-45,-20,17
218,-15152,-4,780,-4613,23,-45,-19,17
219,-15164,4,770,-4613,23,-45,-19,17
220,-15162,6,774,-4613,23,-45,-19,17
221,-15158,0,760,-4615,23,-45,-20,17
222,-15152,-8,754,-4615,23,-45,-19,17
223,-15160,-12,756,-4613,23,-44,-20,17
224,-15168,-22,746,-4614,23,-44,-20,17
225,-15180,-14,742,-4612,23,-44,-19,17
226,-15174,-10,736,-4613,23,-44,-19,17
227,-15172,-10,732,-4614,23,-44,-19,17
228,-15180,-18,732,-4613,23,-44,-19,17
229,-15178,-24,742,-4613,23,-44,-19,17
230,-15172,-24,748,-4613,23,-44,-19,17
231,-15176,-16,750,-4615,23,-44,-19,17
232,-15168,-18,762,-4613,23,-44,-19,17
233,-15154,-10,768,-4614,23,-44,-19,17
234,-15148,-6,770,-4614,23,-44,-19,17
235,-15152,0,768,-4613,23,-44,-19,17
236,-15154,-6,770,-4613,23,-44,-19,17
237,-15160,-8,774,-4614,23,-44,-19,17
238,-15164,-6,768,-4615,23,-44,-19,17
239,-15162,-4,760,-4615,23,-44,-20,17
240,-15172,-6,756,-4614,23,-44,-20,17
241,-15160,-2,760,-4614,23,-44,-20,17
242,-15168,0,766,-4613,23,-44,-20,17
243,-15162,6,764,-4612,23,-45,-20,17
244,-15152,-8,760,-4613,23,-44,-20,17
245,-15146,-6,760,-4612,23,-44,-19,17
246,-15142,-6,758,-4612,23,-44,-19,17
247,-15156,-8,762,-4612,23,-44,-19,17
248,-15150,-6,760,-4614,23,-45,-19,17
249,-15156,-16,748,-4614,23,-45,-20,17
250,-15154,-22,738,-4615,23,-45,-20,17
251,-15148,-24,740,-4615,23,-45,-19,17
252,-15154,-20,736,-4617,23,-44,-19,17
253,-15140,-16,740,-4616,23,-44,-19,17
254,-15138,-12,760,-4614,23,-44,-19,17
255,-15150,-20,764,-4613,23,-45,-19,17
256,-15152,-18,770,-4615,23,-44,-19,17
257,-15162,-20,764,-4613,23,-44,-20,17
258,-15162,-18,774,-4614,23,-44,-20,17
259,-15168,-16,776,-4614,23,-44,-20,17
260,-15168,-20,764,-4614,23,-44,-20,17
261,-15164,-18,754,-4616,23,-44,-20,17
262,-15168,-16,748,-4616,23,-44,-19,17
263,-15152,-16,748,-4616,23,-44,-19,17
264,-15150,-22,758,-4616,23,-44,-19,17
265,-15152,-22,752,-4615,23,-44,-19,17
266,-15160,-14,752,-4616,23,-44,-20,17
267,-15164,-2,748,-4615,23,-44,-20,17
268,-15156,-10,764,-4615,23,-44,-20,17
269,-15158,-14,754,-4615,23,-44,-20,17
270,-15154,-24,750,-4614,23,-44,-20,17
271,-15150,-14,746,-4613,23,-44,-19,17
272,-15162,-14,742,-4613,23,-44,-19,17
273,-15158,-22,752,-4612,23,-44,-19,17
274,-15152,-24,754,-4612,23,-44,-19,17
275,-15158,-16,742,-4612,23,-44,-20,17
276,-15154,-12,740,-4612,23,-44,-20,17
277,-15156,-22,744,-4612,23,-44,-20,17
278,-15162,-24,738,-4612,23,-44,-20,17
279,-15162,-18,752,-4614,23,-44,-20,17
280,-15160,-14,764,-4615,23,-44,-20,17
281,-15158,-10,766,-4616,23,-44,-20,17
282,-15158,-8,776,-4616,23,-44,-20,17
283,-15156,-18,776,-4614,23,-44,-20,17
284,-15154,-20,766,-4613,23,-44,-19,17
285,-15148,-20,762,-4612,23,-44,-20,17
286,-15138,-12,758,-4611,23,-44,-19,17
287,-15142,-14,752,-4611,23,-44,-19,17
288,-15154,-16,756,-4610,23,-44,-19,17
289,-15148,-12,760,-4610,23,-44,-19,17
290,-15160,-2,754,-4612,23,-44,-19,17
291,-15160,-6,746,-4613,23,-44,-19,17
292,-15156,-2,744,-4612,23,-44,-19,17
293,-15148,2,750,-4613,23,-44,-19,17
294,-15140,4,764,-4613,23,-44,-19,17
295,-15150,-10,772,-4613,23,-44,-19,17
296,-15154,-8,760,-4614,23,-44,-19,17
297,-15164,-12,760,-4616,23,-44,-19,17
298,-15164,-12,770,-4616,23,-44,-19,17
299,-15166,-6,756,-4615,23,-44,-20,17
300,-15176,-12,758,-4617,23,-44,-20,17
301,-15166,-12,760,-4616,23,-44,-20,17
302,-15158,-12,762,-4615,23,-45,-20,17
303,-15162,-10,754,-4616,23,-44,-20,17
304,-15160,-12,758,-4614,23,-44,-19,17
305,-15164,-10,760,-4617,23,-44,-20,17
306,-15166,-12,744,-4616,23,-44,-20,17
307,-15162,-14,738,-4615,23,-44,-20,17
308,-15160,-8,754,-4614,23,-44,-20,17
309,-15172,0,750,-4615,23,-45,-20,18
310,-15156,-4,770,-4615,23,-45,-20,17
311,-15162,-8,764,-4614,23,-44,-20,17
312,-15170,-20,766,-4614,23,-45,-19,17
313,-15174,-18,788,-4613,23,-45,-20,17
314,-15178,-14,784,-4612,23,-45,-20,17
315,-15170,-16,774,-4612,23,-44,-20,17
316,-15168,-14,768,-4609,23,-44,-19,17
317,-15162,-12,756,-4610,23,-44,-20,17
318,-15156,-16,762,-4611,23,-44,-20,17
319,-15152,-8,766,-4612,23,-44,-20,17
320,-15160,-4,768,-4612,23,-44,-20,17
321,-15162,-8,762,-4614,23,-44,-20,17
322,-15166,-16,762,-4615,23,-44,-20,17
323,-15168,-18,760,-4614,23,-44,-20,17
324,-15172,-20,758,-4613,23,-44,-20,17
325,-15176,-22,758,-4612,23,-44,-19,17
326,-15180,-18,760,-4612,23,-44,-20,17
327,-15162,-14,748,-4612,23,-44,-20,17
328,-15160,-12,734,-4610,23,-44,-20,17
329,-15156,-18,720,-4609,23,-45,-20,17
330,-15154,-16,740,-4612,23,-44,-19,17
331,-15156,-16,750,-4613,23,-44,-19,17
332,-15160,-26,738,-4614,23,-44,-19,17
333,-15156,-18,750,-4610,23,-44,-19,17
334,-15152,-22,744,-4609,23,-44,-19,17
335,-15152,-20,744,-4610,23,-44,-19,17
336,-15156,-14,746,-4609,23,-44,-20,17
337,-15156,-16,740,-4610,23,-44,-20,17
338,-15154,-8,758,-4612,23,-44,-19,17
339,-15152,-14,752,-4612,23,-44,-19,17
340,-15156,-18,754,-4612,23,-44,-19,17
341,-15164,-16,754,-4613,23,-44,-19,17
342,-15158,-20,746,-4613,23,-44,-19,17
343,-15158,-24,746,-4612,23,-44,-19,17
344,-15152,-24,758,-4610,23,-44,-19,17
345,-15154,-24,750,-4610,23,-44,-20,17
346,-15154,-26,748,-4610,23,-44,-20,18
347,-15154,-26,752,-4610,23,-44,-19,17
348,-15152,-24,750,-4612,23,-44,-20,17
349,-15156,-20,758,-4611,23,-44,-20,17
350,-15162,-16,760,-4611,23,-44,-19,17
351,-15160,-18,750,-4610,23,-44,-19,17
352,-15158,-16,746,-4610,23,-44,-19,17
353,-15166,-18,742,-4610,23,-44,-20,17
354,-15164,-24,742,-4612,23,-44,-19,18
355,-15162,-30,756,-4611,23,-44,-19,17
356,-15156,-34,764,-4611,23,-44,-19,17
357,-15158,-36,770,-4611,23,-44,-19,17
358,-15156,-28,786,-4614,23,-44,-19,17
359,-15158,-22,780,-4615,23,-44,-20,18
360,-15156,-14,788,-4615,23,-44,-19,17
361,-15152,-24,772,-4614,23,-44,-19,17
362,-15152,-22,766,-4612,23,-44,-19,17
363,-15152,-18,768,-4610,23,-45,-19,17
364,-15152,-22,758,-4609,23,-44,-20,17
365,-15144,-18,752,-4608,23,-45,-19,17
366,-15154,-18,748,-4608,23,-45,-20,17
367,-15148,-4,740,-4607,23,-44,-20,17
368,-15158,-4,742,-4609,23,-44,-20,17
369,-15162,2,744,-4609,23,-44,-20,17
370,-15164,-6,744,-4610,23,-44,-19,17
371,-15170,-10,740,-4610,23,-44,-19,17
372,-15172,-12,744,-4611,23,-44,-19,17
373,-15172,-20,720,-4611,23,-44,-19,17
374,-15166,-20,734,-4612,23,-44,-20,17
375,-15168,-18,734,-4612,23,-44,-20,17
376,-15164,-20,742,-4613,23,-44,-20,17
377,-15156,-10,744,-4614,23,-44,-20,17
378,-15154,-6,752,-4614,23,-44,-20,17
379,-15142,-4,752,-4613,23,-44,-20,17
380,-15148,-12,752,-4613,23,-44,-20,18
381,-15150,-6,750,-4615,23,-44,-20,17
382,-15146,-8,762,-4611,23,-45,-19,18
383,-15154,-4,776,-4612,23,-45,-20,17
384,-15148,-4,772,-4611,23,-45,-20,17
385,-15154,-10,762,-4611,23,-45,-20,17
386,-15158,-8,768,-4611,23,-45,-19,17
387,-15150,-16,762,-4612,23,-44,-20,17
388,-15146,-16,778,-4613,23,-44,-20,17
389,-15154,-12,780,-4614,23,-44,-20,17
390,-15160,-12,760,-4613,23,-44,-20,17
391,-15152,-12,766,-4612,23,-44,-19,17
392,-15154,-14,760,-4612,23,-44,-19,17
393,-15152,-6,762,-4612,23,-45,-19,17
394,-15156,0,742,-4611,23,-44,-19,17
395,-15162,-10,752,-4611,23,-44,-20,17
396,-15162,2,748,-4612,23,-44,-20,17
397,-15162,4,736,-4611,23,-44,-20,17
398,-15152,6,748,-4611,23,-44,-20,17
399,-15142,6,748,-4610,23,-44,-20,17
400,-15142,0,744,-4610,23,-44,-20,17
401,-15136,-6,742,-4611,23,-44,-20,17
402,-15152,-10,742,-4610,23,-44,-20,17
403,-15146,-12,736,-4611,23,-44,-20,17
404,-15158,-10,748,-4610,23,-44,-20,17
405,-15158,-6,748,-4610,23,-44,-20,17
406,-15154,0,744,-4610,23,-44,-20,17
407,-15148,6,750,-4610,23,-44,-20,17
408,-15148,0,742,-4610,23,-44,-20,17
409,-15140,-4,754,-4611,23,-44,-20,18
410,-15144,-12,766,-4611,23,-44,-19,17
411,-15148,-14,764,-4611,23,-44,-19,17
412,-15150,-12,756,-4613,23,-44,-19,17
413,-15144,-14,760,-4613,23,-44,-19,17
414,-15150,-16,760,-4611,23,-44,-19,17
415,-15164,-16,742,-4610,23,-44,-19,17
416,-15170,-10,746,-4610,23,-44,-19,17
417,-15164,-18,736,-4609,23,-44,-19,17
418,-15160,-18,742,-4610,23,-44,-19,17
419,-15154,-14,756,-4608,23,-44,-20,17
420,-15150,-12,752,-4608,23,-44,-20,17
421,-15148,-12,762,-4610,23,-44,-20,17
422,-15148,-14,774,-4610,23,-44,-20,17
423,-15150,-18,768,-4611,23,-44,-20,17
424,-15160,-16,768,-4609,23,-43,-20,17
425,-15158,-8,776,-4609,23,-44,-20,17
426,-15164,-12,774,-4611,23,-44,-20,17
427,-15160,-18,778,-4611,23,-44,-20,17
428,-15158,-8,776,-4610,23,-44,-20,17
429,-15140,-4,756,-4608,23,-44,-20,17
430,-15142,-6,744,-4610,23,-44,-20,17
431,-15144,4,754,-4610,23,-44,-20,17
432,-15152,-4,764,-4609,23,-44,-19,17
433,-15150,-8,764,-4609,23,-44,-19,17
434,-15152,-12,772,-4608,23,-44,-19,17
435,-15158,-8,770,-4607,23,-44,-19,17
436,-15160,-8,758,-4608,23,-44,-20,17
437,-15164,0,770,-4608,23,-44,-20,17
438,-15164,-6,758,-4609,23,-44,-20,17
439,-15150,-18,760,-4610,23,-44,-20,17
440,-15146,-18,748,-4612,23,-44,-20,17
441,-15150,-14,742,-4612,23,-44,-20,17
442,-15150,-6,752,-4612,23,-44,-20,17
443,-15146,-18,746,-4612,23,-44,-20,17
444,-15146,-24,738,-4612,23,-44,-20,17
445,-15148,-24,754,-4610,23,-44,-20,17
446,-15150,-22,752,-4609,23,-44,-19,17
447,-15148,-18,754,-4609,23,-45,-19,17
448,-15152,-18,772,-4608,23,-45,-19,17
449,-15152,-18,766,-4609,23,-45,-20,17
450,-15156,-14,760,-4608,23,-45,-19,17
451,-15150,-10,750,-4607,23,-45,-20,17
452,-15148,-8,748,-4608,23,-44,-20,17
453,-15148,-6,756,-4610,23,-44,-19,17
454,-15150,-4,748,-4608,23,-44,-20,17
455,-15148,-10,736,-4608,23,-44,-19,17
456,-15154,-10,738,-4608,23,-44,-19,17
457,-15150,-10,742,-4609,23,-44,-19,17
458,-15160,-16,734,-4611,23,-44,-19,17
459,-15164,-20,738,-4612,23,-44,-19,17
460,-15162,-22,752,-4611,23,-44,-19,17
461,-15166,-10,738,-4611,23,-44,-19,17
462,-15170,-8,750,-4611,23,-44,-19,17
463,-15164,-8,750,-4611,23,-44,-19,18
464,-15158,-2,764,-4611,23,-44,-19,17
465,-15156,-10,764,-4609,23,-44,-19,17
466,-15162,-8,756,-4609,23,-44,-19,17
467,-15156,0,754,-4608,23,-44,-19,17
468,-15156,-2,752,-4610,23,-44,-19,18
469,-15158,-6,748,-4611,23,-44,-19,18
470,-15160,0,754,-4609,23,-44,-20,17
471,-15154,0,736,-4610,23,-45,-19,17
472,-15164,-8,740,-4611,23,-45,-20,17
473,-15154,-20,744,-4610,23,-45,-20,17
474,-15152,-18,738,-4609,23,-45,-20,17
475,-15144,-24,738,-4609,23,-45,-20,17
476,-15140,-18,752,-4609,23,-45,-19,17
477,-15140,-10,760,-4611,23,-45,-19,17
478,-15142,-8,756,-4611,23,-45,-19,17
479,-15146,-16,752,-4609,23,-44,-19,17
480,-15140,-10,746,-4610,23,-44,-19,17
481,-15146,-12,764,-4609,23,-44,-19,17
482,-15148,-12,760,-4608,23,-44,-19,17
483,-15148,-16,764,-4609,23,-44,-19,17
484,-15140,-14,746,-4610,23,-44,-20,17
485,-15144,-18,744,-4610,23,-44,-19,17
486,-15148,-18,740,-4611,23,-44,-19,17
487,-15150,-16,748,-4612,23,-44,-19,17
488,-15156,-14,760,-4612,23,-44,-20,17
489,-15150,-4,760,-4610,23,-44,-20,17
490,-15154,0,752,-4609,23,-44,-19,17
491,-15158,2,764,-4609,23,-44,-20,17
492,-15160,6,754,-4609,23,-44,-20,17
493,-15148,2,744,-4607,23,-44,-19,17
494,-15152,-4,738,-4607,23,-44,-19,17
495,-15152,-4,740,-4606,23,-44,-20,17
496,-15164,2,748,-4609,23,-45,-19,17
497,-15164,-6,752,-4610,23,-44,-20,17
498,-15154,-8,764,-4610,23,-44,-19,17
499,-15168,0,760,-4610,23,-44,-20,17
500,-15158,-2,752,-4609,23,-44,-20,17
501,-15150,4,752,-4608,23,-44,-20,17
502,-15152,6,744,-4607,23,-44,-19,17
503,-15156,6,740,-4605,23,-44,-20,17
504,-15152,2,752,-4606,23,-44,-20,17
505,-15154,-6,738,-4608,23,-44,-20,17
506,-15154,-10,742,-4607,23,-44,-20,17
507,-15168,-12,754,-4606,23,-45,-19,17
508,-15172,-10,750,-4604,23,-44,-19,17
509,-15164,-6,750,-4605,23,-44,-19,17
510,-15162,-6,752,-4606,23,-44,-20,17
511,-15158,-4,768,-4607,23,-44,-20,17
512,-15160,2,782,-4606,23,-44,-20,17
513,-15150,12,776,-4608,23,-44,-20,17
514,-15164,10,770,-4607,23,-44,-20,17
515,-15158,12,768,-4607,23,-44,-20,17
516,-15158,0,760,-4607,23,-44,-20,17
517,-15154,-4,770,-4607,23,-44,-20,17
518,-15150,-12,762,-4608,23,-44,-19,18
519,-15150,-12,768,-4610,23,-44,-19,17
520,-15144,4,764,-4612,23,-45,-19,18
521,-15136,4,748,-4612,23,-45,-19,17
522,-15130,-10,760,-4612,23,-44,-19,17
523,-15132,-14,762,-4611,23,-44,-19,17
524,-15138,-20,772,-4611,23,-44,-19,17
525,-15138,-14,760,-4612,23,-44,-19,17
526,-15136,-12,752,-4612,23,-44,-19,17
527,-15150,-8,758,-4610,23,-44,-19,17
528,-15158,-12,762,-4608,23,-44,-19,17
529,-15158,-18,764,-4608,23,-44,-19,17
530,-15160,-20,760,-4609,23,-44,-19,17
531,-15154,-16,744,-4608,23,-44,-19,17
532,-15156,-12,736,-4608,23,-44,-20,18
533,-15168,-14,744,-4608,23,-44,-20,18
534,-15172,-24,740,-4607,23,-44,-20,18
535,-15168,-24,758,-4606,23,-44,-20,17
536,-15160,-24,740,-4609,23,-44,-20,17
537,-15160,-18,750,-4611,23,-44,-20,17
538,-15162,-14,768,-4612,23,-44,-20,17
539,-15162,-10,766,-4609,23,-44,-20,17
540,-15166,-20,762,-4608,23,-44,-20,17
541,-15170,-12,752,-4609,23,-44,-19,17
542,-15174,-6,760,-4607,23,-44,-20,17
543,-15168,-14,760,-4606,23,-44,-20,17
544,-15170,-16,778,-4606,23,-44,-20,17
545,-15172,-20,774,-4604,23,-44,-20,17
546,-15168,-18,764,-4605,23,-44,-20,17
547,-15162,-22,754,-4606,23,-44,-19,17
548,-15164,-20,760,-4604,23,-44,-20,17
549,-15160,-28,758,-4605,23,-44,-19,17
550,-15160,-28,754,-4605,23,-44,-19,17
551,-15162,-22,744,-4605,23,-44,-20,17
552,-15158,-24,750,-4604,23,-44,-20,17
553,-15154,-26,756,-4601,23,-45,-20,17
554,-15160,-14,764,-4601,23,-45,-20,17
555,-15160,-14,762,-4600,23,-44,-20,17
556,-15162,-16,764,-4600,23,-44,-20,17
557,-15154,-12,786,-4600,23,-44,-20,17
558,-15158,-12,792,-4602,23,-44,-19,17
559,-15166,-14,790,-4603,23,-45,-19,17
560,-15166,-6,782,-4604,23,-44,-19,17
561,-15164,-8,768,-4603,23,-44,-20,17
562,-15164,-4,774,-4604,23,-44,-19,17
563,-15162,-10,774,-4607,23,-44,-19,18
564,-15158,-20,776,-4608,23,-44,-19,17
565,-15162,-14,780,-4609,23,-44,-20,18
566,-15154,-12,786,-4610,23,-44,-19,18
567,-15150,-10,770,-4610,23,-44,-19,18
568,-15144,-14,762,-4608,23,-44,-19,18
569,-15136,-18,772,-4606,23,-44,-20,17
570,-15146,-16,762,-4604,23,-44,-20,17
571,-15142,-8,764,-4606,23,-44,-20,17
572,-15134,-4,764,-4606,23,-44,-20,17
573,-15142,8,764,-4606,23,-44,-19,18
574,-15148,6,776,-4605,23,-44,-19,17
575,-15146,6,758,-4606,23,-44,-19,17
576,-15148,-4,768,-4606,23,-44,-19,17
577,-15148,2,758,-4605,23,-44,-19,17
578,-15140,-4,746,-4607,23,-44,-19,17
579,-15136,-2,754,-4606,23,-44,-19,17
580,-15150,-12,752,-4607,23,-44,-20,17
581,-15162,-2,744,-4607,23,-44,-19,17
582,-15172,-12,742,-4606,23,-44,-19,17
583,-15170,-14,746,-4607,23,-44,-20,17
584,-15172,-14,758,-4607,23,-44,-20,17
585,-15166,-24,762,-4606,23,-44,-20,17
586,-15156,-16,748,-4605,23,-44,-20,17
587,-15154,-14,738,-4606,23,-44,-20,17
588,-15148,-16,748,-4608,23,-44,-19,17
589,-15150,-14,756,-4610,23,-45,-19,17
590,-15144,-6,768,-4609,23,-45,-19,17
591,-15150,-10,766,-4608,23,-44,-19,17
592,-15148,-8,776,-4606,23,-44,-20,17
593,-15156,-18,776,-4607,23,-44,-20,17
594,-15162,-10,768,-4607,23,-45,-20,17
595,-15162,-10,770,-4607,23,-44,-20,17
596,-15164,-6,788,-4606,23,-44,-20,17
597,-15162,12,762,-4605,23,-44,-19,17
598,-15156,12,752,-4604,23,-44,-19,17
599,-15152,2,746,-4606,23,-44,-19,17
600,-15150,0,752,-4606,23,-44,-19,17
601,-15150,0,756,-4606,23,-44,-20,17
602,-15152,0,752,-4605,23,-44,-20,17
603,-15148,-4,750,-4606,23,-44,-20,17
604,-15156,4,740,-4605,23,-44,-20,17
605,-15156,0,746,-4604,23,-44,-20,17
606,-15160,8,742,-4604,23,-44,-20,17
607,-15164,4,738,-4609,23,-44,-20,17
608,-15154,-6,748,-4608,23,-44,-20,17
609,-15154,-8,742,-4608,23,-44,-20,17
610,-15150,-12,748,-4605,23,-44,-20,17
611,-15154,-14,738,-4607,23,-44,-20,17
612,-15154,-16,748,-4608,23,-44,-20,17
613,-15148,-12,746,-4608,23,-44,-20,17
614,-15150,-8,750,-4607,23,-45,-20,17
615,-15150,-6,738,-4607,23,-45,-19,17
616,-15148,-18,756,-4606,23,-45,-19,17
617,-15150,-14,762,-4605,23,-45,-19,17
618,-15146,-20,762,-4605,23,-44,-19,17
619,-15144,-12,748,-4605,23,-44,-20,17
620,-15144,-16,746,-4605,23,-44,-20,17
621,-15146,-16,736,-4604,23,-44,-20,17
622,-15138,-14,728,-4606,23,-44,-20,17
623,-15140,-6,742,-4606,23,-44,-20,17
624,-15136,-8,746,-4605,23,-44,-19,17
625,-15146,-14,756,-4607,23,-44,-19,17
626,-15152,-22,764,-4607,23,-44,-19,17
627,-15158,-18,746,-4607,23,-44,-19,17
628,-15150,-6,746,-4606,23,-44,-20,17
629,-15150,-2,752,-4605,23,-44,-20,17
630,-15154,-6,742,-4605,23,-45,-20,17
631,-15156,-4,734,-4606,23,-44,-20,17
632,-15152,4,732,-4604,23,-44,-20,17
633,-15136,-6,748,-4604,23,-44,-20,17
634,-15140,-16,752,-4605,23,-44,-20,17
635,-15158,-12,738,-4605,23,-44,-20,17
636,-15146,-10,746,-4604,23,-44,-20,17
637,-15138,-6,760,-4604,23,-44,-20,17
638,-15146,-6,774,-4602,23,-44,-20,17
639,-15148,-10,762,-4601,23,-44,-20,17
640,-15138,-10,754,-4604,23,-44,-20,17
641,-15142,-10,750,-4605,23,-44,-20,17
642,-15146,-12,752,-4605,23,-44,-20,17
643,-15150,-22,758,-4604,23,-44,-20,17
644,-15164,-30,762,-4604,23,-44,-20,17
645,-15162,-30,772,-4605,23,-44,-20,17
646,-15168,-24,780,-4604,23,-44,-19,17
647,-15154,-20,776,-4606,23,-44,-20,17
648,-15144,-24,778,-4606,23,-45,-20,17
649,-15138,-30,764,-4606,23,-44,-19,17
650,-15154,-28,766,-4605,23,-44,-19,17
651,-15156,-36,760,-4604,23,-44,-20,17
652,-15162,-22,776,-4605,23,-44,-19,17
653,-15160,-6,768,-4605,23,-44,-20,17
654,-15160,-16,764,-4604,23,-44,-19,18
655,-15164,-6,756,-4602,23,-44,-19,17
656,-15166,-4,762,-4603,23,-44,-20,17
657,-15162,-6,772,-4603,23,-44,-19,17
658,-15148,-10,766,-4603,23,-44,-19,17
659,-15142,-10,766,-4602,23,-44,-19,17
660,-15142,-10,760,-4601,23,-44,-19,17
661,-15146,-14,772,-4603,23,-44,-19,17
662,-15152,-18,766,-4603,23,-44,-19,17
663,-15160,-6,774,-4603,23,-44,-19,17
664,-15146,-8,776,-4603,23,-44,-19,17
665,-15152,-2,766,-4604,23,-44,-19,17
666,-15152,4,768,-4606,23,-44,-19,17
667,-15160,16,772,-4606,23,-44,-19,17
668,-15160,16,772,-4605,23,-44,-19,17
669,-15156,8,780,-4604,23,-44,-19,17
670,-15152,-6,772,-4603,23,-44,-19,17
671,-15152,-4,766,-4605,23,-44,-20,17
672,-15142,6,746,-4605,23,-44,-20,17
673,-15138,-2,748,-4605,23,-44,-20,17
674,-15130,-10,770,-4606,23,-44,-20,17
675,-15148,-20,772,-4606,23,-45,-20,17
676,-15148,-14,766,-4605,23,-45,-20,17
677,-15144,-8,766,-4606,23,-44,-20,17
678,-15144,0,766,-4607,23,-44,-20,17
679,-15144,-8,758,-4606,23,-44,-20,17
680,-15142,-6,756,-4605,23,-44,-19,17
681,-15144,-6,744,-4605,23,-44,-19,17
682,-15154,-10,750,-4604,23,-44,-19,17
683,-15152,-2,750,-4603,23,-44,-20,17
684,-15150,-10,754,-4605,23,-44,-20,17
685,-15150,-16,750,-4605,23,-44,-20,17
686,-15150,-22,742,-4605,23,-44,-20,17
687,-15156,-24,748,-4606,23,-44,-20,17
688,-15158,-20,754,-4606,23,-44,-20,17
689,-15152,-20,748,-4606,23,-44,-20,17
690,-15160,-22,756,-4607,23,-44,-20,17
691,-15158,-26,744,-4606,23,-44,-20,17
692,-15150,-24,748,-4606,23,-44,-20,17
693,-15146,-28,738,-4606,23,-44,-20,17
694,-15144,-24,748,-4606,23,-44,-20,17
695,-15144,-26,750,-4605,23,-44,-20,17
696,-15140,-10,770,-4606,23,-44,-20,17
697,-15146,-16,770,-4605,23,-44,-20,17
698,-15140,-8,778,-4605,23,-44,-20,17
699,-15154,-6,772,-4605,23,-44,-20,17
700,-15150,-2,762,-4605,23,-44,-20,17
701,-15152,-6,758,-4605,23,-44,-20,17
702,-15156,-8,760,-4603,23,-44,-20,17
703,-15154,-10,762,-4603,23,-44,-20,17
704,-15144,-12,776,-4604,23,-44,-20,17
705,-15152,-8,776,-4604,23,-44,-20,17
706,-15154,-18,778,-4605,23,-44,-20,17
707,-15152,-14,774,-4605,23,-44,-20,17
708,-15152,-10,784,-4605,23,-44,-20,17
709,-15154,-16,762,-4606,23,-44,-20,17
710,-15148,-12,758,-4606,23,-44,-19,17
711,-15154,-12,740,-4606,23,-44,-19,17
712,-15158,-6,732,-4607,23,-44,-19,17
713,-15166,-2,740,-4607,23,-44,-19,17
714,-15166,16,732,-4606,23,-44,-19,17
715,-15162,16,740,-4605,23,-44,-20,17
716,-15158,-2,752,-4605,23,-44,-20,17
717,-15154,-6,752,-4605,23,-44,-19,17
718,-15148,-6,760,-4605,23,-44,-19,17
719,-15150,-14,750,-4607,23,-44,-19,17
720,-15154,-10,742,-4606,23,-44,-19,17
721,-15160,-6,744,-4605,23,-44,-19,17
722,-15146,-16,734,-4605,23,-44,-19,17
723,-15138,-18,744,-4605,23,-44,-19,17
724,-15130,-10,754,-4604,23,-44,-19,17
725,-15130,-6,740,-4606,23,-44,-20,17
726,-15136,-8,740,-4606,23,-44,-19,17
727,-15148,-8,742,-4606,23,-44,-20,17
728,-15146,-8,748,-4605,23,-44,-20,17
729,-15146,-4,760,-4604,23,-45,-20,17
730,-15148,0,754,-4603,23,-45,-20,17
731,-15150,2,770,-4602,23,-45,-20,17
732,-15154,-2,764,-4600,23,-44,-19,17
733,-15156,2,760,-4601,23,-44,-19,17
734,-15148,2,762,-4602,23,-44,-19,17
735,-15154,6,748,-4603,23,-44,-20,17
736,-15154,-4,756,-4602,23,-44,-20,17
737,-15150,0,742,-4601,23,-44,-19,17
738,-15142,2,726,-4601,23,-44,-19,17
739,-15152,-2,736,-4601,23,-44,-19,17
740,-15146,-8,736,-4599,23,-44,-19,17
741,-15148,-10,726,-4600,23,-44,-19,17
742,-15156,-14,710,-4601,23,-44,-19,17
743,-15138,-12,716,-4603,23,-44,-19,17
744,-15132,-14,734,-4601,23,-44,-20,17
745,-15138,-14,736,-4600,23,-44,-20,17
746,-15144,-20,746,-4599,23,-44,-20,17
747,-15158,-18,756,-4599,23,-44,-20,17
748,-15152,-6,760,-4599,23,-45,-20,17
749,-15154,-4,754,-4600,23,-45,-20,17
750,-15164,-10,750,-4602,23,-44,-19,17
751,-15164,-8,754,-4603,23,-44,-20,17
752,-15162,-6,752,-4602,23,-44,-20,17
753,-15160,6,748,-4602,23,-44,-19,17
754,-15164,4,744,-4601,23,-44,-20,17
755,-15178,14,748,-4600,23,-44,-20,17
756,-15172,20,752,-4601,23,-44,-20,17
757,-15160,12,758,-4602,23,-44,-20,17
758,-15150,10,760,-4599,23,-44,-20,17
759,-15162,8,762,-4601,23,-44,-20,17
760,-15158,4,762,-4601,23,-44,-20,17
761,-15164,-8,758,-4601,23,-45,-20,17
762,-15170,-12,758,-4599,23,-44,-20,17
763,-15158,-14,774,-4601,23,-45,-20,17
764,-15162,-16,762,-4604,23,-44,-20,17
765,-15162,-22,754,-4605,23,-44,-20,17
766,-15162,-22,758,-4603,23,-44,-20,17
767,-15164,-28,766,-4604,23,-44,-20,17
768,-15164,-20,774,-4604,23,-44,-21,17
769,-15160,-10,786,-4603,23,-44,-20,17
770,-15152,-4,774,-4601,23,-44,-20,17
771,-15162,2,768,-4602,23,-44,-20,17
772,-15170,6,768,-4602,23,-44,-20,17
773,-15156,12,772,-4603,23,-44,-20,17
774,-15150,14,766,-4603,23,-44,-20,17
775,-15154,2,752,-4601,23,-44,-20,17
776,-15152,-2,748,-4599,23,-44,-20,17
777,-15158,-8,766,-4599,23,-44,-20,17
778,-15156,-4,770,-4598,23,-44,-20,17
779,-15156,-8,764,-4598,23,-44,-20,17
780,-15158,-14,762,-4598,23,-44,-20,17
781,-15150,-16,768,-4600,23,-44,-20,17
782,-15150,-20,750,-4601,23,-44,-20,17
783,-15148,-24,752,-4601,23,-44,-20,17
784,-15146,-18,758,-4601,23,-44,-20,17
785,-15144,-16,772,-4601,23,-44,-20,17
786,-15142,-16,774,-4601,23,-44,-20,17
787,-15140,-12,772,-4599,23,-44,-20,17
788,-15140,-18,778,-4601,23,-44,-20,17
789,-15152,-12,778,-4601,23,-44,-20,17
790,-15152,-20,776,-4602,23,-44,-20,17
791,-15158,-12,774,-4603,23,-44,-20,17
792,-15152,-12,768,-4604,23,-44,-20,17
793,-15158,-2,758,-4604,23,-44,-20,17
794,-15154,-10,750,-4604,23,-44,-20,17
795,-15152,-10,744,-4605,23,-44,-20,17
796,-15146,-14,742,-4606,23,-44,-20,17
797,-15136,-20,730,-4605,23,-44,-20,17
798,-15140,-24,738,-4605,23,-44,-20,17
799,-15144,-20,750,-4606,23,-44,-20,17
800,-15138,-16,766,-4606,23,-44,-20,17
801,-15144,-6,772,-4605,23,-44,-20,17
802,-15142,-12,772,-4606,23,-44,-19,17
803,-15130,-20,770,-4605,23,-44,-19,17
804,-15130,-14,768,-4605,23,-44,-19,17
805,-15136,-8,768,-4604,23,-44,-20,17
806,-15138,0,760,-4603,23,-44,-20,17
807,-15146,-4,754,-4601,23,-44,-19,17
808,-15160,-10,770,-4602,23,-44,-19,17
809,-15156,-2,762,-4603,23,-44,-19,17
810,-15160,-8,738,-4603,23,-44,-19,17
811,-15156,-10,738,-4604,23,-44,-19,17
812,-15156,-14,754,-4602,23,-44,-19,17
813,-15146,-16,746,-4604,23,-44,-20,17
814,-15152,-10,744,-4604,23,-44,-20,17
815,-15154,-8,744,-4602,23,-44,-20,17
816,-15152,-14,746,-4601,23,-44,-20,17
817,-15146,-14,754,-4602,23,-44,-20,17
818,-15146,-10,744,-4602,23,-44,-20,17
819,-15152,-18,754,-4603,23,-44,-20,17
820,-15162,-10,752,-4604,23,-44,-20,17
821,-15162,-10,756,-4602,23,-44,-20,18
822,-15156,-6,768,-4603,23,-44,-20,18
823,-15156,-6,772,-4603,23,-44,-19,17
824,-15156,-6,774,-4603,23,-44,-20,17
825,-15164,-10,772,-4604,23,-44,-19,17
826,-15162,-8,764,-4602,23,-44,-20,17
827,-15158,-6,758,-4604,23,-44,-20,17
828,-15162,-14,748,-4606,23,-44,-19,17
829,-15150,-12,754,-4606,23,-44,-20,17
830,-15150,-16,766,-4605,23,-44,-20,17
831,-15144,-6,758,-4606,23,-44,-20,17
832,-15156,-4,764,-4605,23,-44,-20,17
833,-15164,0,750,-4605,23,-44,-20,17
834,-15164,0,754,-4605,23,-44,-20,17
835,-15160,-4,750,-4604,23,-44,-20,17
836,-15156,-6,758,-4603,23,-44,-20,17
837,-15144,-4,756,-4603,23,-44,-20,17
838,-15146,-10,772,-4604,23,-44,-20,17
839,-15150,0,778,-4604,23,-44,-20,17
840,-15156,-6,784,-4603,23,-44,-20,17
841,-15150,-6,762,-4604,23,-44,-19,17
842,-15144,4,748,-4604,23,-44,-20,17
843,-15140,6,760,-4604,23,-44,-20,17
844,-15148,-10,770,-4604,23,-44,-20,17
845,-15140,-12,770,-4604,23,-44,-20,17
846,-15144,-8,780,-4604,23,-44,-19,16
847,-15142,-12,774,-4606,23,-44,-19,16
848,-15142,-22,760,-4604,23,-44,-20,16
849,-15142,-22,762,-4605,23,-44,-20,17
850,-15148,-16,768,-4604,23,-44,-20,17
851,-15148,-8,772,-4605,23,-44,-20,16
852,-15152,-8,772,-4605,23,-44,-19,16
853,-15156,-14,774,-4604,23,-44,-20,16
854,-15150,-14,778,-4603,23,-44,-20,17
855,-15148,-12,786,-4604,23,-44,-20,17
856,-15144,-12,770,-4602,23,-44,-19,16
857,-15148,-14,770,-4602,23,-44,-19,17
858,-15152,-16,762,-4602,23,-44,-20,17
859,-15160,-4,768,-4603,23,-44,-20,16
860,-15160,-18,774,-4603,23,-44,-20,17
861,-15146,-18,778,-4602,23,-44,-20,17
862,-15150,-18,768,-4600,23,-44,-20,17
863,-15148,-16,760,-4600,23,-44,-19,17
864,-15152,-16,754,-4602,23,-44,-19,17
865,-15144,-8,762,-4602,23,-44,-19,17
866,-15142,-14,762,-4602,23,-44,-19,17
867,-15148,-16,772,-4603,23,-44,-19,17
868,-15140,-8,774,-4604,23,-44,-19,17
869,-15146,6,776,-4604,23,-44,-19,18
870,-15150,14,768,-4604,23,-43,-19,17
871,-15152,14,762,-4604,23,-43,-19,17
872,-15150,10,766,-4602,23,-43,-19,17
873,-15158,18,768,-4604,23,-44,-19,17
874,-15166,12,756,-4602,23,-44,-19,17
875,-15158,4,768,-4602,23,-44,-19,17
876,-15162,0,752,-4603,23,-44,-19,17
877,-15158,-10,738,-4602,23,-44,-20,17
878,-15164,-10,748,-4603,23,-44,-20,17
879,-15166,-26,752,-4603,23,-44,-19,17
880,-15148,-20,758,-4604,23,-44,-19,17
881,-15154,-28,760,-4605,23,-44,-20,17
882,-15144,-28,762,-4604,23,-44,-20,17
883,-15150,-30,752,-4603,23,-44,-20,17
884,-15152,-34,750,-4602,23,-44,-20,17
885,-15148,-30,762,-4602,23,-44,-20,17
886,-15142,-30,760,-4603,23,-44,-20,17
887,-15148,-20,764,-4603,23,-44,-20,17
888,-15146,-16,758,-4604,23,-44,-20,17
889,-15144,-10,754,-4607,23,-45,-20,17
890,-15144,-14,750,-4607,23,-45,-20,17
891,-15144,-12,766,-4606,23,-45,-20,17
892,-15140,-14,768,-4607,23,-44,-20,17
893,-15152,-18,756,-4607,23,-45,-20,17
894,-15148,-22,752,-4605,23,-45,-19,17
895,-15142,-20,758,-4603,23,-44,-19,17
896,-15148,-20,762,-4602,23,-44,-19,17
897,-15152,-16,754,-4602,23,-44,-20,17
898,-15148,-18,748,-4601,23,-44,-19,17
899,-15142,-22,760,-4602,23,-44,-20,17
900,-15142,-22,756,-4601,23,-44,-20,17
901,-15150,-20,766,-4602,23,-44,-20,17
902,-15148,-24,776,-4603,23,-44,-19,17
903,-15146,-20,770,-4604,23,-44,-19,17
904,-15148,-14,764,-4601,23,-44,-19,17
905,-15148,-18,764,-4603,23,-44,-19,17
906,-15154,-26,754,-4602,23,-44,-20,17
907,-15152,-24,752,-4602,23,-44,-20,17
908,-15162,-12,758,-4602,23,-44,-19,17
909,-15172,-6,752,-4602,23,-44,-19,17
910,-15178,-6,748,-4603,23,-44,-19,17
911,-15176,-10,752,-4601,23,-44,-19,17
912,-15170,-16,762,-4600,23,-44,-19,17
913,-15162,-18,758,-4600,23,-45,-20,17
914,-15166,-6,758,-4599,23,-45,-20,17
915,-15164,-12,760,-4600,23,-45,-19,17
916,-15166,-6,766,-4599,23,-45,-19,17
917,-15172,-10,774,-4600,23,-44,-20,17
918,-15170,-12,780,-4600,23,-45,-19,17
919,-15158,-18,782,-4601,23,-44,-20,17
920,-15160,-24,790,-4601,23,-44,-20,17
921,-15156,-24,790,-4601,23,-45,-20,17
922,-15160,-18,794,-4602,23,-44,-20,17
923,-15154,-16,786,-4602,23,-44,-20,17
924,-15152,-18,788,-4602,23,-44,-20,17
925,-15152,-10,774,-4601,23,-44,-20,17
926,-15146,-2,764,-4602,23,-44,-20,17
927,-15144,-8,756,-4601,23,-44,-20,17
928,-15154,-6,760,-4601,23,-44,-20,17
929,-15146,-8,764,-4602,23,-44,-20,17
930,-15142,-6,774,-4603,23,-44,-20,17
931,-15148,-10,760,-4601,23,-44,-20,17
932,-15154,-14,758,-4599,23,-44,-20,17
933,-15146,-10,754,-4600,23,-44,-20,17
934,-15162,-24,744,-4600,23,-44,-19,17
935,-15164,-18,754,-4599,23,-44,-19,17
936,-15160,-24,760,-4599,23,-44,-20,17
937,-15160,-18,776,-4599,23,-44,-20,17
938,-15162,-20,780,-4599,23,-44,-20,17
939,-15156,-20,772,-4600,23,-44,-20,17
940,-15156,-28,770,-4601,23,-44,-20,17
941,-15156,-32,764,-4601,23,-44,-20,17
942,-15160,-28,756,-4602,23,-44,-20,17
943,-15156,-26,732,-4600,23,-44,-19,17
944,-15148,-32,750,-4599,23,-44,-20,17
945,-15150,-26,750,-4597,23,-44,-20,17
946,-15152,-30,762,-4601,23,-44,-20,17
947,-15154,-24,762,-4600,23,-44,-20,17
948,-15158,-24,766,-4600,23,-44,-20,17
949,-15158,-22,772,-4598,23,-44,-19,17
950,-15166,-12,766,-4597,23,-44,-19,17
951,-15160,-12,760,-4597,23,-44,-20,17
952,-15148,-10,760,-4596,23,-44,-19,17
953,-15146,-8,752,-4597,23,-44,-19,17
954,-15148,0,762,-4598,23,-44,-19,17
955,-15150,0,768,-4599,23,-44,-19,17
956,-15154,0,770,-4601,23,-44,-19,17
957,-15158,-8,772,-4601,23,-44,-19,17
958,-15156,2,772,-4601,23,-44,-20,17
959,-15152,6,770,-4600,23,-44,-19,17
960,-15152,10,766,-4598,23,-44,-19,17
961,-15150,2,752,-4598,23,-44,-19,17
962,-15150,-4,758,-4599,23,-44,-19,17
963,-15144,0,752,-4597,23,-44,-20,17
964,-15140,-6,748,-4599,23,-44,-20,17
965,-15134,-6,746,-4598,23,-44,-19,17
966,-15132,-6,752,-4599,23,-44,-20,17
967,-15134,-10,762,-4599,23,-45,-20,17
968,-15136,-8,760,-4600,23,-45,-20,17
969,-15134,-8,746,-4599,23,-45,-20,17
970,-15142,-8,752,-4598,23,-44,-20,17
971,-15144,-8,762,-4599,23,-44,-20,17
972,-15156,-2,768,-4598,23,-44,-20,17
973,-15156,-6,756,-4597,23,-44,-20,17
974,-15156,0,748,-4598,23,-44,-20,17
975,-15158,4,744,-4596,23,-44,-20,17
976,-15158,6,754,-4595,23,-44,-20,17
977,-15158,6,752,-4595,23,-44,-20,17
978,-15158,10,766,-4598,23,-44,-20,17
979,-15152,12,768,-4597,23,-44,-20,17
980,-15160,14,766,-4597,23,-44,-20,17
981,-15154,16,766,-4595,23,-44,-20,16
982,-15146,8,750,-4595,23,-44,-20,17
983,-15156,8,754,-4596,23,-44,-20,17
984,-15154,6,748,-4595,23,-44,-20,17
985,-15154,12,734,-4595,23,-43,-20,17
986,-15150,10,746,-4597,23,-44,-20,17
987,-15152,4,752,-4599,23,-44,-19,17
988,-15152,6,756,-4599,23,-44,-20,17
989,-15152,-2,764,-4598,23,-44,-20,17
990,-15164,-2,768,-4598,23,-44,-20,17
991,-15164,-8,764,-4598,23,-44,-19,17
992,-15158,-8,768,-4596,23,-44,-19,17
993,-15154,-2,772,-4597,23,-44,-19,17
994,-15162,-2,758,-4597,23,-44,-19,17
995,-15168,0,742,-4598,23,-44,-19,17
996,-15160,4,746,-4599,23,-44,-19,17
997,-15154,12,752,-4599,23,-44,-19,17
998,-15162,8,754,-4600,23,-44,-19,17
