,acc_X,acc_Y,acc_Z,temp,tempC,gyr_X,gyr_Y,gyr_Z
0,-7572,17,394,-4876,22,-175,-72,64
1,-7601,-15,429,-4883,22,-172,-80,67
2,-7602,-3,341,-4883,22,-173,-71,68
3,-7595,-19,353,-4888,22,-168,-79,73
4,-7574,-20,400,-4871,22,-173,-66,68
5,-7562,-21,445,-4887,22,-167,-71,62
6,-7560,-57,386,-4885,22,-170,-79,64
7,-7567,-31,389,-4869,22,-174,-71,75
8,-7559,29,309,-4880,22,-179,-82,73
9,-7567,-49,362,-4873,22,-164,-72,66
10,-7573,6,402,-4870,22,-165,-73,66
11,-7564,-24,337,-4872,22,-179,-82,75
12,-7570,0,354,-4881,22,-172,-76,72
13,-7621,-13,370,-4880,22,-178,-83,75
14,-7568,-25,392,-4866,22,-175,-78,66
15,-7593,13,389,-4858,22,-176,-71,75
16,-7598,-3,406,-4862,22,-171,-72,70
17,-7582,23,409,-4874,22,-171,-76,73
18,-7571,-42,400,-4862,22,-164,-67,60
19,-7590,-11,405,-4869,22,-162,-81,66
20,-7610,-20,370,-4880,22,-174,-69,72
21,-7574,18,373,-4864,22,-177,-76,63
22,-7551,-15,339,-4866,22,-167,-83,71
23,-7597,-5,349,-4867,22,-163,-67,64
24,-7567,-52,381,-4867,22,-169,-79,65
25,-7583,22,378,-4874,22,-172,-73,73
26,-7587,28,399,-4861,22,-168,-86,71
27,-7568,6,320,-4879,22,-173,-68,72
28,-7554,-39,423,-4868,22,-174,-73,74
29,-7628,8,402,-4876,22,-174,-76,64
30,-7557,24,338,-4888,22,-176,-74,79
31,-7613,18,323,-4865,22,-165,-82,67
32,-7587,-22,387,-4874,22,-167,-68,74
33,-7586,-16,361,-4872,22,-172,-69,71
34,-7601,49,407,-4878,22,-173,-79,74
35,-7551,30,358,-4868,22,-167,-75,70
36,-7555,-30,347,-4872,22,-171,-82,64
37,-7567,-15,338,-4870,22,-172,-79,64
38,-7595,-22,380,-4856,22,-168,-80,66
39,-7569,-45,364,-4858,22,-164,-85,63
40,-7618,-16,363,-4866,22,-173,-81,75
41,-7581,2,383,-4869,22,-168,-72,78
42,-7581,-30,372,-4866,22,-178,-80,70
43,-7576,-32,407,-4866,22,-172,-80,66
44,-7515,31,380,-4855,22,-179,-88,72
45,-7586,-12,374,-4869,22,-174,-76,69
46,-7584,-7,337,-4857,22,-176,-77,70
47,-7551,-14,296,-4875,22,-173,-61,68
48,-7573,29,354,-4869,22,-176,-71,61
49,-7587,13,362,-4864,22,-177,-77,71
50,-7545,15,374,-4869,22,-172,-79,63
51,-7591,-37,392,-4852,22,-168,-82,74
52,-7572,15,380,-4880,22,-176,-72,70
53,-7560,-50,379,-4864,22,-178,-72,65
54,-7577,-35,349,-4858,22,-171,-68,58
55,-7553,33,410,-4855,22,-173,-76,71
56,-7572,-11,329,-4860,22,-175,-81,69
57,-7606,3,377,-4851,22,-167,-69,65
58,-7612,-8,364,-4861,22,-171,-75,69
59,-7583,-32,332,-4867,22,-166,-86,69
60,-7585,20,381,-4873,22,-171,-81,74
61,-7585,-15,370,-4870,22,-177,-73,71
62,-7594,-3,415,-4866,22,-172,-80,76
63,-7569,-3,392,-4868,22,-178,-78,69
64,-7585,-21,343,-4867,22,-169,-92,71
65,-7558,-22,403,-4871,22,-172,-77,81
66,-7591,0,319,-4867,22,-173,-73,66
67,-7537,42,348,-4864,22,-181,-73,69
68,-7553,-15,369,-4857,22,-176,-77,72
69,-7562,29,371,-4876,22,-174,-82,69
70,-7556,11,307,-4865,22,-176,-74,74
71,-7540,22,362,-4869,22,-166,-78,72
72,-7560,44,340,-4869,22,-178,-69,68
73,-7582,0,347,-4866,22,-162,-68,70
74,-7540,-25,418,-4859,22,-178,-72,66
75,-7607,-15,388,-4856,22,-174,-79,69
76,-7573,-14,373,-4865,22,-174,-72,70
77,-7586,-17,422,-4857,22,-174,-81,79
78,-7579,46,376,-4848,22,-170,-74,71
79,-7562,-10,336,-4859,22,-180,-75,71
80,-7620,-1,422,-4844,22,-170,-72,69
81,-7595,11,358,-4856,22,-168,-84,66
82,-7586,11,388,-4866,22,-167,-72,59
83,-7578,-43,370,-4860,22,-170,-82,66
84,-7520,0,347,-4853,22,-175,-74,66
85,-7575,28,384,-4853,22,-167,-70,68
86,-7577,5,322,-4871,22,-167,-81,71
87,-7581,-25,371,-4852,22,-176,-77,77
88,-7605,15,353,-4856,22,-171,-73,64
89,-7574,12,384,-4848,22,-169,-73,74
90,-7555,11,384,-4857,22,-173,-72,65
91,-7593,-4,383,-4875,22,-166,-81,69
92,-7560,-60,357,-4849,22,-167,-67,78
93,-7572,0,352,-4864,22,-177,-75,74
94,-7561,30,356,-4856,22,-168,-78,67
95,-7569,13,352,-4852,22,-172,-79,75
96,-7568,-1,384,-4858,22,-176,-75,67
97,-7619,4,344,-4857,22,-180,-88,69
98,-7587,37,371,-4846,22,-166,-83,63
99,-7578,-40,344,-4854,22,-168,-74,81
100,-7581,13,387,-4850,22,-165,-84,67
101,-7543,9,331,-4843,22,-169,-80,71
102,-7552,-19,391,-4847,22,-168,-83,68
103,-7571,-24,324,-4866,22,-167,-81,77
104,-7586,-25,353,-4852,22,-173,-80,62
105,-7561,-11,331,-4835,22,-164,-70,80
106,-7601,-15,389,-4846,22,-179,-72,74
107,-7586,1,349,-4857,22,-173,-73,67
108,-7564,-8,418,-4846,22,-172,-68,81
109,-7586,-56,354,-4857,22,-170,-78,73
110,-7567,-21,367,-4856,22,-170,-79,68
111,-7594,-33,469,-4864,22,-169,-74,62
112,-7627,4,347,-4855,22,-177,-73,64
113,-7595,9,336,-4844,22,-174,-76,61
114,-7578,-35,353,-4866,22,-179,-77,66
115,-7602,8,338,-4850,22,-169,-76,71
116,-7566,45,354,-4844,22,-182,-83,71
117,-7577,21,416,-4834,22,-168,-82,68
118,-7586,-13,339,-4838,22,-167,-76,73
119,-7620,-1,334,-4844,22,-167,-72,66
120,-7591,20,315,-4849,22,-169,-66,76
121,-7611,26,373,-4846,22,-166,-75,67
122,-7551,-26,419,-4846,22,-183,-82,69
123,-7607,-9,438,-4860,22,-175,-81,75
124,-7524,-15,420,-4846,22,-170,-73,57
125,-7536,-2,426,-4843,22,-178,-75,70
126,-7570,34,340,-4838,22,-168,-69,70
127,-7542,-31,418,-4851,22,-171,-81,67
128,-7609,-36,375,-4837,22,-165,-83,69
129,-7553,-1,364,-4863,22,-171,-89,77
130,-7578,21,397,-4835,22,-168,-78,68
131,-7608,-15,321,-4843,22,-174,-85,77
132,-7574,11,333,-4850,22,-174,-80,69
133,-7562,5,350,-4861,22,-181,-74,69
134,-7544,22,366,-4855,22,-171,-73,78
135,-7549,-28,395,-4845,22,-178,-68,73
136,-7558,-14,401,-4852,22,-175,-79,63
137,-7553,38,418,-4845,22,-169,-81,72
138,-7543,-30,386,-4828,22,-179,-80,66
139,-7557,-12,365,-4853,22,-188,-78,73
140,-7572,12,357,-4840,22,-159,-77,69
141,-7590,-13,378,-4841,22,-176,-82,74
142,-7579,-33,386,-4839,22,-177,-69,71
143,-7572,-17,315,-4844,22,-167,-76,62
144,-7575,-31,394,-4839,22,-171,-73,73
145,-7545,-12,330,-4843,22,-164,-76,74
146,-7586,2,384,-4836,22,-164,-72,62
147,-7583,17,382,-4857,22,-172,-74,63
148,-7556,-21,405,-4855,22,-179,-73,66
149,-7570,17,357,-4857,22,-171,-81,60
150,-7543,-5,348,-4841,22,-168,-77,75
151,-7605,-8,418,-4852,22,-171,-82,62
152,-7577,-1,363,-4846,22,-174,-87,71
153,-7562,37,369,-4831,22,-166,-77,75
154,-7571,17,398,-4836,22,-167,-74,74
155,-7568,-16,388,-4852,22,-163,-80,65
156,-7567,-3,403,-4835,22,-177,-77,70
157,-7588,-14,372,-4850,22,-172,-83,64
158,-7569,21,365,-4844,22,-172,-79,66
159,-7565,13,420,-4841,22,-171,-70,66
160,-7520,-23,408,-4835,22,-174,-80,70
161,-7556,16,366,-4845,22,-172,-85,62
162,-7562,-22,376,-4852,22,-174,-70,75
163,-7571,12,323,-4840,22,-178,-78,74
164,-7568,-4,388,-4854,22,-170,-82,71
165,-7582,37,318,-4832,22,-159,-78,70
166,-7541,9,392,-4852,22,-167,-76,73
167,-7582,-8,374,-4837,22,-167,-85,63
168,-7616,5,392,-4847,22,-175,-85,62
169,-7609,7,376,-4835,22,-168,-72,70
170,-7576,-18,378,-4839,22,-181,-73,66
171,-7552,-73,372,-4836,22,-181,-77,62
172,-7593,34,356,-4846,22,-174,-68,70
173,-7570,10,383,-4839,22,-167,-80,69
174,-7580,21,349,-4842,22,-165,-68,67
175,-7576,16,376,-4849,22,-174,-75,70
176,-7567,31,381,-4844,22,-176,-72,73
177,-7630,-12,363,-4832,22,-172,-72,74
178,-7614,10,409,-4828,22,-169,-77,77
179,-7591,4,354,-4849,22,-174,-68,72
180,-7543,-2,355,-4823,22,-168,-82,68
181,-7583,-27,377,-4840,22,-177,-70,65
182,-7603,22,393,-4838,22,-173,-77,72
183,-7573,-21,337,-4836,22,-167,-76,65
184,-7583,-1,367,-4836,22,-182,-76,71
185,-7574,48,338,-4835,22,-170,-76,62
186,-7591,21,368,-4829,22,-177,-70,75
187,-7578,-33,385,-4853,22,-175,-74,73
188,-7597,-35,387,-4839,22,-172,-75,65
189,-7561,24,326,-4845,22,-173,-73,67
190,-7551,-16,383,-4842,22,-168,-74,76
191,-7582,-7,336,-4838,22,-173,-80,67
192,-7595,10,410,-4843,22,-170,-83,67
193,-7611,-32,431,-4832,22,-172,-80,70
194,-7566,-12,328,-4838,22,-169,-88,67
195,-7592,15,405,-4832,22,-166,-90,52
196,-7609,14,397,-4836,22,-176,-73,68
197,-7563,-33,402,-4836,22,-174,-75,73
198,-7575,6,345,-4837,22,-167,-80,71
199,-7582,11,309,-4827,22,-179,-75,63
200,-7573,12,359,-4839,22,-177,-66,71
201,-7564,16,349,-4826,22,-170,-68,63
202,-7575,-13,348,-4838,22,-168,-67,66
203,-7561,-16,355,-4825,22,-172,-86,63
204,-7573,-10,381,-4840,22,-172,-74,77
205,-7578,3,403,-4826,22,-174,-75,66
206,-7577,-58,339,-4837,22,-174,-71,62
207,-7578,-25,358,-4843,22,-176,-72,70
208,-7564,18,374,-4850,22,-170,-70,63
209,-7538,-13,348,-4825,22,-175,-71,72
210,-7550,8,409,-4836,22,-177,-78,68
211,-7570,-43,352,-4823,22,-173,-79,74
212,-7616,-30,384,-4844,22,-172,-79,66
213,-7621,-16,346,-4836,22,-162,-71,73
214,-7584,-22,447,-4823,22,-176,-77,68
215,-7585,-34,398,-4836,22,-169,-77,77
216,-7561,9,361,-4827,22,-172,-76,67
217,-7584,44,403,-4826,22,-176,-76,66
218,-7584,19,364,-4829,22,-168,-82,59
219,-7548,-5,377,-4825,22,-171,-79,65
220,-7567,-24,358,-4839,22,-175,-75,74
221,-7591,-38,372,-4844,22,-172,-80,65
222,-7578,16,384,-4830,22,-172,-76,73
223,-7569,-24,349,-4824,22,-176,-80,71
224,-7538,-40,369,-4835,22,-173,-81,73
225,-7560,-30,332,-4835,22,-184,-79,60
226,-7603,-34,403,-4817,22,-172,-74,67
227,-7589,-43,320,-4823,22,-167,-74,66
228,-7600,-26,400,-4822,22,-168,-72,74
229,-7575,15,360,-4832,22,-163,-79,82
230,-7556,-17,385,-4841,22,-167,-71,70
231,-7578,-32,337,-4814,22,-173,-72,74
232,-7560,-9,346,-4834,22,-172,-81,72
233,-7603,17,338,-4835,22,-168,-80,70
234,-7571,19,342,-4830,22,-167,-67,64
235,-7556,10,401,-4814,22,-169,-72,74
236,-7567,-33,375,-4844,22,-167,-71,75
237,-7542,-13,417,-4812,22,-171,-83,70
238,-7557,-19,346,-4825,22,-164,-75,71
239,-7581,10,391,-4832,22,-173,-74,69
240,-7597,34,405,-4836,22,-168,-80,71
241,-7568,19,366,-4834,22,-169,-80,64
242,-7638,-9,415,-4819,22,-171,-85,69
243,-7561,43,426,-4844,22,-166,-75,72
244,-7596,28,369,-4832,22,-179,-75,62
245,-7599,-31,379,-4829,22,-162,-78,68
246,-7575,6,340,-4825,22,-172,-67,69
247,-7579,-11,387,-4827,22,-176,-76,78
248,-7598,-5,372,-4830,22,-181,-77,66
249,-7551,-47,382,-4834,22,-177,-86,67
250,-7588,28,379,-4832,22,-174,-77,70
251,-7587,4,347,-4824,22,-179,-71,66
252,-7570,-31,375,-4824,22,-170,-84,77
253,-7557,-50,367,-4821,22,-171,-76,73
254,-7577,-77,338,-4836,22,-169,-73,67
255,-7563,-39,367,-4841,22,-172,-83,73
256,-7557,-8,324,-4828,22,-174,-80,69
257,-7576,-22,341,-4829,22,-177,-73,69
258,-7588,27,343,-4828,22,-171,-76,61
259,-7563,6,380,-4839,22,-174,-75,71
260,-7578,-20,380,-4841,22,-172,-82,68
261,-7568,-35,347,-4828,22,-173,-78,67
262,-7551,-16,359,-4834,22,-175,-80,63
263,-7568,32,369,-4833,22,-168,-78,67
264,-7587,-12,390,-4816,22,-179,-68,65
265,-7542,16,369,-4827,22,-175,-79,61
266,-7596,-15,436,-4834,22,-165,-71,69
267,-7588,-8,383,-4840,22,-179,-76,77
268,-7571,-9,343,-4832,22,-172,-72,65
269,-7591,-18,439,-4827,22,-175,-68,72
270,-7562,4,371,-4831,22,-164,-74,65
271,-7561,-34,365,-4827,22,-177,-76,74
272,-7562,-25,338,-4823,22,-167,-79,58
273,-7568,2,361,-4817,22,-175,-82,67
274,-7593,7,382,-4826,22,-173,-74,73
275,-7555,-16,382,-4833,22,-177,-89,81
276,-7580,-31,341,-4834,22,-173,-78,66
277,-7606,-20,381,-4822,22,-166,-92,72
278,-7584,-34,346,-4815,22,-175,-73,68
279,-7540,4,365,-4825,22,-170,-78,69
280,-7557,-39,380,-4823,22,-171,-76,71
281,-7557,-27,416,-4816,22,-178,-84,69
282,-7595,-24,379,-4821,22,-178,-82,77
283,-7574,37,423,-4811,22,-176,-81,65
284,-7590,-21,353,-4812,22,-181,-84,69
285,-7578,28,343,-4828,22,-171,-77,70
286,-7587,26,367,-4815,22,-172,-82,70
287,-7584,-16,398,-4820,22,-176,-70,69
288,-7516,-13,351,-4823,22,-164,-72,69
289,-7593,-4,363,-4837,22,-169,-70,58
290,-7544,-20,309,-4830,22,-170,-70,70
291,-7531,30,383,-4838,22,-167,-80,69
292,-7564,-7,355,-4820,22,-175,-71,70
293,-7586,-12,390,-4841,22,-182,-82,69
294,-7565,-36,380,-4826,22,-179,-82,71
295,-7561,18,420,-4826,22,-176,-78,70
296,-7588,-29,344,-4833,22,-165,-79,71
297,-7569,19,372,-4815,22,-177,-78,73
298,-7590,-41,382,-4828,22,-171,-72,67
299,-7609,-19,364,-4828,22,-179,-79,70
300,-7564,6,332,-4832,22,-171,-80,75
301,-7584,-44,347,-4819,22,-181,-79,69
302,-7606,-27,453,-4820,22,-171,-74,71
303,-7590,-40,348,-4824,22,-185,-76,78
304,-7625,26,409,-4825,22,-174,-85,74
305,-7533,0,428,-4823,22,-175,-76,65
306,-7563,-23,389,-4821,22,-174,-80,67
307,-7587,-37,359,-4812,22,-182,-78,65
308,-7551,-19,360,-4822,22,-167,-81,64
309,-7585,7,345,-4816,22,-173,-73,67
310,-7581,2,369,-4825,22,-164,-88,65
311,-7581,49,293,-4831,22,-169,-73,67
312,-7575,-17,388,-4835,22,-172,-68,65
313,-7538,17,362,-4812,22,-174,-78,68
314,-7562,32,383,-4821,22,-174,-80,65
315,-7582,2,352,-4819,22,-177,-73,72
316,-7555,-7,352,-4830,22,-172,-75,68
317,-7586,6,374,-4831,22,-166,-76,69
318,-7541,-10,439,-4805,22,-176,-80,74
319,-7551,2,434,-4831,22,-181,-64,70
320,-7654,17,358,-4826,22,-166,-80,71
321,-7558,-43,351,-4820,22,-175,-75,68
322,-7594,-29,421,-4830,22,-172,-81,73
323,-7553,11,374,-4808,22,-174,-73,70
324,-7542,-32,365,-4828,22,-167,-70,71
325,-7579,-8,317,-4816,22,-171,-75,71
326,-7573,-3,343,-4820,22,-180,-70,75
327,-7582,-3,370,-4822,22,-168,-79,75
328,-7564,-12,372,-4813,22,-172,-74,67
329,-7563,4,462,-4824,22,-169,-85,65
330,-7594,3,391,-4824,22,-173,-75,66
331,-7563,-31,422,-4809,22,-167,-81,67
332,-7554,4,431,-4821,22,-173,-77,71
333,-7585,-12,327,-4821,22,-174,-73,71
334,-7548,-3,385,-4827,22,-172,-78,71
335,-7583,4,393,-4811,22,-170,-80,66
336,-7595,-18,417,-4817,22,-174,-67,74
337,-7583,19,447,-4816,22,-176,-72,72
338,-7563,33,350,-4821,22,-167,-72,69
339,-7610,-15,392,-4822,22,-173,-76,73
340,-7545,-34,362,-4820,22,-168,-88,60
341,-7545,5,372,-4818,22,-176,-76,63
342,-7602,-6,350,-4804,22,-180,-88,68
343,-7580,2,407,-4826,22,-176,-77,70
344,-7567,23,387,-4815,22,-183,-80,61
345,-7537,0,385,-4817,22,-177,-86,67
346,-7598,19,399,-4820,22,-175,-79,62
347,-7555,-2,366,-4805,22,-169,-74,66
348,-7621,-17,418,-4828,22,-169,-69,74
349,-7560,-3,367,-4803,22,-170,-78,65
350,-7577,5,364,-4814,22,-178,-85,72
351,-7557,22,329,-4817,22,-176,-76,70
352,-7611,-9,388,-4814,22,-162,-73,61
353,-7560,-10,451,-4817,22,-170,-77,68
354,-7546,-11,394,-4817,22,-179,-70,74
355,-7581,26,387,-4819,22,-171,-68,71
356,-7599,-24,311,-4804,22,-169,-71,67
357,-7557,-12,358,-4826,22,-167,-73,66
358,-7573,-6,397,-4809,22,-170,-80,63
359,-7619,21,423,-4820,22,-167,-80,69
360,-7554,-15,407,-4818,22,-169,-83,72
361,-7594,-11,333,-4834,22,-173,-79,70
362,-7565,-54,399,-4821,22,-169,-76,62
363,-7581,-49,379,-4814,22,-173,-83,69
364,-7571,6,377,-4824,22,-173,-80,74
365,-7569,-31,361,-4806,22,-169,-79,64
366,-7587,12,353,-4818,22,-174,-85,68
367,-7543,13,337,-4806,22,-179,-76,71
368,-7558,-9,370,-4826,22,-169,-66,62
369,-7529,-9,321,-4821,22,-171,-86,71
370,-7600,-21,390,-4814,22,-174,-71,65
371,-7564,0,419,-4814,22,-173,-80,69
372,-7557,-5,406,-4813,22,-173,-70,70
373,-7567,-17,347,-4816,22,-170,-80,66
374,-7546,11,390,-4811,22,-170,-84,63
375,-7536,-3,358,-4800,22,-168,-75,70
376,-7541,-10,386,-4818,22,-171,-75,74
377,-7518,-15,320,-4814,22,-164,-81,68
378,-7609,12,394,-4822,22,-171,-77,69
379,-7600,0,368,-4813,22,-175,-78,65
380,-7581,-24,375,-4822,22,-166,-72,78
381,-7592,10,320,-4816,22,-170,-73,63
382,-7559,5,389,-4812,22,-174,-72,69
383,-7539,0,368,-4815,22,-174,-86,66
384,-7559,2,361,-4818,22,-182,-74,76
385,-7581,38,351,-4808,22,-168,-74,70
386,-7568,31,346,-4810,22,-176,-79,72
387,-7546,-7,348,-4800,22,-169,-74,79
388,-7559,8,308,-4813,22,-166,-69,75
389,-7548,2,383,-4814,22,-175,-82,72
390,-7578,22,393,-4821,22,-176,-85,67
391,-7577,15,321,-4822,22,-168,-72,65
392,-7521,4,307,-4822,22,-174,-81,70
393,-7569,30,302,-4815,22,-173,-72,79
394,-7551,6,445,-4821,22,-182,-76,69
395,-7600,7,364,-4808,22,-173,-80,66
396,-7578,-9,398,-4815,22,-171,-77,71
397,-7572,-11,406,-4810,22,-177,-69,62
398,-7620,12,348,-4816,22,-170,-73,84
399,-7597,-4,359,-4813,22,-177,-80,64
400,-7556,-19,428,-4803,22,-167,-73,68
401,-7583,-11,399,-4800,22,-160,-73,66
402,-7575,4,404,-4816,22,-162,-77,67
403,-7559,27,358,-4817,22,-172,-84,70
404,-7572,-32,367,-4818,22,-177,-82,65
405,-7570,30,390,-4809,22,-165,-72,77
406,-7608,26,354,-4810,22,-171,-66,68
407,-7590,21,377,-4809,22,-181,-78,66
408,-7554,12,425,-4815,22,-172,-77,60
409,-7567,-33,383,-4813,22,-166,-74,71
410,-7578,-1,435,-4807,22,-173,-75,70
411,-7564,-9,361,-4818,22,-173,-79,67
412,-7602,-8,316,-4808,22,-172,-89,75
413,-7553,-14,377,-4807,22,-178,-76,66
414,-7548,-26,285,-4820,22,-176,-70,69
415,-7564,-1,347,-4801,22,-170,-69,73
416,-7565,-29,385,-4817,22,-168,-67,69
417,-7560,-8,378,-4814,22,-165,-73,72
418,-7610,-11,372,-4823,22,-178,-73,70
419,-7562,6,355,-4824,22,-168,-74,69
420,-7560,-3,374,-4798,22,-177,-80,69
421,-7573,-1,390,-4821,22,-171,-82,64
422,-7590,-28,392,-4813,22,-172,-67,73
423,-7589,-4,410,-4812,22,-178,-78,73
424,-7605,6,288,-4810,22,-164,-80,76
425,-7598,-3,332,-4808,22,-171,-76,65
426,-7560,0,389,-4811,22,-177,-78,68
427,-7560,-22,322,-4807,22,-178,-77,65
428,-7586,-15,368,-4816,22,-171,-78,72
429,-7545,-17,362,-4806,22,-171,-76,63
430,-7607,15,374,-4814,22,-170,-79,69
431,-7560,9,360,-4813,22,-171,-79,69
432,-7552,-4,371,-4808,22,-168,-70,71
433,-7583,17,300,-4787,22,-174,-83,71
434,-7574,-11,346,-4814,22,-172,-74,63
435,-7554,-3,324,-4813,22,-177,-74,67
436,-7513,-12,397,-4803,22,-170,-75,69
437,-7564,9,335,-4821,22,-174,-61,66
438,-7570,24,398,-4808,22,-176,-72,71
439,-7587,-3,377,-4808,22,-169,-75,60
440,-7605,-14,412,-4810,22,-177,-87,70
441,-7580,-12,348,-4806,22,-170,-77,66
442,-7569,29,369,-4823,22,-175,-68,72
443,-7568,0,353,-4805,22,-176,-75,70
444,-7558,-19,379,-4798,22,-174,-74,62
445,-7572,7,362,-4827,22,-172,-77,72
446,-7572,25,371,-4804,22,-167,-71,64
447,-7550,14,317,-4804,22,-165,-74,73
448,-7563,-13,337,-4814,22,-174,-76,67
449,-7554,-40,309,-4818,22,-176,-79,68
450,-7587,11,403,-4812,22,-163,-88,74
451,-7593,-4,365,-4808,22,-168,-73,74
452,-7570,3,398,-4811,22,-173,-71,64
453,-7544,1,377,-4812,22,-170,-79,76
454,-7562,-7,389,-4812,22,-178,-69,71
455,-7610,7,353,-4815,22,-175,-72,57
456,-7603,-28,325,-4822,22,-179,-79,73
457,-7584,11,380,-4818,22,-162,-86,70
458,-7563,24,436,-4803,22,-181,-83,70
459,-7562,-6,342,-4807,22,-168,-73,74
460,-7599,-12,381,-4806,22,-167,-66,67
461,-7553,-11,329,-4809,22,-178,-74,66
462,-7577,11,326,-4802,22,-175,-82,73
463,-7576,-44,441,-4818,22,-169,-80,64
464,-7538,24,392,-4819,22,-167,-81,68
465,-7583,3,366,-4816,22,-170,-72,65
466,-7571,-13,337,-4807,22,-176,-67,70
467,-7616,-33,390,-4814,22,-174,-74,74
468,-7549,4,350,-4801,22,-172,-72,72
469,-7598,-17,322,-4811,22,-176,-75,71
470,-7567,21,342,-4811,22,-182,-69,68
471,-7577,11,304,-4803,22,-173,-81,79
472,-7559,-4,376,-4806,22,-173,-80,62
473,-7578,-8,363,-4820,22,-172,-72,60
474,-7578,-16,390,-4796,22,-175,-71,74
475,-7528,8,346,-4806,22,-171,-74,70
476,-7558,-18,352,-4804,22,-178,-77,73
477,-7614,10,390,-4802,22,-176,-79,63
478,-7549,-10,479,-4818,22,-172,-71,67
479,-7546,-6,364,-4803,22,-176,-87,69
480,-7567,-3,358,-4819,22,-176,-79,72
481,-7557,31,378,-4792,22,-168,-84,72
482,-7558,-33,459,-4810,22,-177,-83,69
483,-7580,-5,337,-4811,22,-176,-75,64
484,-7558,-34,306,-4806,22,-175,-76,72
485,-7557,-35,375,-4809,22,-173,-82,69
486,-7585,34,385,-4817,22,-169,-73,68
487,-7534,21,374,-4811,22,-182,-75,76
488,-7536,-33,389,-4804,22,-176,-84,69
489,-7553,1,365,-4821,22,-173,-79,66
490,-7599,-16,373,-4801,22,-169,-74,70
491,-7526,0,401,-4821,22,-177,-77,64
492,-7553,-29,347,-4798,22,-174,-72,71
493,-7592,-31,403,-4798,22,-169,-74,70
494,-7605,1,393,-4820,22,-174,-77,66
495,-7540,5,428,-4806,22,-175,-78,71
496,-7579,-22,372,-4818,22,-185,-73,59
497,-7608,0,416,-4807,22,-174,-76,68
498,-7590,-1,423,-4818,22,-171,-78,66
499,-7605,-27,394,-4789,22,-168,-72,67
500,-7566,6,400,-4808,22,-169,-72,61
501,-7534,-61,361,-4790,22,-183,-76,73
502,-7582,-2,355,-4813,22,-176,-75,66
503,-7564,-23,410,-4823,22,-171,-74,61
504,-7590,-17,362,-4807,22,-172,-80,70
505,-7568,-7,401,-4796,22,-170,-73,68
506,-7625,-21,401,-4809,22,-168,-80,65
507,-7605,-29,383,-4798,22,-176,-72,74
508,-7590,6,382,-4809,22,-171,-70,68
509,-7576,-10,420,-4800,22,-172,-78,70
510,-7563,-48,322,-4813,22,-175,-83,67
511,-7568,14,375,-4802,22,-184,-83,69
512,-7570,6,382,-4804,22,-178,-69,70
513,-7570,-25,336,-4809,22,-176,-80,63
514,-7547,34,350,-4800,22,-179,-74,68
515,-7637,-6,401,-4810,22,-178,-84,70
516,-7590,7,380,-4810,22,-173,-71,65
517,-7592,-49,353,-4810,22,-178,-72,68
518,-7567,-5,350,-4797,22,-174,-72,64
519,-7541,6,374,-4816,22,-175,-77,63
520,-7586,-26,339,-4797,22,-175,-72,68
521,-7563,1,397,-4798,22,-174,-80,67
522,-7585,-33,399,-4809,22,-171,-79,66
523,-7562,-29,353,-4809,22,-176,-80,60
524,-7582,-38,467,-4794,22,-173,-74,62
525,-7567,-11,325,-4800,22,-185,-68,65
526,-7570,1,389,-4784,22,-162,-75,66
527,-7631,-37,292,-4811,22,-177,-76,65
528,-7572,10,413,-4796,22,-171,-74,67
529,-7550,0,349,-4804,22,-180,-76,74
530,-7625,-28,352,-4819,22,-182,-80,69
531,-7585,38,356,-4799,22,-172,-79,71
532,-7559,-25,415,-4804,22,-175,-79,72
533,-7597,-10,375,-4808,22,-170,-78,74
534,-7591,4,370,-4805,22,-166,-80,72
535,-7546,-20,413,-4807,22,-172,-68,71
536,-7597,0,459,-4807,22,-186,-71,67
537,-7574,-12,396,-4806,22,-177,-76,78
538,-7599,-20,460,-4823,22,-175,-72,66
539,-7576,-20,355,-4816,22,-172,-80,60
540,-7542,-15,347,-4808,22,-170,-70,70
541,-7557,-26,380,-4809,22,-171,-82,66
542,-7586,8,385,-4790,22,-175,-79,67
543,-7619,20,378,-4801,22,-181,-79,74
544,-7573,-6,370,-4800,22,-168,-75,68
545,-7586,14,379,-4796,22,-177,-76,67
546,-7602,-5,384,-4803,22,-169,-76,70
547,-7556,-34,399,-4799,22,-179,-81,74
548,-7582,7,385,-4809,22,-169,-81,72
549,-7581,-54,382,-4808,22,-167,-82,61
550,-7582,-11,338,-4800,22,-174,-75,64
551,-7542,4,368,-4810,22,-175,-74,68
552,-7570,-10,323,-4811,22,-175,-78,71
553,-7599,-38,326,-4822,22,-174,-67,67
554,-7605,-23,311,-4814,22,-164,-77,62
555,-7563,-22,392,-4803,22,-168,-72,69
556,-7580,13,330,-4808,22,-178,-82,74
557,-7576,-26,325,-4811,22,-174,-79,66
558,-7558,-6,351,-4801,22,-180,-73,70
559,-7544,22,342,-4814,22,-175,-76,77
560,-7552,17,322,-4803,22,-170,-73,75
561,-7587,21,443,-4816,22,-172,-82,71
562,-7583,-2,439,-4796,22,-172,-80,68
563,-7584,-15,348,-4814,22,-173,-88,72
564,-7559,-1,350,-4791,22,-171,-75,63
565,-7559,-37,375,-4815,22,-170,-70,67
566,-7567,25,436,-4798,22,-176,-79,64
567,-7588,4,425,-4805,22,-173,-88,79
568,-7556,-27,361,-4807,22,-169,-79,72
569,-7563,-8,397,-4812,22,-182,-72,69
570,-7588,18,417,-4805,22,-171,-69,75
571,-7560,-15,375,-4808,22,-173,-72,63
572,-7600,-25,430,-4801,22,-177,-67,62
573,-7549,14,325,-4811,22,-181,-84,75
574,-7605,-6,351,-4803,22,-169,-75,65
575,-7607,23,381,-4808,22,-162,-79,67
576,-7615,35,375,-4810,22,-176,-84,62
577,-7544,-63,364,-4819,22,-166,-80,68
578,-7542,-4,394,-4807,22,-172,-84,66
579,-7547,-19,375,-4801,22,-174,-74,70
580,-7552,-10,397,-4805,22,-173,-81,66
581,-7541,15,303,-4812,22,-181,-77,62
582,-7597,-64,410,-4810,22,-171,-81,70
583,-7540,-44,341,-4808,22,-173,-78,70
584,-7564,-29,332,-4810,22,-180,-78,74
585,-7639,0,366,-4816,22,-163,-84,72
586,-7586,-46,365,-4801,22,-180,-82,75
587,-7558,-23,349,-4815,22,-175,-78,66
588,-7548,12,384,-4791,22,-181,-74,71
589,-7582,-30,382,-4798,22,-178,-68,62
590,-7597,-31,312,-4815,22,-172,-77,69
591,-7559,-10,411,-4805,22,-169,-78,57
592,-7573,-3,336,-4815,22,-174,-78,72
593,-7568,-12,321,-4804,22,-172,-77,75
594,-7556,-5,403,-4799,22,-168,-78,73
595,-7566,-34,367,-4786,22,-174,-85,74
596,-7575,-36,354,-4804,22,-162,-75,77
597,-7579,24,394,-4804,22,-170,-79,68
598,-7596,23,337,-4801,22,-174,-71,74
599,-7584,-24,368,-4798,22,-175,-73,68
600,-7573,28,357,-4808,22,-174,-73,72
601,-7596,4,419,-4798,22,-176,-67,61
602,-7571,-27,384,-4794,22,-178,-81,71
603,-7578,24,319,-4793,22,-179,-78,66
604,-7576,10,359,-4813,22,-169,-82,69
605,-7586,16,361,-4809,22,-176,-80,62
606,-7579,16,402,-4796,22,-178,-70,71
607,-7568,-45,361,-4805,22,-166,-86,64
608,-7584,-38,438,-4807,22,-175,-71,70
609,-7596,19,380,-4796,22,-176,-79,63
610,-7572,-53,383,-4792,22,-172,-72,68
611,-7594,9,403,-4793,22,-180,-77,69
612,-7597,1,409,-4803,22,-180,-78,69
613,-7569,-20,333,-4805,22,-170,-82,81
614,-7592,-11,321,-4819,22,-173,-80,75
615,-7580,27,377,-4801,22,-176,-79,69
616,-7619,2,376,-4804,22,-162,-80,68
617,-7544,15,367,-4790,22,-171,-75,75
618,-7547,-3,346,-4810,22,-176,-81,70
619,-7556,33,408,-4802,22,-173,-73,65
620,-7575,-21,285,-4803,22,-176,-80,62
621,-7587,-48,382,-4811,22,-171,-76,73
622,-7592,-8,339,-4795,22,-164,-83,66
623,-7578,-33,376,-4803,22,-180,-76,72
624,-7580,-20,412,-4802,22,-172,-75,80
625,-7595,-21,420,-4798,22,-178,-69,65
626,-7597,-23,386,-4795,22,-172,-70,68
627,-7547,-11,401,-4802,22,-179,-78,73
628,-7576,11,371,-4803,22,-180,-76,80
629,-7589,24,406,-4826,22,-172,-74,72
630,-7591,-20,419,-4810,22,-167,-89,65
631,-7584,-17,455,-4791,22,-179,-83,75
632,-7573,-8,341,-4785,22,-176,-80,71
633,-7598,12,333,-4790,22,-172,-81,71
634,-7553,19,358,-4798,22,-170,-73,77
635,-7558,13,388,-4778,22,-168,-83,76
636,-7586,-9,407,-4787,22,-162,-78,72
637,-7580,-35,347,-4797,22,-171,-81,69
638,-7629,26,370,-4808,22,-170,-76,70
639,-7552,7,430,-4819,22,-161,-77,71
640,-7583,13,313,-4801,22,-169,-75,61
641,-7635,-27,392,-4794,22,-172,-77,65
642,-7576,6,341,-4798,22,-179,-69,63
643,-7628,28,399,-4807,22,-171,-81,70
644,-7569,-51,368,-4801,22,-177,-80,72
645,-7575,2,390,-4793,22,-174,-78,64
646,-7556,-25,347,-4796,22,-166,-77,68
647,-7579,-1,402,-4784,22,-181,-71,70
648,-7597,-28,384,-4798,22,-182,-86,71
649,-7571,8,368,-4791,22,-172,-70,68
650,-7550,-22,409,-4805,22,-159,-77,69
651,-7567,-18,402,-4810,22,-171,-78,70
652,-7572,18,434,-4796,22,-182,-77,70
653,-7601,-41,406,-4797,22,-171,-71,67
654,-7583,16,415,-4798,22,-177,-71,70
655,-7561,4,423,-4789,22,-171,-81,60
656,-7560,9,319,-4806,22,-173,-79,62
657,-7596,15,426,-4803,22,-167,-73,68
658,-7559,-36,400,-4784,22,-172,-88,76
659,-7600,-27,362,-4803,22,-179,-80,73
660,-7601,-6,365,-4802,22,-171,-83,66
661,-7567,2,348,-4808,22,-162,-82,74
662,-7577,-22,355,-4796,22,-176,-73,73
663,-7572,-19,330,-4805,22,-173,-83,64
664,-7597,-5,341,-4789,22,-168,-65,66
665,-7573,5,364,-4799,22,-172,-71,72
666,-7582,20,352,-4797,22,-173,-71,72
667,-7594,20,380,-4794,22,-170,-82,72
668,-7579,-9,369,-4801,22,-192,-80,62
669,-7578,-21,372,-4805,22,-170,-78,70
670,-7556,-7,397,-4801,22,-182,-82,67
671,-7558,16,420,-4808,22,-168,-74,66
672,-7566,-25,426,-4802,22,-164,-72,65
673,-7589,-9,354,-4796,22,-172,-80,65
674,-7535,-3,359,-4799,22,-166,-75,63
675,-7569,30,382,-4796,22,-174,-75,67
676,-7558,-6,352,-4804,22,-165,-79,62
677,-7564,19,395,-4799,22,-176,-83,68
678,-7568,-11,418,-4797,22,-168,-78,68
679,-7581,9,433,-4801,22,-171,-75,66
680,-7589,-31,386,-4800,22,-181,-78,70
681,-7573,-11,327,-4787,22,-167,-75,74
682,-7621,-6,328,-4791,22,-172,-75,65
683,-7579,30,369,-4788,22,-167,-74,75
684,-7580,-44,380,-4808,22,-177,-77,72
685,-7564,18,376,-4801,22,-180,-70,73
686,-7596,2,397,-4801,22,-176,-74,66
687,-7522,14,341,-4803,22,-168,-76,73
688,-7544,-2,382,-4786,22,-170,-71,70
689,-7560,30,370,-4798,22,-173,-78,70
690,-7607,-26,356,-4803,22,-166,-86,81
691,-7549,7,422,-4793,22,-176,-80,66
692,-7544,-9,339,-4790,22,-171,-76,61
693,-7536,-31,350,-4797,22,-178,-70,67
694,-7562,4,303,-4799,22,-179,-83,77
695,-7537,14,331,-4800,22,-182,-77,76
696,-7555,28,366,-4795,22,-178,-83,73
697,-7592,1,381,-4797,22,-176,-75,74
698,-7557,9,390,-4805,22,-176,-84,70
699,-7531,-16,350,-4806,22,-180,-88,66
700,-7543,-23,319,-4788,22,-179,-75,70
701,-7571,19,388,-4805,22,-181,-73,73
702,-7535,13,399,-4803,22,-171,-74,65
703,-7543,-32,371,-4796,22,-176,-76,65
704,-7565,-7,345,-4801,22,-174,-75,80
705,-7598,-10,426,-4800,22,-178,-76,66
706,-7583,-32,395,-4800,22,-169,-78,68
707,-7598,-1,311,-4791,22,-178,-77,70
708,-7575,15,384,-4797,22,-167,-68,70
709,-7560,-14,409,-4802,22,-173,-74,68
710,-7606,12,368,-4795,22,-185,-78,72
711,-7562,-57,311,-4786,22,-178,-74,76
712,-7616,5,338,-4791,22,-173,-77,62
713,-7571,27,390,-4792,22,-176,-74,69
714,-7572,-26,383,-4795,22,-179,-65,70
715,-7584,6,348,-4795,22,-165,-79,69
716,-7568,-4,385,-4797,22,-170,-76,64
717,-7557,-39,379,-4801,22,-174,-75,71
718,-7576,-28,297,-4798,22,-174,-80,66
719,-7587,10,380,-4778,22,-171,-71,71
720,-7603,16,417,-4797,22,-169,-73,63
721,-7585,-17,374,-4791,22,-181,-86,70
722,-7551,24,370,-4797,22,-178,-78,68
723,-7569,39,413,-4794,22,-172,-73,70
724,-7601,-19,383,-4796,22,-178,-76,75
725,-7567,16,374,-4800,22,-173,-71,72
726,-7566,-28,307,-4789,22,-177,-78,74
727,-7525,21,355,-4792,22,-177,-75,70
728,-7571,6,408,-4800,22,-174,-70,68
729,-7594,-16,378,-4794,22,-166,-80,66
730,-7599,5,401,-4788,22,-169,-74,69
731,-7579,-7,348,-4793,22,-173,-79,72
732,-7552,13,376,-4798,22,-171,-74,69
733,-7582,3,380,-4791,22,-172,-78,71
734,-7631,4,387,-4793,22,-168,-74,69
735,-7580,23,333,-4788,22,-169,-78,66
736,-7575,-23,386,-4799,22,-167,-73,73
737,-7586,20,356,-4781,22,-175,-79,73
738,-7561,12,396,-4789,22,-174,-71,68
739,-7542,5,361,-4802,22,-166,-81,71
740,-7556,-18,370,-4797,22,-172,-74,65
741,-7580,3,363,-4801,22,-183,-90,73
742,-7585,25,370,-4807,22,-162,-73,73
743,-7582,-39,350,-4795,22,-174,-77,77
744,-7562,-36,349,-4787,22,-180,-78,67
745,-7558,10,341,-4796,22,-173,-71,69
746,-7574,5,392,-4796,22,-171,-74,72
747,-7565,19,435,-4799,22,-170,-78,69
748,-7573,-16,365,-4798,22,-168,-75,67
749,-7582,24,363,-4799,22,-173,-76,70
750,-7566,-1,394,-4800,22,-168,-72,69
751,-7560,10,337,-4795,22,-169,-81,59
752,-7588,-4,347,-4799,22,-174,-72,73
753,-7580,-35,334,-4795,22,-173,-74,68
754,-7584,14,314,-4791,22,-178,-79,68
755,-7576,3,419,-4787,22,-171,-81,63
756,-7568,-24,360,-4783,22,-168,-80,72
757,-7564,-2,380,-4794,22,-174,-75,74
758,-7591,1,386,-4789,22,-172,-81,80
759,-7596,-21,376,-4801,22,-169,-84,65
760,-7601,11,370,-4788,22,-178,-69,73
761,-7618,-45,351,-4797,22,-171,-79,71
762,-7569,23,386,-4796,22,-169,-80,67
763,-7580,4,372,-4786,22,-164,-77,76
764,-7556,-15,418,-4799,22,-165,-73,67
765,-7561,-16,348,-4802,22,-179,-80,72
766,-7554,-24,398,-4801,22,-169,-74,71
767,-7568,16,361,-4788,22,-178,-73,67
768,-7572,-12,356,-4792,22,-177,-77,69
769,-7601,-31,387,-4787,22,-171,-85,65
770,-7581,4,337,-4786,22,-169,-82,66
771,-7601,-8,381,-4788,22,-176,-80,65
772,-7563,35,349,-4791,22,-176,-79,63
773,-7579,-31,364,-4798,22,-163,-79,76
774,-7595,17,388,-4790,22,-175,-83,70
775,-7592,-20,391,-4797,22,-171,-90,72
776,-7601,-20,370,-4798,22,-178,-83,69
777,-7534,-15,355,-4774,22,-175,-82,64
778,-7604,14,430,-4788,22,-180,-72,66
779,-7573,-9,356,-4793,22,-166,-79,79
780,-7582,-15,397,-4788,22,-175,-77,73
781,-7588,46,409,-4784,22,-171,-72,68
782,-7596,30,309,-4804,22,-178,-73,70
783,-7579,-17,385,-4772,22,-177,-68,76
784,-7527,34,418,-4785,22,-170,-74,74
785,-7562,-21,391,-4795,22,-179,-75,68
786,-7569,2,351,-4792,22,-171,-80,70
787,-7578,-29,402,-4792,22,-172,-68,70
788,-7574,38,366,-4793,22,-171,-87,64
789,-7580,-23,376,-4798,22,-172,-74,73
790,-7568,6,366,-4778,22,-174,-78,65
791,-7548,-4,328,-4792,22,-172,-76,65
792,-7558,-2,357,-4785,22,-173,-85,72
793,-7570,10,296,-4791,22,-169,-71,68
794,-7538,-1,376,-4785,22,-172,-80,69
795,-7597,-29,346,-4792,22,-171,-76,71
796,-7571,-9,336,-4780,22,-172,-71,70
797,-7577,-43,401,-4800,22,-174,-74,65
798,-7573,-32,411,-4787,22,-183,-82,69
799,-7539,31,388,-4788,22,-179,-75,70
800,-7585,6,451,-4798,22,-165,-72,70
801,-7561,18,327,-4776,22,-168,-64,65
802,-7570,-25,321,-4782,22,-168,-72,71
803,-7580,-23,362,-4778,22,-166,-79,71
804,-7549,7,339,-4793,22,-175,-71,56
805,-7578,-20,387,-4800,22,-166,-73,75
806,-7596,-27,424,-4788,22,-173,-81,67
807,-7588,-4,336,-4802,22,-170,-83,69
808,-7565,6,343,-4795,22,-166,-76,63
809,-7571,5,357,-4786,22,-162,-83,74
810,-7565,-13,397,-4781,22,-170,-73,70
811,-7569,-17,415,-4786,22,-179,-81,63
812,-7581,-10,407,-4788,22,-174,-69,70
813,-7565,-1,369,-4788,22,-172,-87,70
814,-7554,-18,359,-4783,22,-171,-68,67
815,-7582,3,349,-4789,22,-171,-77,73
816,-7581,-31,301,-4803,22,-169,-73,67
817,-7563,-39,383,-4786,22,-174,-66,75
818,-7586,13,360,-4790,22,-172,-86,67
819,-7578,-26,368,-4785,22,-169,-78,68
820,-7580,-8,338,-4795,22,-167,-77,73
821,-7585,-16,396,-4797,22,-174,-72,70
822,-7593,2,364,-4785,22,-174,-77,69
823,-7561,-11,426,-4794,22,-167,-75,67
824,-7574,23,350,-4795,22,-176,-70,73
825,-7561,27,363,-4791,22,-173,-81,67
826,-7606,0,338,-4777,22,-163,-73,70
827,-7562,8,357,-4794,22,-173,-78,66
828,-7542,-8,389,-4793,22,-168,-80,68
829,-7629,-15,388,-4796,22,-170,-74,71
830,-7573,-20,376,-4795,22,-172,-79,64
831,-7617,9,399,-4791,22,-169,-75,69
832,-7541,-8,433,-4790,22,-171,-83,64
833,-7554,-16,352,-4802,22,-175,-72,60
834,-7598,-30,410,-4787,22,-176,-75,71
835,-7575,-6,373,-4782,22,-169,-74,70
836,-7549,-15,390,-4784,22,-175,-85,69
837,-7609,15,344,-4786,22,-168,-74,75
838,-7554,4,354,-4810,22,-180,-74,63
839,-7557,-20,398,-4795,22,-179,-78,68
840,-7551,16,407,-4787,22,-173,-70,71
841,-7573,-24,341,-4791,22,-174,-66,74
842,-7594,-14,344,-4779,22,-170,-72,74
843,-7576,8,396,-4793,22,-165,-76,64
844,-7538,-10,396,-4779,22,-182,-72,69
845,-7558,-10,331,-4783,22,-179,-77,79
846,-7565,2,395,-4791,22,-171,-75,74
847,-7592,28,335,-4793,22,-160,-75,75
848,-7543,10,379,-4796,22,-167,-74,76
849,-7572,-47,376,-4780,22,-169,-77,73
850,-7566,65,305,-4790,22,-172,-77,76
851,-7596,-13,401,-4784,22,-180,-73,68
852,-7574,-17,401,-4788,22,-172,-82,76
853,-7593,-69,348,-4777,22,-167,-84,67
854,-7549,-15,360,-4783,22,-176,-84,66
855,-7598,-10,364,-4792,22,-167,-81,72
856,-7555,13,465,-4791,22,-185,-67,72
857,-7597,-35,403,-4786,22,-178,-75,61
858,-7561,-11,356,-4787,22,-175,-75,64
859,-7574,-35,371,-4803,22,-174,-79,71
860,-7567,-8,340,-4793,22,-170,-85,71
861,-7580,-18,395,-4783,22,-181,-65,68
862,-7567,-15,367,-4788,22,-171,-80,72
863,-7543,-7,340,-4778,22,-172,-84,65
864,-7583,4,407,-4794,22,-172,-77,73
865,-7554,-12,431,-4768,22,-176,-72,64
866,-7568,0,415,-4780,22,-166,-65,68
867,-7558,8,398,-4775,22,-172,-79,74
868,-7543,-33,426,-4767,22,-173,-73,70
869,-7563,-4,300,-4787,22,-172,-74,69
870,-7568,11,375,-4789,22,-177,-69,73
871,-7555,-15,375,-4804,22,-169,-75,65
872,-7596,-9,370,-4774,22,-171,-74,78
873,-7579,-27,415,-4781,22,-176,-73,78
874,-7584,-20,358,-4772,22,-170,-77,67
875,-7570,-35,387,-4780,22,-176,-80,74
876,-7598,-12,390,-4787,22,-170,-86,71
877,-7542,-19,389,-4791,22,-174,-77,68
878,-7563,4,339,-4793,22,-177,-75,62
879,-7560,-19,335,-4785,22,-163,-73,73
880,-7578,-59,343,-4802,22,-176,-70,66
881,-7586,-12,368,-4791,22,-172,-72,68
882,-7601,2,428,-4793,22,-175,-76,79
883,-7579,25,392,-4775,22,-173,-79,74
884,-7542,-5,433,-4782,22,-178,-68,73
885,-7582,-35,331,-4794,22,-182,-77,66
886,-7601,32,391,-4784,22,-169,-80,65
887,-7599,-29,373,-4782,22,-168,-77,66
888,-7567,3,326,-4776,22,-175,-77,78
889,-7583,-7,396,-4793,22,-174,-73,72
890,-7575,-12,354,-4786,22,-177,-75,74
891,-7598,-25,445,-4796,22,-167,-71,68
892,-7532,23,431,-4791,22,-172,-75,77
893,-7577,9,422,-4790,22,-172,-83,79
894,-7608,-25,357,-4792,22,-171,-79,67
895,-7607,-14,379,-4790,22,-173,-78,74
896,-7573,-25,347,-4795,22,-176,-73,75
897,-7608,33,361,-4787,22,-174,-68,71
898,-7566,38,374,-4791,22,-170,-68,68
899,-7574,2,345,-4783,22,-177,-81,71
900,-7564,9,411,-4779,22,-173,-80,73
901,-7562,-10,365,-4787,22,-161,-72,71
902,-7608,-36,407,-4773,22,-177,-75,68
903,-7581,-1,354,-4781,22,-167,-74,77
904,-7579,22,392,-4798,22,-179,-83,75
905,-7566,-2,421,-4785,22,-176,-84,66
906,-7562,8,438,-4788,22,-176,-72,72
907,-7580,-56,352,-4788,22,-166,-74,79
908,-7540,-38,404,-4789,22,-173,-84,66
909,-7577,26,337,-4786,22,-170,-80,74
910,-7585,-9,401,-4799,22,-185,-75,68
911,-7594,-7,349,-4789,22,-168,-75,65
912,-7581,-7,352,-4786,22,-183,-77,68
913,-7560,24,355,-4789,22,-170,-73,70
914,-7567,7,392,-4776,22,-172,-86,70
915,-7536,15,309,-4788,22,-175,-82,71
916,-7592,-47,309,-4797,22,-177,-77,71
917,-7555,-24,375,-4783,22,-167,-72,78
918,-7580,-31,332,-4793,22,-169,-70,71
919,-7556,-19,409,-4786,22,-170,-79,68
920,-7579,-22,380,-4771,22,-178,-80,65
921,-7613,17,376,-4797,22,-172,-78,73
922,-7573,12,370,-4778,22,-165,-76,69
923,-7566,-9,397,-4777,22,-169,-86,73
924,-7613,15,382,-4780,22,-164,-77,68
925,-7584,19,312,-4779,22,-164,-69,68
926,-7583,-10,389,-4780,22,-166,-86,67
927,-7608,-40,425,-4780,22,-176,-71,74
928,-7571,30,395,-4785,22,-176,-78,72
929,-7598,-24,357,-4788,22,-179,-78,63
930,-7570,-23,388,-4782,22,-168,-84,61
931,-7540,-19,425,-4792,22,-168,-79,70
932,-7533,-35,385,-4794,22,-169,-80,70
933,-7583,-8,397,-4792,22,-172,-83,63
934,-7597,-9,368,-4775,22,-172,-79,68
935,-7602,-23,421,-4792,22,-166,-74,71
936,-7591,11,374,-4787,22,-174,-81,65
937,-7599,-25,387,-4791,22,-173,-75,72
938,-7583,7,291,-4792,22,-173,-74,71
939,-7564,-40,390,-4782,22,-174,-89,69
940,-7545,-51,344,-4789,22,-176,-66,69
941,-7602,2,301,-4774,22,-169,-71,67
942,-7578,13,380,-4795,22,-171,-79,67
943,-7619,-23,327,-4799,22,-170,-73,61
944,-7599,-3,371,-4776,22,-179,-74,68
945,-7585,-14,361,-4781,22,-171,-79,75
946,-7620,-32,342,-4787,22,-171,-69,66
947,-7585,-19,387,-4803,22,-167,-80,66
948,-7614,42,365,-4778,22,-174,-80,72
949,-7582,-14,320,-4777,22,-177,-78,68
950,-7586,9,408,-4789,22,-167,-74,78
951,-7561,-12,411,-4788,22,-174,-74,68
952,-7601,26,343,-4776,22,-160,-70,68
953,-7523,-32,325,-4783,22,-176,-78,77
954,-7535,16,394,-4781,22,-171,-82,79
955,-7578,16,378,-4791,22,-175,-77,71
956,-7588,-10,310,-4777,22,-173,-77,66
957,-7578,6,379,-4786,22,-183,-82,70
958,-7612,-7,446,-4782,22,-174,-82,72
959,-7573,-2,389,-4798,22,-170,-72,75
960,-7545,10,423,-4785,22,-167,-67,66
961,-7533,0,363,-4783,22,-172,-77,81
962,-7576,-5,381,-4780,22,-169,-87,62
963,-7579,-8,351,-4779,22,-166,-79,71
964,-7577,22,350,-4798,22,-173,-82,74
965,-7575,-28,404,-4779,22,-172,-78,69
966,-7581,-15,400,-4781,22,-174,-65,70
967,-7556,9,361,-4786,22,-170,-73,71
968,-7610,-11,393,-4784,22,-172,-72,74
969,-7607,-25,322,-4786,22,-170,-67,68
970,-7601,-11,354,-4803,22,-175,-73,66
971,-7598,-10,404,-4787,22,-177,-86,72
972,-7564,-20,378,-4784,22,-169,-78,70
973,-7579,11,393,-4786,22,-166,-74,73
974,-7564,-4,306,-4785,22,-182,-75,66
975,-7598,-7,361,-4781,22,-180,-77,67
976,-7596,10,368,-4779,22,-181,-78,67
977,-7578,5,348,-4790,22,-176,-79,74
978,-7599,-5,351,-4795,22,-168,-82,71
979,-7580,6,418,-4788,22,-176,-88,70
980,-7594,7,333,-4788,22,-177,-78,67
981,-7561,-6,372,-4780,22,-180,-74,69
982,-7585,-29,331,-4770,22,-166,-79,64
983,-7606,-11,333,-4780,22,-176,-84,66
984,-7560,-21,360,-4780,22,-180,-79,71
985,-7594,-6,395,-4776,22,-172,-79,65
986,-7578,-27,362,-4780,22,-162,-76,73
987,-7583,-16,385,-4777,22,-176,-78,63
988,-7550,-11,323,-4791,22,-169,-67,72
989,-7537,-32,300,-4775,22,-174,-73,76
990,-7605,-20,382,-4787,22,-174,-71,73
991,-7596,0,420,-4781,22,-174,-85,62
992,-7568,-15,325,-4768,22,-183,-71,66
993,-7597,-19,387,-4771,22,-175,-79,69
994,-7538,4,337,-4778,22,-173,-71,72
995,-7588,-17,411,-4783,22,-182,-68,73
