,acc_X,acc_Y,acc_Z,temp,tempC,gyr_X,gyr_Y,gyr_Z
0,-15168,-8,764,-4660,23,-89,-39,35
1,-15154,-6,748,-4656,23,-88,-38,34
2,-15142,-46,764,-4652,23,-88,-38,34
3,-15152,-34,794,-4653,23,-88,-39,33
4,-15156,-6,746,-4652,23,-88,-37,36
5,-15174,-26,766,-4655,23,-88,-40,37
6,-15132,-12,768,-4652,23,-87,-38,35
7,-15132,-50,784,-4654,23,-87,-38,34
8,-15172,-46,844,-4651,23,-87,-39,34
9,-15180,-10,766,-4654,23,-86,-39,35
10,-15176,-32,770,-4653,23,-87,-40,35
11,-15176,-32,780,-4650,23,-89,-39,36
12,-15138,-24,786,-4653,23,-88,-39,34
13,-15148,-30,766,-4654,23,-87,-38,34
14,-15162,0,752,-4656,23,-87,-40,34
15,-15152,-4,722,-4658,23,-87,-41,35
16,-15144,-14,752,-4649,23,-89,-40,34
17,-15144,-18,734,-4650,23,-87,-39,35
18,-15162,-24,716,-4653,23,-88,-38,36
19,-15160,-2,716,-4653,23,-87,-39,35
20,-15156,-14,736,-4652,23,-87,-41,34
21,-15156,-6,742,-4651,23,-86,-39,35
22,-15150,-30,778,-4654,23,-86,-39,36
23,-15166,0,726,-4659,23,-87,-39,36
24,-15160,-30,758,-4658,23,-87,-40,35
25,-15154,12,790,-4658,23,-88,-40,34
26,-15136,-10,766,-4654,23,-86,-40,34
27,-15126,-12,802,-4652,23,-87,-39,38
28,-15132,0,744,-4657,23,-88,-39,35
29,-15148,8,768,-4658,23,-87,-39,35
30,-15132,-10,726,-4653,23,-87,-39,35
31,-15128,-18,724,-4652,23,-85,-40,35
32,-15132,-30,726,-4648,23,-88,-39,34
33,-15128,-12,732,-4648,23,-87,-38,33
34,-15156,8,756,-4652,23,-86,-36,35
35,-15156,4,762,-4654,23,-87,-37,34
36,-15142,0,744,-4656,23,-87,-38,34
37,-15152,40,718,-4654,23,-86,-38,34
38,-15122,-8,700,-4655,23,-87,-38,33
39,-15156,-22,736,-4651,23,-88,-37,34
40,-15188,-26,736,-4653,23,-88,-37,34
41,-15156,-24,790,-4652,23,-90,-36,34
42,-15170,8,752,-4651,23,-88,-39,34
43,-15174,-22,714,-4655,23,-88,-39,35
44,-15168,-14,700,-4658,23,-88,-38,36
45,-15160,0,718,-4653,23,-87,-40,34
46,-15178,8,740,-4653,23,-87,-39,35
47,-15160,4,716,-4652,23,-87,-41,34
48,-15130,-20,724,-4657,23,-87,-40,35
49,-15158,-20,684,-4651,23,-88,-39,35
50,-15142,-28,734,-4654,23,-88,-37,34
51,-15162,-48,748,-4652,23,-87,-38,35
52,-15142,-14,758,-4651,23,-87,-38,35
53,-15156,-22,778,-4655,23,-86,-37,36
54,-15164,-38,800,-4654,23,-86,-39,35
55,-15166,-26,750,-4646,23,-86,-37,36
56,-15152,-20,752,-4651,23,-87,-38,35
57,-15162,-20,744,-4650,23,-87,-36,35
58,-15160,-18,698,-4647,23,-89,-38,34
59,-15166,-8,738,-4651,23,-87,-38,35
60,-15174,-22,750,-4650,23,-87,-38,34
61,-15178,-8,732,-4656,23,-88,-38,35
62,-15144,12,726,-4659,23,-88,-36,35
63,-15142,-34,728,-4650,23,-88,-37,34
64,-15144,-18,724,-4656,23,-87,-40,35
65,-15162,0,704,-4658,23,-86,-39,34
66,-15144,-16,764,-4656,23,-88,-39,34
67,-15140,-14,728,-4654,23,-88,-38,34
68,-15146,-26,784,-4658,23,-89,-40,35
69,-15164,-2,774,-4658,23,-87,-40,35
70,-15164,-46,776,-4657,23,-86,-40,35
71,-15138,-24,784,-4657,23,-86,-40,37
72,-15188,18,774,-4662,23,-85,-38,36
73,-15162,-36,736,-4662,23,-86,-38,34
74,-15136,-34,734,-4655,23,-89,-37,36
75,-15154,-10,712,-4656,23,-88,-38,36
76,-15162,-12,748,-4655,23,-89,-39,36
77,-15180,-8,690,-4656,23,-87,-39,35
78,-15154,-20,722,-4652,23,-89,-38,35
79,-15150,-14,758,-4652,23,-88,-37,34
80,-15156,-12,758,-4651,23,-87,-37,34
81,-15152,8,738,-4656,23,-88,-36,35
82,-15156,-18,758,-4653,23,-87,-38,36
83,-15176,-6,746,-4654,23,-85,-38,36
84,-15158,-6,730,-4658,23,-86,-39,35
85,-15164,-38,746,-4654,23,-84,-38,36
86,-15150,-30,756,-4655,23,-87,-38,35
87,-15148,-40,784,-4655,23,-86,-39,36
88,-15152,-20,766,-4653,23,-87,-39,35
89,-15162,-38,768,-4650,23,-89,-39,35
90,-15172,10,766,-4653,23,-88,-40,34
91,-15148,-4,758,-4655,23,-87,-38,35
92,-15132,-30,748,-4656,23,-87,-40,34
93,-15178,-20,772,-4652,23,-86,-38,34
94,-15188,-10,704,-4657,23,-87,-38,34
95,-15190,-34,752,-4651,23,-88,-37,33
96,-15148,-10,746,-4650,23,-87,-37,33
97,-15146,14,722,-4653,23,-88,-38,34
98,-15136,2,696,-4657,23,-87,-37,35
99,-15130,-20,712,-4657,23,-86,-39,35
100,-15154,-6,746,-4654,23,-87,-37,35
101,-15176,-12,776,-4650,23,-88,-37,36
102,-15180,-28,744,-4647,23,-87,-39,34
103,-15160,-40,752,-4656,23,-90,-40,35
104,-15156,-34,778,-4651,23,-90,-39,34
105,-15168,-26,804,-4650,23,-87,-39,35
106,-15186,0,736,-4648,23,-88,-40,33
107,-15172,-24,766,-4651,23,-87,-40,35
108,-15158,-26,780,-4650,23,-89,-41,35
109,-15146,-4,776,-4649,23,-88,-38,35
110,-15160,-8,742,-4649,23,-87,-38,34
111,-15102,-6,730,-4649,23,-87,-40,34
112,-15120,-32,732,-4651,23,-87,-38,35
113,-15154,-18,766,-4654,23,-88,-40,35
114,-15148,0,772,-4653,23,-89,-39,35
115,-15166,-2,760,-4649,23,-89,-37,35
116,-15170,-26,762,-4653,23,-89,-37,34
117,-15144,-20,704,-4655,23,-87,-38,35
118,-15146,8,690,-4652,23,-88,-37,35
119,-15158,2,770,-4644,23,-87,-40,35
120,-15178,-28,750,-4646,23,-88,-38,33
121,-15176,-26,786,-4645,23,-86,-39,34
122,-15156,-24,754,-4650,23,-87,-39,33
123,-15160,-18,734,-4652,23,-88,-39,35
124,-15156,-10,706,-4655,23,-89,-39,34
125,-15132,-24,786,-4651,23,-88,-37,34
126,-15156,-8,818,-4655,23,-86,-39,36
127,-15158,-24,764,-4651,23,-87,-39,33
128,-15142,-24,762,-4652,23,-87,-39,34
129,-15160,-26,802,-4654,23,-86,-37,34
130,-15192,-14,734,-4647,23,-88,-40,35
131,-15162,-12,748,-4650,23,-88,-39,35
132,-15152,2,744,-4658,23,-88,-37,35
133,-15148,-22,762,-4650,23,-87,-37,36
134,-15168,-8,766,-4649,23,-88,-38,35
135,-15138,-14,742,-4651,23,-88,-40,34
136,-15130,-8,806,-4650,23,-86,-39,34
137,-15176,-42,728,-4654,23,-87,-38,35
138,-15142,-6,782,-4650,23,-87,-39,33
139,-15150,-4,768,-4654,23,-87,-40,35
140,-15142,-26,746,-4655,23,-86,-39,36
141,-15146,12,734,-4656,23,-88,-37,35
142,-15144,-10,750,-4652,23,-88,-38,34
143,-15150,-42,738,-4650,23,-88,-37,35
144,-15146,-8,724,-4654,23,-88,-38,35
145,-15182,-22,724,-4651,23,-87,-38,35
146,-15186,-22,746,-4651,23,-87,-39,34
147,-15190,-16,766,-4653,23,-87,-40,35
148,-15184,6,768,-4656,23,-86,-39,35
149,-15160,-4,748,-4657,23,-87,-38,35
150,-15196,12,770,-4656,23,-88,-38,34
151,-15180,-6,754,-4656,23,-86,-38,34
152,-15142,-8,752,-4652,23,-88,-39,35
153,-15146,-6,744,-4649,23,-86,-40,34
154,-15178,-28,734,-4651,23,-88,-38,34
155,-15150,-22,756,-4643,23,-88,-39,35
156,-15174,-14,740,-4652,23,-87,-39,35
157,-15162,-34,766,-4654,23,-87,-40,35
158,-15154,-6,736,-4655,23,-88,-38,35
159,-15156,-10,752,-4650,23,-88,-38,34
160,-15166,-14,776,-4651,23,-88,-40,34
161,-15178,-8,780,-4650,23,-88,-39,36
162,-15162,-14,788,-4652,23,-88,-39,35
163,-15160,-30,712,-4653,23,-87,-39,35
164,-15180,-18,736,-4651,23,-85,-38,35
165,-15148,-18,762,-4654,23,-86,-39,34
166,-15146,4,748,-4651,23,-87,-39,35
167,-15130,-2,722,-4652,23,-87,-41,34
168,-15134,-24,714,-4654,23,-87,-40,34
169,-15116,-24,726,-4653,23,-86,-38,34
170,-15154,-38,752,-4650,23,-85,-41,34
171,-15158,-48,716,-4649,23,-87,-38,34
172,-15146,-18,738,-4652,23,-86,-37,34
173,-15136,12,736,-4652,23,-87,-38,33
174,-15134,-16,710,-4655,23,-87,-38,33
175,-15152,-26,748,-4656,23,-89,-38,34
176,-15144,-28,752,-4649,23,-88,-37,34
177,-15160,-16,724,-4645,23,-88,-37,34
178,-15152,2,772,-4644,23,-88,-39,34
179,-15152,2,752,-4647,23,-87,-40,34
180,-15144,-18,744,-4649,23,-88,-40,35
181,-15162,-4,738,-4649,23,-87,-40,33
182,-15164,24,760,-4646,23,-87,-40,35
183,-15160,8,732,-4650,23,-88,-38,35
184,-15164,-6,750,-4651,23,-87,-39,35
185,-15146,-12,754,-4652,23,-89,-39,35
186,-15134,-20,748,-4653,23,-88,-36,34
187,-15146,0,746,-4651,23,-88,-39,35
188,-15190,-18,770,-4647,23,-88,-38,34
189,-15200,-18,722,-4652,23,-86,-38,34
190,-15156,-12,730,-4649,23,-87,-38,34
191,-15142,-18,702,-4653,23,-88,-39,35
192,-15150,2,712,-4659,23,-88,-39,34
193,-15136,6,728,-4657,23,-87,-39,36
194,-15144,-30,742,-4651,23,-88,-39,35
195,-15162,-30,770,-4650,23,-88,-39,34
196,-15156,-18,730,-4657,23,-87,-38,35
197,-15134,-20,766,-4655,23,-88,-39,34
198,-15132,20,764,-4654,23,-88,-39,34
199,-15138,4,760,-4647,23,-88,-37,35
200,-15146,-10,734,-4653,23,-86,-38,35
201,-15126,-10,768,-4655,23,-88,-38,35
202,-15132,-28,782,-4653,23,-87,-39,34
203,-15128,-22,784,-4652,23,-88,-40,35
204,-15142,10,760,-4652,23,-88,-39,36
205,-15142,8,730,-4655,23,-86,-39,34
206,-15176,-18,762,-4650,23,-85,-39,35
207,-15136,-36,748,-4650,23,-86,-39,35
208,-15164,-6,724,-4649,23,-88,-38,35
209,-15180,-16,774,-4645,23,-87,-38,35
210,-15168,-30,748,-4647,23,-87,-39,34
211,-15150,-2,706,-4654,23,-89,-38,34
212,-15164,-4,726,-4652,23,-88,-39,35
213,-15152,-22,738,-4654,23,-88,-38,34
214,-15166,0,738,-4654,23,-88,-39,35
215,-15158,-8,758,-4656,23,-88,-36,36
216,-15164,-10,736,-4653,23,-87,-37,36
217,-15162,-20,754,-4651,23,-88,-39,36
218,-15160,18,768,-4649,23,-87,-39,34
219,-15158,-18,758,-4648,23,-89,-39,36
220,-15164,-20,824,-4647,23,-89,-39,35
221,-15158,-18,798,-4647,23,-88,-39,36
222,-15168,-22,756,-4646,23,-87,-37,35
223,-15160,6,678,-4652,23,-87,-37,35
224,-15140,12,710,-4653,23,-88,-39,35
225,-15158,4,742,-4655,23,-90,-38,35
226,-15198,12,752,-4650,23,-88,-38,35
227,-15174,-2,734,-4652,23,-87,-37,33
228,-15140,-28,730,-4648,23,-88,-39,34
229,-15162,-26,726,-4646,23,-87,-41,34
230,-15162,-18,760,-4648,23,-88,-39,34
231,-15168,-24,748,-4650,23,-88,-39,33
232,-15154,-24,754,-4651,23,-88,-40,35
233,-15152,0,754,-4649,23,-88,-39,33
234,-15180,-14,730,-4648,23,-88,-36,33
235,-15172,-40,736,-4647,23,-87,-37,34
236,-15168,10,758,-4652,23,-88,-39,34
237,-15160,-8,776,-4649,23,-87,-39,34
238,-15150,-26,782,-4650,23,-86,-39,34
239,-15168,-34,732,-4656,23,-87,-39,34
240,-15136,-30,720,-4649,23,-87,-38,35
241,-15148,-12,740,-4653,23,-89,-38,33
242,-15146,-32,800,-4653,23,-88,-37,34
243,-15162,-10,806,-4648,23,-87,-39,33
244,-15148,-14,760,-4650,23,-86,-41,33
245,-15144,8,804,-4651,23,-87,-39,33
246,-15172,18,740,-4648,23,-89,-41,35
247,-15168,-4,750,-4652,23,-90,-37,36
248,-15156,-10,732,-4649,23,-88,-39,35
249,-15164,-36,764,-4652,23,-87,-39,35
250,-15172,-30,728,-4651,23,-88,-38,35
251,-15166,26,750,-4651,23,-87,-39,33
252,-15176,12,766,-4650,23,-89,-38,33
253,-15162,4,710,-4648,23,-87,-41,32
254,-15152,2,722,-4648,23,-88,-39,34
255,-15130,-6,712,-4650,23,-87,-37,35
256,-15144,-20,700,-4656,23,-88,-38,35
257,-15142,-14,746,-4653,23,-88,-39,35
258,-15154,-18,766,-4652,23,-88,-38,36
259,-15158,-8,768,-4652,23,-86,-38,35
260,-15160,-38,770,-4651,23,-87,-38,34
261,-15140,-8,752,-4648,23,-87,-38,35
262,-15158,0,768,-4653,23,-87,-38,35
263,-15152,-2,750,-4651,23,-88,-39,35
264,-15138,-32,766,-4649,23,-87,-39,34
265,-15148,-12,768,-4649,23,-88,-40,33
266,-15136,-8,738,-4650,23,-88,-38,35
267,-15124,0,778,-4648,23,-88,-39,34
268,-15150,6,754,-4646,23,-87,-38,35
269,-15166,-14,768,-4646,23,-86,-38,34
270,-15148,-32,704,-4648,23,-85,-38,34
271,-15160,-56,772,-4647,23,-88,-38,37
272,-15138,-18,786,-4647,23,-88,-37,37
273,-15154,-30,792,-4652,23,-86,-37,36
274,-15158,-4,764,-4648,23,-87,-40,35
275,-15160,2,724,-4651,23,-88,-37,35
276,-15178,-20,784,-4648,23,-90,-38,35
277,-15164,-16,770,-4646,23,-89,-39,35
278,-15170,0,744,-4649,23,-89,-37,35
279,-15162,-16,746,-4653,23,-88,-36,35
280,-15138,-52,760,-4647,23,-88,-39,34
281,-15120,-18,742,-4650,23,-87,-38,35
282,-15178,-32,748,-4649,23,-87,-39,35
283,-15176,-34,752,-4649,23,-88,-38,36
284,-15180,-26,796,-4652,23,-87,-38,36
285,-15156,-8,730,-4650,23,-87,-38,36
286,-15142,-10,738,-4648,23,-86,-39,34
287,-15148,-38,716,-4651,23,-86,-41,34
288,-15132,-36,750,-4649,23,-88,-40,34
289,-15152,-52,772,-4653,23,-87,-39,34
290,-15158,-50,780,-4653,23,-86,-39,35
291,-15152,-20,786,-4651,23,-86,-39,35
292,-15176,-12,766,-4652,23,-87,-38,34
293,-15160,-6,772,-4649,23,-87,-38,35
294,-15152,2,756,-4648,23,-87,-40,34
295,-15170,-2,774,-4644,23,-87,-39,34
296,-15162,-4,796,-4644,23,-86,-38,34
297,-15144,10,758,-4647,23,-86,-38,35
298,-15164,-36,764,-4642,23,-87,-39,35
299,-15162,-22,720,-4650,23,-87,-39,35
300,-15138,-8,736,-4650,23,-89,-39,36
301,-15168,-40,742,-4652,23,-91,-39,35
302,-15168,-20,770,-4650,23,-89,-38,34
303,-15130,-2,762,-4646,23,-88,-37,36
304,-15126,34,772,-4646,23,-88,-39,34
305,-15146,24,758,-4649,23,-89,-38,34
306,-15132,4,762,-4655,23,-88,-38,32
307,-15148,-2,748,-4652,23,-85,-39,33
308,-15124,-18,748,-4654,23,-87,-38,34
309,-15120,-16,714,-4656,23,-87,-37,36
310,-15124,-2,728,-4653,23,-87,-38,37
311,-15150,-24,768,-4648,23,-88,-38,35
312,-15168,-26,784,-4643,23,-86,-40,33
313,-15170,2,802,-4646,23,-89,-37,34
314,-15150,0,780,-4644,23,-89,-37,35
315,-15158,-10,756,-4654,23,-88,-37,35
316,-15154,6,790,-4647,23,-90,-38,35
317,-15152,14,792,-4640,23,-88,-39,35
318,-15154,6,778,-4641,23,-88,-38,33
319,-15162,10,794,-4643,23,-85,-38,35
320,-15184,-30,728,-4644,23,-87,-40,33
321,-15162,-6,760,-4643,23,-86,-39,34
322,-15162,0,718,-4647,23,-88,-41,35
323,-15170,10,742,-4650,23,-88,-39,34
324,-15164,-26,742,-4648,23,-86,-37,35
325,-15152,-56,784,-4645,23,-86,-38,35
326,-15172,-32,744,-4643,23,-87,-40,33
327,-15180,-24,756,-4644,23,-87,-37,34
328,-15140,-22,758,-4648,23,-87,-37,34
329,-15164,-14,766,-4652,23,-87,-38,35
330,-15172,-6,748,-4656,23,-89,-38,33
331,-15154,-6,742,-4649,23,-86,-39,35
332,-15190,-26,782,-4655,23,-88,-38,34
333,-15152,-6,762,-4649,23,-87,-38,34
334,-15140,-18,718,-4646,23,-86,-38,34
335,-15160,14,768,-4653,23,-87,-40,34
336,-15160,-40,774,-4654,23,-88,-39,36
337,-15180,-18,798,-4650,23,-86,-39,36
338,-15184,-24,744,-4648,23,-87,-41,37
339,-15164,-14,732,-4647,23,-87,-40,34
340,-15158,-18,744,-4644,23,-86,-39,35
341,-15148,-6,744,-4649,23,-89,-38,36
342,-15162,6,748,-4648,23,-89,-37,35
343,-15140,26,790,-4650,23,-88,-38,34
344,-15140,-22,760,-4647,23,-89,-36,35
345,-15158,-28,736,-4646,23,-88,-39,35
346,-15146,0,706,-4651,23,-86,-39,35
347,-15138,-30,784,-4644,23,-87,-38,34
348,-15138,24,712,-4651,23,-88,-37,34
349,-15136,-20,732,-4648,23,-88,-39,35
350,-15172,-14,766,-4650,23,-89,-38,35
351,-15154,-32,748,-4647,23,-89,-37,36
352,-15162,-14,746,-4646,23,-87,-37,35
353,-15180,0,774,-4646,23,-88,-38,36
354,-15156,-10,752,-4644,23,-88,-38,37
355,-15164,2,714,-4651,23,-88,-39,36
356,-15178,8,738,-4652,23,-88,-38,36
357,-15176,14,748,-4650,23,-88,-38,36
358,-15156,-20,740,-4649,23,-89,-40,35
359,-15116,-24,730,-4645,23,-88,-40,34
360,-15136,-2,716,-4642,23,-89,-40,34
361,-15144,-20,718,-4647,23,-88,-41,34
362,-15154,-24,764,-4648,23,-87,-39,35
363,-15158,-36,730,-4649,23,-86,-41,35
364,-15166,-20,754,-4647,23,-87,-39,34
365,-15148,-14,764,-4644,23,-87,-38,34
366,-15144,-40,804,-4648,23,-88,-40,33
367,-15154,-14,796,-4650,23,-87,-39,33
368,-15162,14,750,-4650,23,-87,-40,33
369,-15166,-18,728,-4648,23,-88,-42,34
370,-15146,-10,712,-4643,23,-87,-39,35
371,-15148,-16,740,-4646,23,-88,-38,33
372,-15118,-26,744,-4646,23,-88,-39,34
373,-15132,-24,736,-4648,23,-89,-36,34
374,-15144,-24,738,-4646,23,-87,-38,34
375,-15124,-26,746,-4649,23,-87,-37,33
376,-15156,-14,774,-4647,23,-88,-38,35
377,-15168,0,794,-4651,23,-87,-37,36
378,-15190,14,798,-4645,23,-88,-38,35
379,-15186,10,750,-4639,23,-88,-40,34
380,-15186,-32,758,-4641,23,-87,-40,33
381,-15192,-16,684,-4642,23,-88,-38,34
382,-15140,2,702,-4654,23,-87,-40,36
383,-15130,-16,710,-4655,23,-88,-37,35
384,-15104,-12,714,-4652,23,-88,-39,34
385,-15116,-32,732,-4652,23,-87,-40,35
386,-15142,-30,722,-4643,23,-87,-40,34
387,-15126,6,770,-4646,23,-86,-39,35
388,-15142,-16,766,-4648,23,-87,-40,36
389,-15114,-42,762,-4650,23,-88,-38,36
390,-15172,-22,778,-4646,23,-88,-39,34
391,-15150,-20,748,-4646,23,-89,-40,33
392,-15158,-22,698,-4648,23,-89,-39,33
393,-15136,-6,746,-4649,23,-87,-37,32
394,-15170,-4,726,-4654,23,-87,-39,34
395,-15176,-4,712,-4653,23,-89,-39,34
396,-15164,6,778,-4654,23,-88,-36,32
397,-15176,-10,790,-4655,23,-87,-37,32
398,-15170,-12,774,-4650,23,-86,-38,34
399,-15166,-22,760,-4646,23,-85,-39,33
400,-15140,-38,780,-4644,23,-88,-38,35
401,-15142,-4,760,-4646,23,-87,-38,35
402,-15156,-14,776,-4641,23,-86,-39,35
403,-15168,-4,796,-4648,23,-87,-40,36
404,-15158,-42,754,-4647,23,-86,-38,35
405,-15138,-18,738,-4643,23,-89,-40,35
406,-15156,-34,764,-4645,23,-87,-39,34
407,-15150,-34,794,-4643,23,-86,-39,35
408,-15146,18,772,-4642,23,-88,-38,35
409,-15162,4,762,-4647,23,-87,-39,35
410,-15170,2,788,-4650,23,-87,-39,35
411,-15132,0,748,-4649,23,-87,-38,34
412,-15146,4,678,-4645,23,-88,-39,35
413,-15154,6,756,-4647,23,-87,-39,33
414,-15130,-42,746,-4644,23,-87,-38,33
415,-15168,2,768,-4645,23,-90,-40,34
416,-15138,-22,762,-4644,23,-88,-38,35
417,-15150,-28,730,-4641,23,-88,-41,35
418,-15128,-30,766,-4646,23,-88,-40,36
419,-15136,-18,792,-4650,23,-88,-38,34
420,-15174,-10,722,-4652,23,-87,-38,35
421,-15144,6,700,-4647,23,-86,-38,35
422,-15126,4,728,-4645,23,-87,-39,34
423,-15150,-24,740,-4648,23,-87,-40,35
424,-15170,-4,742,-4648,23,-89,-39,35
425,-15184,-24,790,-4645,23,-87,-39,33
426,-15148,-16,768,-4644,23,-88,-38,35
427,-15160,12,720,-4650,23,-88,-39,36
428,-15160,-10,746,-4652,23,-87,-41,35
429,-15136,16,728,-4652,23,-87,-40,37
430,-15154,-6,680,-4643,23,-87,-40,34
431,-15142,0,724,-4650,23,-88,-41,35
432,-15150,-30,756,-4647,23,-88,-39,34
433,-15150,-20,788,-4649,23,-88,-38,35
434,-15158,0,768,-4650,23,-87,-39,35
435,-15174,-30,780,-4648,23,-87,-38,35
436,-15172,-12,814,-4643,23,-86,-38,34
437,-15142,-12,754,-4646,23,-86,-37,34
438,-15158,-34,748,-4645,23,-86,-39,35
439,-15130,-6,770,-4647,23,-89,-38,35
440,-15154,-8,776,-4645,23,-87,-40,34
441,-15124,8,760,-4643,23,-88,-37,35
442,-15126,2,716,-4648,23,-86,-40,34
443,-15148,-10,744,-4649,23,-86,-39,35
444,-15134,2,730,-4645,23,-85,-37,35
445,-15194,-18,728,-4643,23,-86,-40,35
446,-15202,-20,732,-4645,23,-87,-40,34
447,-15164,-12,758,-4646,23,-89,-39,34
448,-15146,0,768,-4646,23,-88,-39,35
449,-15164,-4,726,-4641,23,-88,-38,36
450,-15150,-20,714,-4642,23,-87,-39,36
451,-15164,-14,762,-4643,23,-87,-37,35
452,-15196,-14,734,-4646,23,-87,-38,35
453,-15168,-12,774,-4647,23,-88,-39,33
454,-15166,6,760,-4643,23,-87,-39,35
455,-15186,4,784,-4642,23,-88,-39,35
456,-15158,24,812,-4648,23,-86,-37,35
457,-15166,30,756,-4648,23,-87,-40,35
458,-15152,-6,764,-4646,23,-88,-40,33
459,-15166,-30,760,-4649,23,-86,-38,33
460,-15164,2,782,-4644,23,-88,-39,32
461,-15188,-20,744,-4649,23,-88,-39,32
462,-15172,-10,780,-4654,23,-89,-39,33
463,-15158,0,800,-4649,23,-88,-39,34
464,-15156,-16,774,-4650,23,-87,-38,36
465,-15154,-34,708,-4647,23,-89,-39,35
466,-15186,-16,752,-4642,23,-88,-39,34
467,-15132,-24,748,-4644,23,-88,-40,35
468,-15142,-18,752,-4645,23,-88,-39,35
469,-15148,-46,766,-4647,23,-88,-39,33
470,-15146,-34,732,-4645,23,-86,-37,35
471,-15164,-46,732,-4645,23,-86,-38,34
472,-15174,-22,712,-4645,23,-90,-38,33
473,-15166,-32,728,-4647,23,-89,-38,35
474,-15162,2,760,-4648,23,-88,-38,35
475,-15162,-16,774,-4650,23,-88,-38,36
476,-15152,-18,790,-4651,23,-87,-39,35
477,-15154,-22,794,-4651,23,-88,-40,35
478,-15164,12,748,-4646,23,-90,-42,36
479,-15146,4,752,-4649,23,-88,-40,35
480,-15142,4,726,-4653,23,-88,-40,35
481,-15156,-32,758,-4651,23,-87,-38,35
482,-15104,10,730,-4650,23,-88,-39,34
483,-15110,-8,736,-4648,23,-88,-37,37
484,-15116,16,758,-4649,23,-88,-37,36
485,-15164,6,742,-4649,23,-88,-38,34
486,-15160,-20,742,-4650,23,-89,-38,35
487,-15152,-14,788,-4642,23,-87,-38,33
488,-15124,-24,824,-4646,23,-89,-39,34
489,-15140,-22,788,-4647,23,-87,-38,35
490,-15158,-16,768,-4646,23,-87,-39,34
491,-15120,-6,724,-4644,23,-88,-39,35
492,-15126,0,740,-4647,23,-86,-39,34
493,-15138,-32,752,-4648,23,-87,-38,35
494,-15166,-22,744,-4648,23,-88,-41,34
495,-15174,-6,736,-4643,23,-87,-38,35
496,-15182,8,734,-4649,23,-87,-37,35
497,-15178,-18,776,-4645,23,-85,-38,35
498,-15202,-20,764,-4643,23,-86,-39,34
499,-15178,-20,762,-4643,23,-87,-37,34
500,-15172,6,746,-4642,23,-87,-38,34
501,-15156,2,716,-4649,23,-88,-37,34
502,-15158,-4,720,-4647,23,-88,-39,35
503,-15158,-32,762,-4641,23,-86,-39,36
504,-15144,-12,796,-4639,23,-89,-41,34
505,-15150,-24,788,-4645,23,-89,-40,34
506,-15168,-4,746,-4646,23,-89,-39,35
507,-15158,-44,720,-4649,23,-87,-39,34
508,-15146,-32,764,-4640,23,-87,-38,35
509,-15176,-34,762,-4641,23,-86,-40,34
510,-15168,-30,766,-4644,23,-87,-37,34
511,-15166,-20,756,-4645,23,-85,-38,35
512,-15132,-6,720,-4647,23,-85,-38,33
513,-15124,-14,724,-4648,23,-87,-37,35
514,-15158,-28,740,-4644,23,-87,-37,36
515,-15200,-28,766,-4646,23,-86,-39,35
516,-15160,-6,760,-4639,23,-87,-39,35
517,-15160,-28,806,-4644,23,-86,-40,34
518,-15142,-22,802,-4646,23,-88,-41,34
519,-15134,-38,696,-4644,23,-89,-42,36
520,-15156,-32,726,-4646,23,-88,-39,35
521,-15150,2,766,-4647,23,-88,-40,33
522,-15136,-28,784,-4645,23,-88,-38,33
523,-15160,-10,802,-4648,23,-89,-38,33
524,-15168,-34,768,-4645,23,-89,-39,35
525,-15146,-4,764,-4643,23,-88,-39,34
526,-15170,12,790,-4647,23,-88,-38,35
527,-15186,40,778,-4643,23,-89,-38,34
528,-15160,-22,786,-4642,23,-88,-39,34
529,-15164,-8,760,-4636,23,-89,-39,33
530,-15162,0,780,-4644,23,-89,-36,34
531,-15156,2,798,-4644,23,-88,-36,34
532,-15116,-26,730,-4643,23,-87,-37,34
533,-15128,-38,748,-4642,23,-88,-37,34
534,-15144,-28,700,-4641,23,-88,-37,34
535,-15132,-30,718,-4638,23,-89,-39,33
536,-15158,-24,736,-4647,23,-90,-39,34
537,-15142,-18,752,-4646,23,-89,-38,35
538,-15170,10,768,-4645,23,-90,-39,36
539,-15136,-8,764,-4644,23,-90,-40,36
540,-15144,6,756,-4642,23,-88,-39,33
541,-15150,-24,714,-4641,23,-88,-38,34
542,-15152,-16,750,-4642,23,-89,-36,35
543,-15156,-32,746,-4643,23,-87,-38,33
544,-15158,14,806,-4645,23,-87,-40,34
545,-15158,12,772,-4641,23,-88,-39,35
546,-15160,4,738,-4645,23,-87,-39,33
547,-15178,-18,728,-4647,23,-87,-39,36
548,-15180,-46,720,-4652,23,-87,-41,34
549,-15154,-30,696,-4648,23,-87,-41,35
550,-15128,-42,740,-4641,23,-87,-42,35
551,-15136,-22,780,-4649,23,-87,-39,35
552,-15156,4,758,-4649,23,-86,-39,34
553,-15176,-8,780,-4647,23,-88,-39,35
554,-15176,-18,750,-4643,23,-88,-37,35
555,-15160,-38,732,-4642,23,-88,-37,35
556,-15140,-24,752,-4644,23,-87,-37,33
557,-15142,-22,776,-4644,23,-88,-38,34
558,-15126,-32,772,-4642,23,-87,-38,36
559,-15112,-26,808,-4649,23,-88,-39,35
560,-15140,-34,804,-4648,23,-88,-40,35
561,-15132,-42,766,-4645,23,-88,-39,35
562,-15146,-44,780,-4640,23,-87,-39,34
563,-15174,-38,744,-4640,23,-88,-38,34
564,-15176,0,752,-4640,23,-89,-40,34
565,-15170,0,760,-4645,23,-87,-40,33
566,-15144,6,782,-4645,23,-87,-39,34
567,-15140,-20,782,-4650,23,-86,-39,34
568,-15156,14,732,-4645,23,-89,-39,34
569,-15168,0,742,-4647,23,-86,-38,33
570,-15142,-4,750,-4645,23,-87,-39,32
571,-15134,-8,790,-4645,23,-88,-35,33
572,-15156,-14,782,-4642,23,-88,-39,34
573,-15164,24,774,-4636,23,-88,-39,33
574,-15170,16,734,-4641,23,-87,-40,34
575,-15152,18,718,-4642,23,-87,-40,35
576,-15146,-22,710,-4646,23,-88,-41,34
577,-15154,-14,778,-4648,23,-87,-39,34
578,-15154,-34,752,-4647,23,-87,-39,35
579,-15142,-14,736,-4642,23,-88,-40,36
580,-15156,20,722,-4640,23,-88,-40,35
581,-15160,24,738,-4645,23,-88,-37,35
582,-15166,-6,776,-4643,23,-87,-40,34
583,-15166,-8,744,-4646,23,-86,-39,34
584,-15156,-18,738,-4644,23,-86,-40,35
585,-15164,-12,720,-4649,23,-86,-37,34
586,-15168,-28,732,-4646,23,-86,-39,35
587,-15142,-36,750,-4646,23,-86,-37,35
588,-15164,-34,734,-4641,23,-87,-39,35
589,-15158,-42,736,-4645,23,-87,-37,35
590,-15172,-10,732,-4648,23,-86,-38,35
591,-15156,-10,762,-4646,23,-87,-39,36
592,-15168,10,766,-4647,23,-86,-39,35
593,-15148,0,742,-4644,23,-88,-39,34
594,-15158,-28,728,-4639,23,-86,-37,34
595,-15170,-30,734,-4642,23,-86,-39,35
596,-15142,-36,768,-4640,23,-86,-38,34
597,-15140,-24,834,-4640,23,-87,-37,34
598,-15134,-34,792,-4639,23,-87,-39,33
599,-15154,16,724,-4644,23,-86,-38,34
600,-15148,-10,736,-4645,23,-86,-38,35
601,-15150,-16,738,-4646,23,-87,-39,34
602,-15144,-26,772,-4646,23,-89,-38,35
603,-15126,-28,744,-4646,23,-87,-38,35
604,-15166,-32,714,-4641,23,-88,-40,35
605,-15144,-14,814,-4640,23,-88,-40,34
606,-15156,2,772,-4641,23,-88,-39,35
607,-15152,-40,756,-4646,23,-87,-38,34
608,-15162,-16,724,-4644,23,-87,-38,35
609,-15152,18,760,-4646,23,-88,-38,34
610,-15136,-6,760,-4644,23,-88,-39,35
611,-15148,-32,756,-4638,23,-86,-38,36
612,-15122,-36,786,-4639,23,-88,-37,34
613,-15170,-54,750,-4644,23,-89,-38,34
614,-15148,-14,784,-4639,23,-87,-37,33
615,-15168,-2,790,-4642,23,-87,-37,34
616,-15174,0,746,-4636,23,-87,-39,34
617,-15178,-12,724,-4642,23,-86,-39,33
618,-15156,-42,792,-4640,23,-86,-38,34
619,-15170,-20,804,-4640,23,-87,-39,34
620,-15146,0,764,-4644,23,-85,-36,33
621,-15164,-12,776,-4644,23,-86,-37,34
622,-15166,8,744,-4648,23,-86,-37,36
623,-15160,-8,736,-4647,23,-88,-39,38
624,-15168,-30,740,-4642,23,-87,-38,35
625,-15146,-28,772,-4647,23,-87,-37,34
626,-15160,-28,768,-4646,23,-87,-38,33
627,-15158,12,750,-4641,23,-89,-37,35
628,-15140,28,726,-4647,23,-89,-37,34
629,-15120,2,740,-4642,23,-89,-38,34
630,-15130,-4,752,-4647,23,-87,-38,36
631,-15152,16,734,-4644,23,-87,-39,36
632,-15164,-24,730,-4645,23,-88,-39,34
633,-15138,-56,744,-4645,23,-89,-38,33
634,-15148,-62,736,-4647,23,-87,-38,33
635,-15158,-26,756,-4648,23,-87,-40,36
636,-15150,-38,752,-4645,23,-87,-39,36
637,-15154,-14,760,-4644,23,-87,-39,35
638,-15158,6,746,-4645,23,-89,-39,35
639,-15178,-26,780,-4646,23,-86,-39,35
640,-15170,-4,768,-4650,23,-88,-38,32
641,-15146,0,770,-4650,23,-88,-38,34
642,-15154,-10,748,-4646,23,-89,-38,34
643,-15138,-2,760,-4646,23,-88,-40,34
644,-15158,-28,738,-4646,23,-88,-39,36
645,-15170,-24,752,-4643,23,-87,-39,36
646,-15162,-12,762,-4647,23,-86,-38,34
647,-15158,-50,792,-4645,23,-88,-38,35
648,-15174,-30,720,-4644,23,-88,-38,34
649,-15170,-16,784,-4639,23,-89,-37,34
650,-15120,14,764,-4641,23,-88,-38,35
651,-15156,-6,764,-4639,23,-89,-39,37
652,-15148,-4,758,-4644,23,-87,-38,35
653,-15202,-4,786,-4644,23,-87,-38,35
654,-15166,0,748,-4640,23,-86,-40,35
655,-15158,-62,758,-4642,23,-86,-41,33
656,-15124,-40,836,-4641,23,-88,-38,33
657,-15140,-32,788,-4641,23,-90,-38,36
658,-15154,-30,768,-4641,23,-89,-39,36
659,-15160,-16,802,-4644,23,-90,-38,34
660,-15150,-26,794,-4646,23,-87,-38,34
661,-15146,-34,738,-4643,23,-85,-39,35
662,-15154,-46,778,-4638,23,-88,-39,36
663,-15166,-42,790,-4641,23,-87,-39,35
664,-15146,-10,766,-4648,23,-88,-41,33
665,-15136,-4,772,-4645,23,-87,-41,34
666,-15118,-18,730,-4645,23,-87,-39,34
667,-15146,-12,770,-4647,23,-87,-39,36
668,-15172,42,746,-4640,23,-88,-38,33
669,-15128,0,734,-4646,23,-88,-37,33
670,-15146,-30,728,-4647,23,-87,-40,33
671,-15142,-34,700,-4641,23,-88,-40,34
672,-15168,-16,744,-4650,23,-89,-39,35
673,-15144,-14,706,-4653,23,-88,-40,33
674,-15156,8,726,-4646,23,-88,-40,34
675,-15146,-8,742,-4646,23,-88,-37,35
676,-15152,-20,744,-4643,23,-87,-39,35
677,-15162,8,714,-4644,23,-88,-38,36
678,-15176,-2,728,-4643,23,-86,-39,35
679,-15170,-2,742,-4639,23,-86,-37,35
680,-15136,-24,772,-4637,23,-88,-38,35
681,-15162,-4,776,-4638,23,-88,-39,34
682,-15180,-20,760,-4644,23,-90,-40,35
683,-15180,-36,760,-4645,23,-89,-38,35
684,-15178,-24,740,-4642,23,-87,-39,34
685,-15196,-2,730,-4645,23,-87,-38,35
686,-15162,-6,736,-4641,23,-88,-39,33
687,-15196,-4,796,-4645,23,-89,-39,31
688,-15176,-2,792,-4647,23,-89,-40,34
689,-15148,-12,756,-4644,23,-88,-39,35
690,-15170,0,758,-4643,23,-87,-40,34
691,-15132,-26,784,-4645,23,-88,-39,34
692,-15162,-32,818,-4642,23,-87,-40,36
693,-15154,-22,786,-4640,23,-88,-39,35
694,-15136,10,778,-4645,23,-88,-39,34
695,-15152,30,724,-4644,23,-89,-37,35
696,-15160,16,744,-4642,23,-88,-40,36
697,-15180,0,730,-4643,23,-87,-41,37
698,-15176,-38,690,-4638,23,-86,-40,35
699,-15176,-12,692,-4646,23,-86,-39,35
700,-15172,-20,726,-4642,23,-88,-40,35
701,-15152,-2,748,-4645,23,-87,-38,34
702,-15152,8,758,-4643,23,-87,-39,35
703,-15176,-18,792,-4644,23,-89,-41,34
704,-15160,4,748,-4643,23,-87,-39,34
705,-15144,-12,730,-4641,23,-88,-39,35
706,-15138,-32,734,-4640,23,-87,-39,35
707,-15150,-28,746,-4649,23,-89,-40,36
708,-15190,-16,740,-4642,23,-88,-37,34
709,-15162,6,770,-4637,23,-89,-36,33
710,-15136,10,760,-4638,23,-88,-39,33
711,-15136,-4,750,-4643,23,-87,-38,34
712,-15136,18,718,-4641,23,-88,-39,35
713,-15146,-10,762,-4642,23,-87,-39,35
714,-15144,-24,746,-4642,23,-89,-37,35
715,-15140,-20,740,-4642,23,-88,-37,35
716,-15158,-8,766,-4646,23,-87,-36,35
717,-15170,-44,790,-4643,23,-87,-38,35
718,-15168,-14,748,-4648,23,-89,-39,34
719,-15162,-20,780,-4647,23,-87,-40,33
720,-15160,-8,730,-4642,23,-87,-39,33
721,-15144,-34,710,-4644,23,-85,-37,34
722,-15166,6,748,-4641,23,-86,-39,35
723,-15176,0,718,-4645,23,-86,-40,35
724,-15190,-12,708,-4647,23,-87,-39,35
725,-15182,-34,738,-4647,23,-88,-39,33
726,-15168,-36,744,-4646,23,-88,-38,35
727,-15156,-30,760,-4644,23,-88,-38,35
728,-15144,2,774,-4644,23,-86,-38,35
729,-15118,-6,786,-4640,23,-86,-38,34
730,-15112,0,754,-4644,23,-87,-40,36
731,-15116,-18,754,-4641,23,-87,-39,35
732,-15108,-14,732,-4640,23,-88,-40,35
733,-15128,-20,724,-4643,23,-87,-39,35
734,-15134,-10,708,-4642,23,-87,-37,36
735,-15194,-10,768,-4643,23,-88,-40,35
736,-15160,10,786,-4637,23,-88,-40,36
737,-15172,22,760,-4643,23,-89,-38,36
738,-15160,0,746,-4646,23,-88,-39,35
739,-15178,-4,738,-4648,23,-88,-37,35
740,-15150,-4,800,-4650,23,-89,-38,33
741,-15148,-12,726,-4647,23,-86,-38,35
742,-15146,-2,764,-4642,23,-87,-40,33
743,-15162,0,718,-4644,23,-88,-38,33
744,-15156,-8,770,-4639,23,-88,-38,33
745,-15170,6,764,-4638,23,-88,-39,34
746,-15142,-10,758,-4637,23,-87,-39,34
747,-15150,20,730,-4644,23,-87,-39,35
748,-15140,-4,772,-4646,23,-88,-38,35
749,-15134,-8,762,-4643,23,-88,-38,35
750,-15136,24,780,-4646,23,-86,-37,35
751,-15144,22,748,-4644,23,-87,-37,36
752,-15146,-14,736,-4641,23,-87,-37,35
753,-15160,12,752,-4641,23,-89,-38,34
754,-15128,12,770,-4637,23,-89,-38,35
755,-15150,30,772,-4642,23,-89,-39,34
756,-15152,22,736,-4641,23,-88,-38,34
757,-15128,12,764,-4642,23,-88,-38,36
758,-15192,0,734,-4647,23,-88,-38,33
759,-15182,-48,732,-4641,23,-88,-39,33
760,-15180,0,746,-4648,23,-88,-38,32
761,-15150,-26,788,-4645,23,-89,-40,35
762,-15166,-2,758,-4641,23,-87,-38,33
763,-15142,-24,748,-4645,23,-87,-39,35
764,-15156,6,744,-4644,23,-87,-39,35
765,-15156,-6,752,-4638,23,-86,-37,35
766,-15166,-4,748,-4641,23,-88,-39,34
767,-15168,-24,730,-4636,23,-88,-38,35
768,-15158,-22,774,-4640,23,-87,-39,34
769,-15132,-30,774,-4643,23,-88,-39,35
770,-15170,-22,738,-4646,23,-87,-38,35
771,-15130,8,760,-4643,23,-88,-39,34
772,-15152,8,780,-4637,23,-88,-39,34
773,-15156,-24,758,-4641,23,-88,-38,35
774,-15168,-12,738,-4642,23,-88,-37,34
775,-15178,4,770,-4643,23,-89,-39,35
776,-15144,-8,742,-4640,23,-88,-41,33
777,-15138,-4,770,-4642,23,-86,-39,34
778,-15120,-38,768,-4639,23,-90,-37,34
779,-15138,0,772,-4641,23,-87,-37,32
780,-15146,-22,788,-4644,23,-89,-37,35
781,-15152,0,778,-4643,23,-88,-39,35
782,-15152,-26,738,-4650,23,-87,-39,35
783,-15132,-22,786,-4643,23,-88,-39,33
784,-15164,-2,760,-4642,23,-87,-39,34
785,-15174,-36,758,-4640,23,-87,-39,33
786,-15164,-26,742,-4640,23,-87,-39,35
787,-15196,-36,752,-4639,23,-89,-40,36
788,-15158,-2,754,-4646,23,-87,-39,35
789,-15150,-18,808,-4644,23,-87,-40,35
790,-15164,-20,774,-4643,23,-89,-39,34
791,-15156,-14,748,-4646,23,-88,-39,35
792,-15180,0,772,-4637,23,-87,-38,35
793,-15162,-20,762,-4643,23,-86,-39,35
794,-15134,-18,762,-4642,23,-86,-38,35
795,-15182,16,762,-4641,23,-87,-36,35
796,-15178,-28,816,-4641,23,-88,-36,35
797,-15168,18,760,-4642,23,-88,-37,35
798,-15190,12,774,-4649,23,-89,-38,35
799,-15166,-34,722,-4650,23,-87,-38,35
800,-15178,8,714,-4646,23,-87,-38,34
801,-15198,-22,760,-4643,23,-88,-40,33
802,-15150,-10,734,-4647,23,-87,-38,35
803,-15186,-8,750,-4644,23,-87,-38,35
804,-15166,-30,794,-4647,23,-89,-39,35
805,-15158,-32,764,-4645,23,-88,-38,35
806,-15140,-20,720,-4649,23,-89,-40,33
807,-15148,-22,710,-4642,23,-88,-38,34
808,-15174,-24,724,-4641,23,-88,-37,36
809,-15126,-16,740,-4644,23,-86,-38,35
810,-15142,-50,748,-4640,23,-88,-37,34
811,-15118,-34,766,-4638,23,-88,-37,34
812,-15136,-18,762,-4642,23,-89,-40,35
813,-15134,4,766,-4640,23,-88,-40,33
814,-15102,-28,774,-4641,23,-87,-40,34
815,-15156,-22,780,-4643,23,-89,-39,34
816,-15142,-2,794,-4639,23,-88,-40,33
817,-15180,-2,778,-4642,23,-87,-38,33
818,-15160,2,798,-4644,23,-88,-39,33
819,-15180,-8,784,-4642,23,-89,-38,34
820,-15158,-30,746,-4645,23,-87,-39,33
821,-15166,-46,736,-4639,23,-87,-38,35
822,-15148,-2,674,-4641,23,-88,-38,34
823,-15138,8,730,-4646,23,-87,-39,36
824,-15158,4,756,-4644,23,-86,-40,35
825,-15162,-8,754,-4644,23,-87,-38,33
826,-15208,-28,742,-4643,23,-88,-37,34
827,-15160,-36,762,-4641,23,-89,-39,34
828,-15160,-12,782,-4639,23,-89,-38,35
829,-15180,-8,742,-4641,23,-89,-38,34
830,-15162,4,764,-4640,23,-88,-40,35
831,-15160,-8,760,-4635,23,-88,-38,35
832,-15142,-4,738,-4636,23,-90,-37,35
833,-15136,-16,778,-4640,23,-88,-39,35
834,-15138,0,752,-4643,23,-88,-38,35
835,-15144,-10,730,-4645,23,-88,-37,35
836,-15158,22,692,-4641,23,-86,-38,35
837,-15150,-10,716,-4644,23,-88,-40,34
838,-15168,8,750,-4642,23,-88,-39,33
839,-15170,-8,700,-4639,23,-88,-39,35
840,-15164,-26,744,-4641,23,-87,-39,34
841,-15152,-38,744,-4641,23,-87,-38,34
842,-15170,-42,756,-4641,23,-86,-39,35
843,-15156,-42,772,-4644,23,-87,-40,35
844,-15136,-4,824,-4642,23,-88,-39,34
845,-15144,-26,774,-4643,23,-88,-40,33
846,-15146,-4,732,-4649,23,-88,-40,35
847,-15168,-4,710,-4647,23,-88,-37,35
848,-15166,6,756,-4648,23,-87,-39,34
849,-15160,26,746,-4643,23,-87,-40,35
850,-15168,-24,748,-4642,23,-87,-38,34
851,-15186,-34,738,-4644,23,-87,-39,35
852,-15176,-16,720,-4641,23,-88,-39,35
853,-15164,-26,776,-4642,23,-88,-39,35
854,-15170,12,746,-4640,23,-86,-39,34
855,-15162,22,730,-4642,23,-86,-39,34
856,-15152,-22,754,-4640,23,-89,-39,35
857,-15164,-16,782,-4642,23,-90,-39,35
858,-15162,2,718,-4641,23,-89,-38,34
859,-15164,4,720,-4645,23,-89,-38,34
860,-15162,4,704,-4638,23,-89,-39,34
861,-15170,-2,748,-4639,23,-88,-38,35
862,-15162,-18,752,-4646,23,-88,-39,34
863,-15156,-8,760,-4641,23,-87,-40,35
864,-15134,0,768,-4645,23,-88,-39,35
865,-15138,-10,724,-4647,23,-88,-42,36
866,-15144,-20,798,-4649,23,-89,-39,34
867,-15126,-6,738,-4641,23,-88,-38,36
868,-15130,-8,788,-4642,23,-87,-37,34
869,-15126,8,768,-4643,23,-87,-38,36
870,-15184,26,792,-4648,23,-86,-39,36
871,-15170,-6,776,-4648,23,-87,-39,35
872,-15136,-24,814,-4645,23,-87,-39,34
873,-15132,6,796,-4645,23,-88,-39,34
874,-15154,14,766,-4645,23,-86,-37,33
875,-15154,-14,694,-4644,23,-87,-37,34
876,-15168,-30,718,-4641,23,-87,-38,34
877,-15146,-6,746,-4639,23,-88,-39,36
878,-15164,-2,740,-4638,23,-86,-39,36
879,-15144,-28,742,-4645,23,-88,-40,35
880,-15138,-24,742,-4649,23,-88,-40,33
881,-15160,12,748,-4648,23,-87,-40,34
882,-15178,-16,776,-4649,23,-89,-40,35
883,-15178,-16,746,-4643,23,-88,-37,35
884,-15166,-10,768,-4637,23,-86,-38,34
885,-15150,-18,750,-4639,23,-87,-37,34
886,-15132,-20,762,-4645,23,-88,-39,33
887,-15172,-18,762,-4646,23,-87,-39,33
888,-15186,-8,770,-4645,23,-88,-38,33
889,-15196,-8,796,-4643,23,-87,-39,34
890,-15166,-24,746,-4646,23,-87,-40,34
891,-15160,-30,722,-4647,23,-87,-41,35
892,-15156,-14,734,-4648,23,-88,-40,35
893,-15140,-10,724,-4644,23,-88,-41,35
894,-15148,-14,740,-4639,23,-88,-40,34
895,-15158,4,710,-4640,23,-88,-39,34
896,-15164,-24,724,-4645,23,-87,-39,35
897,-15150,-12,770,-4641,23,-86,-40,35
898,-15148,-36,758,-4643,23,-86,-39,35
899,-15176,-50,770,-4645,23,-88,-38,34
900,-15172,-46,750,-4642,23,-88,-39,32
901,-15172,-8,756,-4637,23,-87,-38,33
902,-15166,-46,734,-4645,23,-87,-38,34
903,-15146,6,754,-4647,23,-87,-40,35
904,-15124,8,718,-4644,23,-87,-39,35
905,-15170,-16,722,-4638,23,-85,-38,34
906,-15180,-20,746,-4640,23,-87,-38,35
907,-15176,-30,740,-4649,23,-87,-41,35
908,-15176,-22,792,-4645,23,-88,-39,35
909,-15178,-6,750,-4641,23,-88,-40,35
910,-15178,-14,738,-4643,23,-87,-40,36
911,-15138,-10,756,-4644,23,-88,-39,34
912,-15134,10,756,-4640,23,-88,-37,34
913,-15124,30,742,-4638,23,-89,-39,36
914,-15142,-18,756,-4641,23,-88,-37,35
915,-15172,6,764,-4648,23,-88,-39,34
916,-15154,-14,720,-4645,23,-86,-38,35
917,-15148,-14,744,-4641,23,-88,-38,35
918,-15158,-14,772,-4640,23,-87,-39,36
919,-15136,-34,766,-4638,23,-87,-38,36
920,-15142,-8,738,-4641,23,-87,-40,37
921,-15144,-44,746,-4643,23,-87,-39,38
922,-15140,2,758,-4642,23,-87,-39,36
923,-15170,-12,772,-4644,23,-89,-36,35
924,-15180,-6,764,-4639,23,-87,-38,35
925,-15174,-10,754,-4631,23,-87,-40,33
926,-15136,-4,744,-4637,23,-87,-43,34
927,-15152,0,802,-4636,23,-87,-41,34
928,-15150,0,726,-4636,23,-87,-40,34
929,-15158,-6,746,-4640,23,-86,-38,35
930,-15170,2,758,-4646,23,-86,-37,34
931,-15146,-10,766,-4650,23,-88,-38,35
932,-15148,-16,770,-4649,23,-87,-38,35
933,-15122,2,776,-4648,23,-87,-37,35
934,-15122,0,776,-4641,23,-87,-39,35
935,-15146,-6,794,-4648,23,-89,-39,34
936,-15158,-6,752,-4645,23,-87,-36,35
937,-15146,-2,776,-4640,23,-86,-37,36
938,-15158,-8,764,-4639,23,-86,-39,35
939,-15174,-14,774,-4638,23,-87,-40,34
940,-15134,-12,754,-4641,23,-87,-39,34
941,-15138,-10,744,-4642,23,-86,-38,34
942,-15146,-14,834,-4642,23,-87,-38,35
943,-15158,8,762,-4642,23,-87,-38,35
944,-15144,32,740,-4641,23,-88,-39,35
945,-15128,12,786,-4645,23,-88,-39,34
946,-15136,6,754,-4640,23,-87,-38,34
947,-15154,-2,800,-4640,23,-88,-37,32
948,-15142,-4,786,-4646,23,-88,-39,33
949,-15140,8,766,-4647,23,-88,-39,34
950,-15168,-4,768,-4640,23,-87,-38,35
951,-15160,-4,754,-4640,23,-88,-39,34
952,-15190,-8,754,-4636,23,-87,-39,35
953,-15176,-6,716,-4641,23,-87,-38,34
954,-15162,-14,712,-4636,23,-87,-38,34
955,-15140,-6,724,-4644,23,-87,-37,36
956,-15150,-30,770,-4641,23,-87,-38,34
957,-15158,-16,732,-4640,23,-88,-39,34
958,-15148,-16,764,-4646,23,-87,-40,35
959,-15152,10,758,-4640,23,-88,-40,34
960,-15162,-10,758,-4639,23,-87,-41,35
961,-15144,-38,802,-4642,23,-86,-38,35
962,-15154,-14,796,-4645,23,-88,-40,35
963,-15140,-12,830,-4640,23,-87,-38,34
964,-15146,10,792,-4642,23,-86,-38,36
965,-15170,-2,758,-4641,23,-89,-38,37
966,-15160,-30,770,-4643,23,-89,-38,36
967,-15156,-40,734,-4649,23,-88,-38,35
968,-15142,-26,744,-4645,23,-88,-37,34
969,-15128,-14,760,-4646,23,-89,-36,34
970,-15134,34,764,-4644,23,-86,-39,36
971,-15150,-16,738,-4640,23,-86,-38,36
972,-15168,-12,750,-4641,23,-87,-38,34
973,-15176,-14,748,-4641,23,-88,-39,33
974,-15144,-26,714,-4641,23,-89,-40,34
975,-15168,-26,750,-4643,23,-87,-39,35
976,-15154,-26,736,-4643,23,-86,-40,35
977,-15148,-4,764,-4638,23,-86,-40,35
978,-15190,-2,734,-4641,23,-89,-39,36
979,-15192,-12,786,-4643,23,-88,-39,35
980,-15186,8,800,-4640,23,-86,-39,35
981,-15142,-20,766,-4645,23,-87,-39,36
982,-15140,-56,768,-4642,23,-88,-39,35
983,-15160,-40,746,-4640,23,-88,-40,33
984,-15162,18,732,-4645,23,-89,-40,34
985,-15162,18,732,-4643,23,-88,-38,34
986,-15150,16,724,-4642,23,-88,-39,36
987,-15134,2,726,-4648,23,-87,-37,34
988,-15148,-2,736,-4648,23,-88,-40,35
989,-15178,0,764,-4641,23,-87,-38,34
990,-15194,26,782,-4643,23,-87,-36,36
991,-15168,-14,770,-4644,23,-88,-39,35
992,-15186,-18,762,-4642,23,-90,-38,34
993,-15162,-36,736,-4646,23,-89,-40,34
994,-15148,14,752,-4643,23,-89,-37,35
995,-15152,24,776,-4641,23,-88,-36,35
996,-15150,6,742,-4648,23,-88,-39,35
997,-15164,-34,778,-4646,23,-87,-39,35
998,-15152,-30,792,-4648,23,-86,-40,35
