,acc_X,acc_Y,acc_Z,temp,tempC,gyr_X,gyr_Y,gyr_Z
0,-1894,-2,92,-4738,23,-87,-38,34
1,-1894,-2,92,-4738,23,-87,-38,34
2,-1894,-2,92,-4737,23,-87,-38,34
3,-1894,-4,93,-4736,23,-87,-39,34
4,-1894,-4,91,-4735,23,-87,-38,34
5,-1894,-3,91,-4735,23,-87,-38,34
6,-1895,-2,93,-4734,23,-87,-38,34
7,-1895,-3,93,-4735,23,-86,-38,34
8,-1894,-2,93,-4736,23,-87,-38,34
9,-1895,-2,92,-4735,23,-87,-38,34
10,-1895,-2,90,-4735,23,-87,-38,34
11,-1895,-3,90,-4735,23,-87,-38,34
12,-1895,-4,93,-4734,23,-87,-38,34
13,-1896,-4,96,-4734,23,-87,-39,35
14,-1895,-3,97,-4733,23,-87,-38,35
15,-1894,-3,97,-4732,23,-87,-39,34
16,-1894,-4,97,-4732,23,-87,-39,34
17,-1893,-3,96,-4730,23,-87,-39,35
18,-1893,-3,94,-4731,23,-87,-40,34
19,-1892,-4,94,-4730,23,-87,-39,34
20,-1892,-3,93,-4731,23,-87,-39,34
21,-1891,-2,93,-4729,23,-87,-39,34
22,-1892,-2,93,-4727,23,-87,-39,34
23,-1892,-2,93,-4728,23,-87,-39,34
24,-1892,-2,93,-4727,23,-87,-39,34
25,-1893,-2,94,-4727,23,-87,-39,34
26,-1892,-1,95,-4728,23,-87,-38,34
27,-1894,-2,96,-4726,23,-88,-39,34
28,-1894,-1,95,-4727,23,-88,-38,34
29,-1894,-1,93,-4728,23,-87,-38,34
30,-1895,-2,92,-4726,23,-88,-38,34
31,-1895,-2,93,-4726,23,-87,-38,34
32,-1895,-3,94,-4726,23,-87,-38,34
33,-1895,-2,94,-4726,23,-87,-38,34
34,-1894,-2,94,-4726,23,-87,-37,34
35,-1894,-2,95,-4726,23,-87,-37,35
36,-1893,-3,95,-4724,23,-87,-37,34
37,-1893,-2,94,-4722,23,-87,-37,34
38,-1894,-3,94,-4722,23,-87,-37,35
39,-1895,-2,94,-4722,23,-87,-38,34
40,-1894,-1,92,-4721,23,-87,-38,34
41,-1894,-1,93,-4722,23,-87,-38,34
42,-1894,0,92,-4721,23,-87,-38,34
43,-1896,-1,93,-4721,23,-87,-38,34
44,-1895,-1,92,-4722,23,-87,-38,34
45,-1896,-1,94,-4724,23,-86,-39,34
46,-1896,-2,95,-4723,23,-87,-40,34
47,-1896,-3,95,-4722,23,-86,-39,34
48,-1896,-3,94,-4721,23,-86,-40,33
49,-1896,-1,94,-4721,23,-86,-39,34
50,-1896,-2,94,-4721,23,-86,-38,35
51,-1897,0,95,-4721,23,-87,-39,34
52,-1897,0,94,-4721,23,-87,-39,34
53,-1897,-1,95,-4722,23,-86,-39,35
54,-1897,-2,95,-4721,23,-86,-39,35
55,-1896,-1,94,-4719,23,-87,-38,35
56,-1897,-1,94,-4719,23,-87,-39,35
57,-1896,0,93,-4718,23,-87,-39,34
58,-1895,-1,94,-4717,23,-86,-39,34
59,-1895,0,94,-4717,23,-87,-39,35
60,-1895,-1,93,-4718,23,-87,-39,35
61,-1895,-2,93,-4717,23,-87,-39,35
62,-1896,-3,92,-4715,23,-87,-39,35
63,-1897,-2,93,-4715,23,-87,-39,35
64,-1897,-1,95,-4715,23,-87,-39,35
65,-1896,-2,93,-4715,23,-87,-38,35
66,-1896,-1,93,-4715,23,-86,-38,35
67,-1895,-1,94,-4714,23,-86,-38,35
68,-1895,-1,94,-4716,23,-87,-38,35
69,-1894,-1,94,-4717,23,-87,-38,35
70,-1895,-1,94,-4718,23,-87,-38,34
71,-1895,-2,94,-4716,23,-87,-38,34
72,-1896,-1,94,-4716,23,-88,-38,34
73,-1896,-1,95,-4715,23,-88,-38,34
74,-1897,-1,96,-4715,23,-88,-38,34
75,-1897,0,96,-4715,23,-88,-39,35
76,-1897,1,94,-4715,23,-88,-39,34
77,-1897,0,93,-4715,23,-88,-38,34
78,-1897,-2,94,-4716,23,-87,-39,34
79,-1897,-3,95,-4716,23,-88,-38,35
80,-1897,-3,95,-4715,23,-87,-38,35
81,-1897,-2,95,-4715,23,-88,-38,35
82,-1896,-2,96,-4713,23,-88,-38,34
83,-1896,-2,96,-4714,23,-87,-39,34
84,-1896,-3,97,-4714,23,-87,-39,34
85,-1897,-3,96,-4712,23,-87,-39,34
86,-1896,-3,96,-4712,23,-87,-39,34
87,-1895,-2,96,-4711,23,-87,-39,34
88,-1895,-4,96,-4710,23,-87,-39,33
89,-1895,-3,96,-4710,23,-88,-39,34
90,-1896,-4,96,-4710,23,-88,-39,34
91,-1895,-3,96,-4711,23,-88,-39,34
92,-1895,-2,96,-4710,23,-87,-38,34
93,-1896,-1,95,-4709,23,-88,-39,34
94,-1895,0,94,-4708,23,-87,-39,34
95,-1895,0,94,-4709,23,-87,-39,35
96,-1894,-1,94,-4709,23,-87,-39,35
97,-1894,0,93,-4709,23,-87,-39,35
98,-1894,0,93,-4709,23,-87,-39,35
99,-1894,-1,94,-4710,23,-87,-39,35
100,-1895,-1,91,-4709,23,-87,-39,34
101,-1894,-3,90,-4708,23,-87,-39,34
102,-1895,-2,91,-4706,23,-87,-38,34
103,-1895,-3,92,-4706,23,-88,-39,34
104,-1896,-2,93,-4706,23,-88,-39,34
105,-1897,0,93,-4709,23,-88,-39,34
106,-1896,0,94,-4709,23,-87,-38,34
107,-1896,1,96,-4710,23,-87,-39,34
108,-1895,-1,94,-4710,23,-87,-39,34
109,-1895,0,95,-4709,23,-87,-39,34
110,-1896,-1,94,-4709,23,-87,-39,34
111,-1895,-1,94,-4707,23,-87,-39,34
112,-1895,-1,95,-4708,23,-87,-38,33
113,-1895,-1,95,-4707,23,-87,-38,33
114,-1894,-2,95,-4706,23,-87,-38,34
115,-1895,-2,95,-4706,23,-87,-38,34
116,-1896,-1,96,-4705,23,-86,-38,34
117,-1895,-1,95,-4706,23,-87,-38,34
118,-1895,0,94,-4704,23,-87,-38,35
119,-1894,0,93,-4702,23,-87,-38,35
120,-1895,0,94,-4701,23,-87,-38,35
121,-1895,0,95,-4702,23,-87,-38,35
122,-1895,-1,95,-4701,23,-87,-38,35
123,-1896,-1,94,-4700,23,-88,-38,35
124,-1896,-1,94,-4702,23,-87,-38,35
125,-1896,-1,94,-4703,23,-87,-38,35
126,-1896,0,92,-4702,23,-87,-38,35
127,-1895,-1,93,-4703,23,-87,-38,35
128,-1896,-1,94,-4703,23,-87,-37,35
129,-1896,-2,95,-4703,23,-87,-38,34
130,-1896,-1,96,-4703,23,-87,-38,34
131,-1896,-2,94,-4701,23,-87,-38,33
132,-1895,-2,95,-4702,23,-87,-38,33
133,-1895,-1,93,-4701,23,-87,-38,34
134,-1895,0,92,-4701,23,-87,-38,35
135,-1894,0,92,-4703,23,-87,-38,35
136,-1894,0,94,-4703,23,-87,-38,35
137,-1893,0,93,-4704,23,-88,-38,35
138,-1894,0,93,-4703,23,-88,-39,35
139,-1894,0,93,-4704,23,-88,-39,35
140,-1895,0,91,-4704,23,-87,-39,35
141,-1894,0,90,-4705,23,-87,-39,35
142,-1894,0,92,-4703,23,-87,-38,34
143,-1894,0,93,-4702,23,-87,-38,35
144,-1895,0,92,-4701,23,-87,-38,34
145,-1895,-1,91,-4702,23,-87,-38,34
146,-1894,-1,91,-4701,23,-87,-38,35
147,-1893,-1,94,-4702,23,-87,-39,35
148,-1893,-1,93,-4702,23,-87,-39,35
149,-1894,-2,94,-4701,23,-87,-39,34
150,-1894,-1,94,-4700,23,-87,-39,34
151,-1893,-2,94,-4701,23,-87,-39,34
152,-1893,-1,95,-4701,23,-87,-39,34
153,-1894,0,93,-4701,23,-87,-38,34
154,-1894,0,94,-4701,23,-87,-39,35
155,-1895,-1,93,-4702,23,-87,-38,35
156,-1893,-1,94,-4701,23,-87,-38,35
157,-1894,-2,94,-4701,23,-87,-38,34
158,-1895,-3,94,-4700,23,-87,-38,34
159,-1894,-1,93,-4700,23,-87,-39,35
160,-1894,-2,94,-4700,23,-87,-38,35
161,-1894,-3,94,-4699,23,-87,-39,35
162,-1895,-2,95,-4699,23,-88,-39,35
163,-1895,-3,96,-4699,23,-87,-39,34
164,-1896,-2,96,-4699,23,-87,-39,34
165,-1896,-1,96,-4697,23,-87,-39,34
166,-1895,0,95,-4697,23,-87,-39,34
167,-1895,1,96,-4695,23,-87,-39,34
168,-1895,0,96,-4696,23,-87,-38,34
169,-1895,-1,95,-4695,23,-87,-38,34
170,-1895,0,95,-4695,23,-87,-38,34
171,-1895,-1,94,-4696,23,-87,-38,35
172,-1896,-1,96,-4697,23,-87,-39,35
173,-1897,0,95,-4695,23,-86,-39,35
174,-1897,0,95,-4697,23,-86,-39,35
175,-1897,0,94,-4698,23,-86,-38,35
176,-1897,0,95,-4697,23,-86,-38,35
177,-1896,0,96,-4697,23,-87,-38,35
178,-1896,-1,95,-4698,23,-87,-38,35
179,-1895,-1,97,-4697,23,-87,-37,35
180,-1896,0,97,-4698,23,-87,-38,35
181,-1895,-2,97,-4696,23,-87,-37,35
182,-1894,-1,97,-4697,23,-87,-38,35
183,-1895,-2,96,-4697,23,-88,-38,35
184,-1895,-2,95,-4696,23,-87,-38,35
185,-1894,-3,93,-4695,23,-88,-38,36
186,-1894,-3,94,-4693,23,-88,-38,36
187,-1895,-4,94,-4693,23,-87,-39,36
188,-1894,-3,94,-4693,23,-87,-39,35
189,-1894,-3,93,-4694,23,-87,-39,36
190,-1894,-3,93,-4694,23,-87,-38,35
191,-1894,-2,93,-4695,23,-87,-39,35
192,-1895,-2,94,-4695,23,-87,-39,35
193,-1895,-2,93,-4695,23,-87,-39,35
194,-1894,-1,93,-4696,23,-88,-39,35
195,-1895,0,92,-4696,23,-88,-39,35
196,-1896,-1,92,-4697,23,-88,-39,35
197,-1896,-2,92,-4697,23,-88,-39,35
198,-1897,-1,93,-4697,23,-88,-38,35
199,-1898,-1,94,-4697,23,-87,-39,34
200,-1898,-2,94,-4697,23,-87,-38,34
201,-1898,-2,93,-4696,23,-88,-38,34
202,-1897,-2,93,-4694,23,-87,-38,34
203,-1896,-2,95,-4695,23,-87,-39,34
204,-1897,-2,96,-4694,23,-87,-39,34
205,-1898,-2,95,-4694,23,-88,-39,34
206,-1897,-2,96,-4694,23,-87,-39,34
207,-1897,-2,95,-4694,23,-88,-38,34
208,-1897,-3,95,-4694,23,-87,-39,35
209,-1896,-2,94,-4694,23,-87,-39,34
210,-1897,-2,95,-4694,23,-87,-39,34
211,-1896,-2,94,-4693,23,-87,-39,34
212,-1896,-3,95,-4694,23,-88,-39,35
213,-1895,-3,94,-4693,23,-88,-39,35
214,-1895,-3,96,-4692,23,-88,-38,35
215,-1895,-3,96,-4693,23,-89,-38,35
216,-1895,-3,95,-4693,23,-89,-39,35
217,-1894,-4,94,-4692,23,-88,-38,36
218,-1894,-3,94,-4692,23,-88,-38,36
219,-1893,-2,94,-4691,23,-88,-39,35
220,-1894,-2,93,-4690,23,-87,-39,35
221,-1894,-1,93,-4689,23,-87,-39,35
222,-1895,-2,95,-4691,23,-86,-39,35
223,-1894,0,97,-4690,23,-87,-39,35
224,-1895,-1,96,-4690,23,-87,-39,35
225,-1896,-1,95,-4690,23,-87,-38,35
226,-1894,-1,95,-4689,23,-87,-39,35
227,-1893,-1,94,-4691,23,-87,-39,34
228,-1893,0,93,-4690,23,-87,-39,34
229,-1894,-1,92,-4690,23,-87,-38,34
230,-1894,-1,94,-4689,23,-88,-38,35
231,-1895,-1,95,-4689,23,-88,-39,35
232,-1894,-1,94,-4689,23,-88,-39,35
233,-1895,-1,94,-4691,23,-88,-39,34
234,-1895,-1,96,-4690,23,-88,-38,34
235,-1896,-2,94,-4689,23,-88,-38,34
236,-1895,-1,95,-4688,23,-87,-38,34
237,-1896,-3,95,-4689,23,-87,-38,33
238,-1896,-2,93,-4688,23,-87,-38,33
239,-1895,-2,94,-4689,23,-88,-38,33
240,-1894,-2,94,-4688,23,-87,-39,33
241,-1894,-2,94,-4686,23,-88,-39,33
242,-1895,-3,93,-4686,23,-87,-39,33
243,-1894,-1,94,-4686,23,-87,-39,33
244,-1893,-2,94,-4688,23,-87,-38,33
245,-1894,-1,93,-4686,23,-87,-38,33
246,-1893,0,95,-4685,23,-87,-38,33
247,-1894,0,97,-4685,23,-87,-38,34
248,-1896,1,98,-4684,23,-86,-38,34
249,-1896,1,96,-4684,23,-87,-39,34
250,-1894,0,95,-4683,23,-87,-38,34
251,-1896,-1,94,-4684,23,-87,-38,34
252,-1895,-1,94,-4683,23,-87,-38,34
253,-1896,0,96,-4683,23,-88,-38,35
254,-1895,-2,94,-4684,23,-88,-39,35
255,-1895,-2,93,-4684,23,-87,-39,35
256,-1894,-3,93,-4684,23,-87,-39,35
257,-1893,-2,93,-4683,23,-87,-39,35
258,-1892,-1,92,-4684,23,-87,-38,35
259,-1892,-1,94,-4684,23,-87,-39,35
260,-1892,0,92,-4683,23,-87,-38,35
261,-1892,-1,93,-4684,23,-87,-39,35
262,-1893,-1,92,-4683,23,-87,-39,34
263,-1893,0,94,-4683,23,-87,-39,35
264,-1893,-1,92,-4683,23,-87,-39,34
265,-1894,-2,92,-4685,23,-87,-39,34
266,-1893,-4,90,-4684,23,-87,-38,34
267,-1894,-3,92,-4683,23,-87,-38,35
268,-1893,-3,92,-4684,23,-87,-38,35
269,-1895,-2,95,-4685,23,-88,-38,34
270,-1895,-1,94,-4682,23,-88,-38,35
271,-1895,-1,95,-4684,23,-88,-39,35
272,-1894,-2,95,-4685,23,-87,-38,35
273,-1895,-2,94,-4686,23,-87,-38,34
274,-1895,-1,93,-4685,23,-87,-38,35
275,-1894,-1,94,-4683,23,-87,-38,35
276,-1894,-1,92,-4684,23,-86,-38,35
277,-1894,-1,94,-4684,23,-87,-39,35
278,-1893,-2,94,-4684,23,-87,-39,34
279,-1892,-2,92,-4683,23,-87,-39,34
280,-1893,-1,92,-4682,23,-87,-39,34
281,-1895,-1,93,-4682,23,-87,-39,34
282,-1896,-1,92,-4683,23,-88,-39,34
283,-1896,-1,91,-4682,23,-88,-39,34
284,-1895,-2,90,-4683,23,-88,-38,34
285,-1895,-1,90,-4683,23,-88,-38,34
286,-1895,-1,92,-4683,23,-88,-39,34
287,-1896,-1,94,-4682,23,-87,-38,34
288,-1896,0,93,-4683,23,-88,-38,34
289,-1897,-1,93,-4683,23,-87,-38,34
290,-1897,-1,93,-4683,23,-88,-38,34
291,-1896,-2,95,-4682,23,-88,-38,34
292,-1896,-3,93,-4682,23,-88,-38,34
293,-1896,-3,93,-4680,23,-87,-38,34
294,-1896,-3,92,-4678,23,-87,-38,34
295,-1895,-3,93,-4678,23,-87,-38,34
296,-1895,-2,94,-4681,23,-87,-39,34
297,-1894,-2,92,-4681,23,-87,-38,34
298,-1895,-2,92,-4681,23,-87,-38,34
299,-1896,-2,92,-4681,23,-88,-38,34
300,-1896,-1,92,-4680,23,-87,-38,34
301,-1896,-3,93,-4679,23,-87,-38,34
302,-1896,-3,93,-4678,23,-87,-39,34
303,-1896,-3,93,-4678,23,-87,-39,34
304,-1896,-2,91,-4677,23,-87,-38,35
305,-1896,-2,93,-4678,23,-87,-38,35
306,-1894,-3,94,-4679,23,-86,-38,35
307,-1894,-3,92,-4677,23,-87,-38,35
308,-1894,-4,92,-4677,23,-88,-39,36
309,-1894,-3,93,-4676,23,-88,-39,35
310,-1895,-4,92,-4677,23,-87,-38,35
311,-1895,-2,91,-4676,23,-87,-38,35
312,-1895,-2,91,-4675,23,-87,-38,35
313,-1896,-2,92,-4677,23,-88,-38,35
314,-1896,-1,93,-4678,23,-87,-38,35
315,-1897,-3,93,-4679,23,-87,-38,35
316,-1896,-2,93,-4678,23,-87,-38,35
317,-1895,-3,92,-4678,23,-87,-38,35
318,-1895,-2,93,-4678,23,-87,-39,35
319,-1894,-2,94,-4677,23,-87,-39,35
320,-1894,-3,95,-4676,23,-87,-38,35
321,-1893,-3,94,-4676,23,-87,-38,35
322,-1893,-4,94,-4677,23,-87,-39,35
323,-1894,-4,94,-4677,23,-87,-39,35
324,-1895,-3,94,-4675,23,-87,-39,35
325,-1895,-3,95,-4674,23,-87,-39,35
326,-1896,-2,95,-4674,23,-86,-38,34
327,-1896,-2,93,-4674,23,-87,-38,35
328,-1896,-1,94,-4675,23,-87,-38,34
329,-1896,-2,92,-4675,23,-87,-39,34
330,-1896,-1,93,-4675,23,-87,-39,34
331,-1896,-2,95,-4675,23,-88,-39,34
332,-1896,-2,95,-4674,23,-87,-38,34
333,-1896,-1,95,-4674,23,-87,-38,35
334,-1897,-1,93,-4675,23,-87,-39,34
335,-1896,-2,91,-4675,23,-87,-38,34
336,-1896,-2,92,-4676,23,-87,-38,34
337,-1895,-2,93,-4676,23,-87,-38,34
338,-1895,-3,92,-4675,23,-87,-38,34
339,-1895,-2,92,-4674,23,-88,-38,34
340,-1895,-1,93,-4675,23,-87,-39,34
341,-1895,0,94,-4675,23,-87,-39,35
342,-1896,0,94,-4676,23,-87,-39,35
343,-1896,-3,94,-4676,23,-87,-38,35
344,-1896,-2,94,-4676,23,-87,-39,35
345,-1896,-4,95,-4677,23,-88,-39,35
346,-1897,-4,94,-4677,23,-88,-39,35
347,-1897,-3,93,-4677,23,-88,-39,34
348,-1896,-4,93,-4676,23,-89,-38,34
349,-1896,-5,94,-4678,23,-89,-39,35
350,-1896,-4,93,-4677,23,-88,-39,34
351,-1896,-3,93,-4676,23,-88,-38,34
352,-1895,-2,95,-4675,23,-89,-38,35
353,-1895,-3,95,-4675,23,-88,-38,35
354,-1895,-3,94,-4675,23,-87,-38,35
355,-1895,-3,93,-4673,23,-87,-39,35
356,-1895,-3,93,-4673,23,-87,-39,35
357,-1894,-3,91,-4674,23,-87,-39,35
358,-1895,-2,91,-4673,23,-87,-39,35
359,-1894,-3,93,-4676,23,-87,-39,35
360,-1894,-2,94,-4675,23,-87,-39,35
361,-1894,-1,94,-4674,23,-87,-38,35
362,-1894,-1,93,-4676,23,-87,-38,35
363,-1895,-2,93,-4675,23,-86,-38,35
364,-1894,-1,92,-4674,23,-87,-38,35
365,-1894,-2,93,-4676,23,-88,-39,35
366,-1895,-2,93,-4676,23,-87,-39,35
367,-1894,0,93,-4678,23,-87,-39,34
368,-1895,-1,93,-4676,23,-87,-38,34
369,-1895,-1,93,-4675,23,-87,-39,34
370,-1895,-1,92,-4674,23,-87,-39,34
371,-1895,0,90,-4674,23,-87,-39,34
372,-1895,-1,91,-4673,23,-87,-39,34
373,-1896,-1,91,-4672,23,-88,-38,34
374,-1896,-2,92,-4671,23,-87,-38,34
375,-1896,-2,93,-4672,23,-87,-39,33
376,-1897,-1,93,-4670,23,-87,-39,33
377,-1896,-1,94,-4671,23,-87,-38,33
378,-1896,-1,94,-4671,23,-87,-38,34
379,-1896,-1,93,-4671,23,-87,-38,34
380,-1897,-1,94,-4672,23,-87,-39,35
381,-1897,-2,95,-4673,23,-87,-39,35
382,-1897,-2,94,-4673,23,-87,-38,35
383,-1897,-1,94,-4673,23,-87,-38,35
384,-1898,-3,95,-4671,23,-88,-38,35
385,-1896,-1,94,-4671,23,-88,-38,35
386,-1896,-2,95,-4669,23,-87,-38,34
387,-1896,-1,94,-4670,23,-87,-39,34
388,-1895,-1,95,-4670,23,-87,-39,34
389,-1895,-2,96,-4672,23,-87,-39,34
390,-1894,0,95,-4671,23,-88,-39,34
391,-1895,-1,94,-4670,23,-87,-39,35
392,-1896,-2,93,-4671,23,-88,-39,35
393,-1894,-2,92,-4671,23,-87,-40,34
394,-1893,-1,93,-4669,23,-87,-39,34
395,-1895,-1,94,-4670,23,-87,-40,34
396,-1895,-1,93,-4670,23,-87,-39,34
397,-1895,-1,92,-4670,23,-87,-39,34
398,-1897,-1,91,-4669,23,-87,-39,34
399,-1896,0,93,-4669,23,-87,-39,34
400,-1896,-1,94,-4669,23,-87,-39,34
401,-1897,-2,95,-4671,23,-87,-39,34
402,-1895,-1,94,-4671,23,-87,-38,35
403,-1896,-2,94,-4671,23,-87,-39,35
404,-1896,-2,94,-4672,23,-87,-39,35
405,-1897,-2,94,-4670,23,-87,-39,35
406,-1895,-2,94,-4672,23,-87,-39,34
407,-1895,-2,91,-4671,23,-87,-38,33
408,-1895,-1,92,-4674,23,-87,-39,34
409,-1897,-1,93,-4673,23,-87,-39,34
410,-1897,-2,93,-4673,23,-86,-39,35
411,-1895,-2,93,-4671,23,-86,-39,34
412,-1895,-3,91,-4671,23,-86,-38,34
413,-1894,-1,92,-4670,23,-87,-38,34
414,-1893,0,93,-4670,23,-86,-38,35
415,-1895,0,93,-4669,23,-86,-38,35
416,-1896,0,94,-4670,23,-87,-39,35
417,-1896,-1,96,-4670,23,-87,-39,35
418,-1896,-1,96,-4670,23,-87,-39,35
419,-1896,-1,96,-4669,23,-87,-39,36
420,-1897,-1,94,-4670,23,-88,-39,35
421,-1898,-1,94,-4671,23,-88,-39,35
422,-1897,-1,95,-4670,23,-87,-39,35
423,-1896,-1,95,-4671,23,-87,-39,35
424,-1894,-2,95,-4670,23,-87,-39,34
425,-1895,-1,94,-4670,23,-87,-39,35
426,-1894,-1,95,-4668,23,-86,-38,35
427,-1895,-1,95,-4667,23,-86,-38,34
428,-1896,-2,94,-4668,23,-86,-38,34
429,-1895,-2,95,-4668,23,-86,-38,34
430,-1896,-2,96,-4667,23,-86,-39,35
431,-1896,-2,95,-4667,23,-86,-38,35
432,-1898,-2,96,-4667,23,-87,-38,35
433,-1898,-3,97,-4668,23,-86,-39,35
434,-1898,-1,96,-4669,23,-86,-39,35
435,-1897,-1,96,-4670,23,-87,-38,35
436,-1897,-2,95,-4668,23,-88,-38,35
437,-1896,-2,94,-4666,23,-88,-39,35
438,-1895,-2,94,-4665,23,-88,-39,35
439,-1895,-2,94,-4666,23,-87,-38,34
440,-1896,-2,93,-4665,23,-87,-38,34
441,-1896,-2,94,-4665,23,-87,-39,34
442,-1896,-2,94,-4666,23,-87,-38,34
443,-1896,-2,95,-4665,23,-87,-38,34
444,-1895,-1,97,-4665,23,-87,-38,34
445,-1895,-2,97,-4667,23,-87,-38,34
446,-1894,-1,97,-4667,23,-87,-38,34
447,-1894,-1,97,-4668,23,-87,-38,34
448,-1895,0,97,-4670,23,-87,-38,34
449,-1895,0,97,-4667,23,-87,-38,34
450,-1897,-1,97,-4666,23,-87,-38,35
451,-1895,-1,97,-4667,23,-87,-38,35
452,-1894,-1,94,-4666,23,-87,-38,35
453,-1894,-1,96,-4666,23,-87,-38,35
454,-1895,-1,97,-4664,23,-87,-39,35
455,-1894,0,93,-4664,23,-87,-38,35
456,-1894,0,94,-4666,23,-87,-39,35
457,-1894,0,95,-4667,23,-86,-39,35
458,-1892,0,94,-4667,23,-87,-38,34
459,-1893,-1,91,-4666,23,-87,-38,34
460,-1894,-2,90,-4667,23,-87,-38,34
461,-1893,-1,92,-4668,23,-87,-38,35
462,-1893,-1,93,-4667,23,-86,-38,35
463,-1894,-1,94,-4666,23,-86,-39,35
464,-1894,0,94,-4664,23,-87,-39,35
465,-1894,-2,96,-4666,23,-87,-39,35
466,-1893,-2,96,-4666,23,-87,-40,35
467,-1893,-2,94,-4667,23,-87,-40,34
468,-1894,-1,95,-4665,23,-87,-40,34
469,-1895,-2,96,-4664,23,-87,-40,34
470,-1895,-2,94,-4663,23,-87,-40,35
471,-1895,-2,94,-4666,23,-87,-39,34
472,-1894,-1,95,-4666,23,-87,-39,34
473,-1894,-1,97,-4666,23,-88,-39,34
474,-1893,-1,96,-4668,23,-88,-39,34
475,-1894,1,95,-4667,23,-88,-39,35
476,-1894,-1,94,-4665,23,-87,-39,35
477,-1895,-1,93,-4664,23,-87,-40,35
478,-1895,-1,94,-4667,23,-87,-39,35
479,-1895,-2,94,-4667,23,-87,-39,35
480,-1895,-1,94,-4668,23,-87,-39,35
481,-1894,-1,96,-4666,23,-87,-39,35
482,-1894,-2,96,-4665,23,-87,-39,35
483,-1894,-2,95,-4665,23,-87,-38,35
484,-1894,-1,92,-4665,23,-87,-38,35
485,-1893,-1,93,-4666,23,-87,-38,34
486,-1893,-1,95,-4666,23,-87,-38,35
487,-1893,-2,95,-4668,23,-87,-38,35
488,-1894,-3,93,-4668,23,-87,-38,35
489,-1894,-3,93,-4668,23,-87,-39,35
490,-1895,-3,93,-4667,23,-87,-38,35
491,-1897,-3,94,-4667,23,-86,-38,35
492,-1896,-2,94,-4666,23,-86,-38,34
493,-1896,-2,95,-4665,23,-86,-38,34
494,-1895,-2,94,-4664,23,-87,-38,34
495,-1894,-1,93,-4664,23,-87,-38,34
496,-1895,-1,92,-4665,23,-87,-38,34
497,-1895,-1,93,-4664,23,-87,-38,34
498,-1896,0,92,-4663,23,-87,-38,34
499,-1895,-1,93,-4663,23,-87,-38,34
500,-1895,-1,95,-4662,23,-87,-39,34
501,-1895,-1,95,-4661,23,-86,-38,34
502,-1895,-1,95,-4660,23,-87,-38,34
503,-1895,0,93,-4661,23,-87,-38,34
504,-1895,-1,93,-4661,23,-87,-37,35
505,-1895,1,90,-4662,23,-87,-37,35
506,-1895,0,92,-4663,23,-87,-38,35
507,-1895,-1,91,-4663,23,-87,-38,35
508,-1895,-1,92,-4662,23,-87,-38,34
509,-1894,-1,93,-4663,23,-87,-38,35
510,-1894,-2,93,-4662,23,-87,-38,35
511,-1896,-2,92,-4663,23,-87,-38,35
512,-1894,-1,95,-4663,23,-87,-38,35
513,-1894,-2,95,-4662,23,-87,-38,35
514,-1895,-1,92,-4661,23,-88,-38,35
515,-1895,-1,93,-4661,23,-88,-38,35
516,-1895,0,91,-4662,23,-87,-38,35
517,-1894,0,94,-4661,23,-87,-38,35
518,-1894,-1,94,-4661,23,-88,-39,35
519,-1894,0,93,-4662,23,-88,-39,35
520,-1895,0,94,-4662,23,-87,-39,35
521,-1896,0,92,-4660,23,-87,-38,35
522,-1896,-1,91,-4659,23,-88,-39,35
523,-1896,-1,90,-4661,23,-87,-39,35
524,-1896,-1,91,-4661,23,-87,-39,35
525,-1896,-2,92,-4660,23,-87,-39,35
526,-1895,-2,94,-4663,23,-87,-39,35
527,-1896,-1,95,-4662,23,-87,-38,34
528,-1895,-2,96,-4662,23,-87,-38,34
529,-1894,-3,95,-4662,23,-87,-38,34
530,-1895,-3,95,-4661,23,-87,-38,34
531,-1894,-2,92,-4660,23,-87,-39,34
532,-1895,-1,92,-4660,23,-87,-39,34
533,-1895,-2,93,-4662,23,-87,-39,34
534,-1896,-2,95,-4662,23,-87,-38,34
535,-1897,-2,95,-4662,23,-87,-39,34
536,-1895,-3,94,-4663,23,-87,-39,34
537,-1893,-4,93,-4661,23,-87,-38,34
538,-1893,-4,95,-4660,23,-87,-38,34
539,-1894,-3,95,-4659,23,-86,-39,34
540,-1895,-3,94,-4657,23,-86,-39,34
541,-1895,-2,95,-4656,23,-87,-40,34
542,-1895,-1,96,-4656,23,-86,-39,34
543,-1896,0,96,-4658,23,-86,-39,34
544,-1893,-2,95,-4658,23,-87,-40,34
545,-1894,-2,94,-4657,23,-88,-40,34
546,-1894,0,94,-4658,23,-87,-40,34
547,-1895,-1,92,-4659,23,-88,-39,34
548,-1896,-2,92,-4660,23,-88,-38,34
549,-1896,-3,93,-4660,23,-88,-39,34
550,-1895,-4,94,-4660,23,-87,-39,34
551,-1894,-4,93,-4659,23,-87,-39,34
552,-1893,-3,94,-4660,23,-87,-39,34
553,-1893,-2,95,-4660,23,-87,-39,34
554,-1895,-2,97,-4661,23,-87,-39,34
555,-1894,-2,98,-4662,23,-87,-39,34
556,-1896,-2,97,-4660,23,-87,-38,34
557,-1896,-1,97,-4658,23,-87,-38,35
558,-1896,-2,95,-4657,23,-88,-38,35
559,-1896,-2,93,-4657,23,-88,-39,35
560,-1896,-2,95,-4658,23,-87,-38,35
561,-1896,-1,93,-4659,23,-86,-38,34
562,-1896,-1,94,-4658,23,-87,-39,34
563,-1895,-1,93,-4659,23,-87,-38,35
564,-1895,-3,92,-4657,23,-86,-38,35
565,-1895,-3,93,-4657,23,-86,-38,34
566,-1895,-2,94,-4658,23,-87,-38,34
567,-1895,-3,92,-4660,23,-87,-39,34
568,-1895,-2,94,-4661,23,-87,-39,34
569,-1895,-3,95,-4661,23,-87,-38,33
570,-1896,-3,95,-4661,23,-87,-38,33
571,-1896,-2,96,-4660,23,-87,-38,33
572,-1896,-3,95,-4661,23,-87,-38,34
573,-1896,-3,93,-4662,23,-87,-38,34
574,-1895,-4,93,-4661,23,-87,-38,34
575,-1895,-3,92,-4660,23,-88,-38,34
576,-1894,-2,93,-4660,23,-88,-38,34
577,-1895,-3,95,-4659,23,-88,-38,35
578,-1895,-2,95,-4659,23,-88,-38,35
579,-1894,-2,95,-4659,23,-88,-38,35
580,-1895,-2,94,-4661,23,-88,-38,35
581,-1895,-3,95,-4660,23,-88,-38,35
582,-1895,-4,94,-4660,23,-88,-38,35
583,-1895,-4,93,-4660,23,-88,-38,35
584,-1895,-3,95,-4660,23,-88,-38,35
585,-1897,-3,95,-4660,23,-88,-39,35
586,-1896,-4,94,-4659,23,-88,-38,35
587,-1896,-3,95,-4659,23,-88,-38,34
588,-1897,-2,95,-4658,23,-88,-38,34
589,-1896,-2,94,-4658,23,-87,-38,34
590,-1895,-3,94,-4658,23,-88,-38,35
591,-1895,-2,94,-4658,23,-88,-39,35
592,-1894,-2,95,-4659,23,-87,-39,35
593,-1895,-2,96,-4658,23,-87,-39,35
594,-1896,-1,94,-4657,23,-87,-39,35
595,-1896,-1,93,-4659,23,-88,-38,35
596,-1896,-2,93,-4661,23,-89,-38,35
597,-1896,-2,94,-4659,23,-88,-38,36
598,-1896,-2,93,-4661,23,-88,-38,35
599,-1896,-3,92,-4662,23,-88,-38,35
600,-1895,-2,93,-4660,23,-88,-38,35
601,-1895,-2,93,-4658,23,-88,-38,35
602,-1896,-2,94,-4656,23,-87,-38,35
603,-1896,1,93,-4657,23,-87,-38,35
604,-1895,0,93,-4657,23,-87,-38,34
605,-1895,0,93,-4658,23,-87,-38,34
606,-1895,0,94,-4656,23,-87,-38,35
607,-1895,0,93,-4655,23,-87,-39,34
608,-1894,0,94,-4655,23,-87,-39,34
609,-1895,-2,93,-4656,23,-87,-39,34
610,-1894,-1,93,-4655,23,-87,-38,34
611,-1895,-2,95,-4655,23,-88,-39,34
612,-1894,-3,96,-4656,23,-88,-39,34
613,-1894,-3,95,-4657,23,-88,-38,34
614,-1894,-2,95,-4656,23,-88,-39,34
615,-1894,-1,94,-4655,23,-88,-39,34
616,-1894,-1,95,-4655,23,-88,-39,35
617,-1895,-1,95,-4656,23,-88,-39,34
618,-1895,0,95,-4656,23,-88,-39,34
619,-1895,1,94,-4655,23,-88,-39,34
620,-1895,0,95,-4654,23,-88,-39,34
621,-1895,-1,94,-4656,23,-87,-39,34
622,-1895,-1,94,-4656,23,-88,-40,34
623,-1894,-2,94,-4654,23,-88,-39,34
624,-1894,0,95,-4654,23,-89,-39,34
625,-1895,-1,95,-4654,23,-88,-39,34
626,-1894,-2,95,-4652,23,-88,-39,34
627,-1895,-2,94,-4652,23,-88,-39,35
628,-1895,0,95,-4653,23,-88,-39,34
629,-1894,-1,94,-4651,23,-87,-38,34
630,-1894,0,95,-4652,23,-88,-38,34
631,-1894,-1,94,-4652,23,-87,-38,34
632,-1895,-1,95,-4651,23,-87,-38,35
633,-1895,-2,96,-4653,23,-87,-38,35
634,-1894,-2,94,-4652,23,-87,-38,35
635,-1896,-2,93,-4653,23,-87,-38,35
636,-1896,-2,94,-4653,23,-87,-39,35
637,-1897,-2,94,-4653,23,-87,-39,35
638,-1897,-2,93,-4653,23,-87,-39,34
639,-1897,-2,94,-4654,23,-87,-39,34
640,-1896,-2,93,-4654,23,-88,-39,34
641,-1896,-3,94,-4655,23,-88,-39,34
642,-1896,-2,94,-4655,23,-88,-39,35
643,-1895,-2,92,-4654,23,-88,-38,34
644,-1895,-2,93,-4655,23,-87,-38,34
645,-1896,-2,92,-4656,23,-87,-38,35
646,-1895,-2,94,-4655,23,-88,-38,34
647,-1895,-2,92,-4655,23,-87,-38,35
648,-1895,-1,93,-4654,23,-87,-39,35
649,-1897,-1,92,-4655,23,-88,-39,34
650,-1896,-2,92,-4654,23,-88,-39,35
651,-1895,-2,91,-4653,23,-88,-39,35
652,-1895,-2,92,-4655,23,-88,-39,34
653,-1894,-2,91,-4655,23,-88,-38,35
654,-1895,-2,93,-4654,23,-88,-39,35
655,-1894,-1,93,-4655,23,-88,-39,35
656,-1893,0,94,-4655,23,-87,-38,35
657,-1894,-1,95,-4655,23,-87,-38,35
658,-1894,-1,96,-4654,23,-88,-38,36
659,-1895,0,95,-4656,23,-88,-38,35
660,-1894,0,94,-4654,23,-87,-39,35
661,-1894,-1,95,-4653,23,-88,-39,35
662,-1895,-1,95,-4654,23,-88,-39,35
663,-1895,-2,96,-4654,23,-88,-39,35
664,-1895,-2,96,-4653,23,-88,-39,35
665,-1896,-2,93,-4651,23,-88,-38,35
666,-1895,-1,94,-4650,23,-89,-39,35
667,-1894,0,94,-4651,23,-89,-39,35
668,-1894,-1,94,-4653,23,-89,-38,34
669,-1894,-1,94,-4653,23,-89,-38,35
670,-1894,-2,93,-4653,23,-88,-38,35
671,-1894,-1,94,-4651,23,-88,-38,35
672,-1895,-2,93,-4651,23,-88,-38,34
673,-1894,-2,94,-4652,23,-87,-38,34
674,-1894,-1,93,-4654,23,-88,-38,34
675,-1895,-1,90,-4652,23,-88,-39,34
676,-1894,-2,91,-4653,23,-88,-39,34
677,-1894,-2,94,-4653,23,-88,-38,35
678,-1895,-1,93,-4653,23,-88,-39,35
679,-1895,-1,94,-4655,23,-88,-39,35
680,-1894,-1,94,-4655,23,-88,-38,35
681,-1895,0,93,-4655,23,-88,-37,35
682,-1895,0,93,-4655,23,-88,-38,34
683,-1895,0,92,-4656,23,-88,-38,35
684,-1896,0,91,-4654,23,-88,-38,35
685,-1895,0,91,-4655,23,-88,-38,35
686,-1895,1,90,-4655,23,-87,-38,35
687,-1894,1,91,-4655,23,-88,-38,35
688,-1894,0,92,-4656,23,-88,-38,35
689,-1893,1,94,-4656,23,-88,-39,35
690,-1893,0,96,-4656,23,-87,-39,35
691,-1893,-1,96,-4656,23,-87,-40,35
692,-1893,-1,95,-4657,23,-87,-40,35
693,-1894,0,95,-4656,23,-87,-39,35
694,-1895,0,96,-4654,23,-87,-39,35
695,-1895,-1,96,-4657,23,-88,-39,35
696,-1894,0,95,-4658,23,-88,-39,35
697,-1895,-1,95,-4656,23,-88,-39,35
698,-1895,-1,96,-4657,23,-88,-39,34
699,-1894,-2,94,-4655,23,-88,-38,34
700,-1894,-2,93,-4654,23,-88,-38,35
701,-1896,-1,93,-4655,23,-87,-38,35
702,-1896,0,94,-4655,23,-87,-38,34
703,-1895,0,94,-4654,23,-88,-38,35
704,-1895,1,94,-4654,23,-88,-38,35
705,-1894,-1,94,-4651,23,-88,-38,35
706,-1895,-1,93,-4652,23,-88,-38,35
707,-1895,-1,93,-4651,23,-88,-37,34
708,-1896,-1,93,-4651,23,-88,-37,34
709,-1895,0,93,-4651,23,-88,-38,34
710,-1896,0,93,-4652,23,-88,-38,34
711,-1896,0,95,-4651,23,-89,-39,34
712,-1895,-1,97,-4652,23,-88,-39,34
713,-1894,-1,95,-4653,23,-88,-39,34
714,-1894,-2,94,-4654,23,-88,-39,34
715,-1894,-2,95,-4653,23,-88,-39,34
716,-1894,-2,95,-4653,23,-88,-38,34
717,-1895,-2,95,-4652,23,-88,-38,34
718,-1894,-2,95,-4651,23,-88,-38,34
719,-1895,-2,95,-4653,23,-88,-38,34
720,-1894,-3,94,-4653,23,-88,-38,34
721,-1894,-2,93,-4651,23,-88,-38,33
722,-1896,-2,95,-4650,23,-88,-39,33
723,-1896,-2,95,-4650,23,-87,-38,33
724,-1895,0,97,-4650,23,-87,-38,33
725,-1894,0,97,-4649,23,-88,-38,33
726,-1893,0,97,-4651,23,-88,-38,33
727,-1893,0,95,-4653,23,-88,-38,34
728,-1893,-1,95,-4652,23,-88,-38,34
729,-1893,-1,94,-4651,23,-88,-37,34
730,-1894,0,96,-4651,23,-88,-38,34
731,-1895,0,94,-4651,23,-88,-38,34
732,-1895,-1,93,-4650,23,-88,-39,34
733,-1895,-2,93,-4649,23,-88,-39,35
734,-1894,-3,95,-4649,23,-88,-39,35
735,-1895,-2,94,-4649,23,-87,-39,35
736,-1895,-1,92,-4649,23,-87,-39,34
737,-1895,-2,92,-4649,23,-88,-39,34
738,-1896,-2,93,-4649,23,-87,-39,34
739,-1894,-2,93,-4650,23,-87,-39,34
740,-1894,0,93,-4650,23,-87,-39,34
741,-1894,0,94,-4651,23,-87,-39,35
742,-1894,1,96,-4653,23,-87,-39,35
743,-1895,-1,94,-4652,23,-87,-40,36
744,-1895,-1,94,-4653,23,-86,-39,35
745,-1895,-1,95,-4654,23,-87,-39,35
746,-1894,-2,95,-4654,23,-87,-38,35
747,-1894,-2,97,-4654,23,-86,-38,35
748,-1894,-3,94,-4654,23,-87,-39,35
749,-1893,-1,94,-4653,23,-87,-38,35
750,-1894,-1,92,-4651,23,-88,-38,35
751,-1893,-1,93,-4651,23,-87,-38,35
752,-1892,-1,93,-4650,23,-88,-39,35
753,-1894,-2,94,-4650,23,-87,-39,35
754,-1894,0,95,-4651,23,-88,-39,35
755,-1894,0,96,-4651,23,-88,-39,35
756,-1895,-1,95,-4650,23,-88,-39,35
757,-1896,0,94,-4651,23,-88,-39,35
758,-1897,0,92,-4651,23,-88,-38,34
759,-1898,-2,94,-4650,23,-88,-39,35
760,-1897,-1,94,-4648,23,-88,-39,35
761,-1897,-1,93,-4649,23,-88,-38,35
762,-1896,-1,92,-4650,23,-88,-38,35
763,-1896,-1,91,-4649,23,-87,-38,34
764,-1897,-1,91,-4648,23,-87,-38,35
765,-1896,-2,91,-4648,23,-87,-38,35
766,-1896,-2,91,-4648,23,-87,-37,35
767,-1896,-3,92,-4647,23,-87,-38,35
768,-1896,-2,90,-4649,23,-87,-38,35
769,-1895,-3,91,-4646,23,-87,-38,35
770,-1896,-3,93,-4646,23,-87,-38,35
771,-1896,-3,93,-4647,23,-87,-38,35
772,-1895,-3,93,-4650,23,-87,-38,36
773,-1895,-3,94,-4651,23,-87,-38,35
774,-1895,-3,95,-4651,23,-87,-37,35
775,-1895,-2,95,-4650,23,-87,-38,35
776,-1894,-1,95,-4650,23,-87,-38,35
777,-1895,0,93,-4651,23,-87,-38,35
778,-1894,0,93,-4652,23,-87,-38,35
779,-1895,0,92,-4651,23,-88,-38,35
780,-1895,0,92,-4650,23,-88,-38,34
781,-1895,-2,91,-4650,23,-87,-38,35
782,-1896,-1,92,-4650,23,-87,-37,35
783,-1897,0,93,-4649,23,-88,-37,34
784,-1897,0,95,-4648,23,-87,-37,34
785,-1897,0,95,-4647,23,-88,-38,35
786,-1897,0,94,-4647,23,-88,-38,34
787,-1896,-1,92,-4645,23,-87,-38,35
788,-1896,0,94,-4646,23,-88,-39,35
789,-1896,-1,95,-4647,23,-87,-39,35
790,-1894,0,95,-4647,23,-87,-39,35
791,-1895,-1,95,-4646,23,-87,-38,35
792,-1896,1,95,-4649,23,-87,-38,35
793,-1896,0,96,-4648,23,-87,-38,35
794,-1895,0,95,-4648,23,-88,-38,35
795,-1894,0,95,-4647,23,-87,-38,35
796,-1894,0,94,-4648,23,-88,-38,35
797,-1895,-1,95,-4646,23,-87,-38,35
798,-1895,-1,95,-4648,23,-88,-38,35
799,-1895,0,96,-4648,23,-88,-38,35
800,-1896,-1,95,-4649,23,-88,-37,35
801,-1896,-1,94,-4649,23,-87,-37,35
802,-1895,0,94,-4648,23,-88,-38,35
803,-1895,-2,94,-4647,23,-88,-38,34
804,-1895,-2,95,-4646,23,-87,-38,34
805,-1894,-2,96,-4646,23,-87,-37,34
806,-1894,-3,96,-4647,23,-87,-38,34
807,-1896,-4,95,-4646,23,-87,-38,34
808,-1897,-4,94,-4647,23,-87,-38,34
809,-1896,-4,93,-4648,23,-88,-38,34
810,-1896,-4,95,-4648,23,-88,-39,34
811,-1896,-3,95,-4648,23,-87,-39,34
812,-1895,-3,94,-4646,23,-87,-39,35
813,-1895,-4,94,-4645,23,-87,-38,35
814,-1895,-4,92,-4645,23,-87,-39,35
815,-1895,-4,91,-4646,23,-87,-39,35
816,-1896,-4,92,-4646,23,-87,-38,35
817,-1895,-3,93,-4648,23,-88,-38,34
818,-1895,-2,93,-4648,23,-88,-38,35
819,-1895,-1,93,-4649,23,-88,-39,34
820,-1896,-2,93,-4649,23,-88,-38,34
821,-1896,-1,92,-4648,23,-89,-38,34
822,-1895,-1,92,-4649,23,-88,-38,34
823,-1894,0,92,-4649,23,-87,-38,34
824,-1894,-1,92,-4648,23,-88,-38,34
825,-1895,-2,92,-4650,23,-88,-38,34
826,-1895,-2,91,-4649,23,-88,-38,34
827,-1895,-2,92,-4650,23,-88,-38,34
828,-1896,-2,95,-4649,23,-88,-37,34
829,-1896,-2,95,-4649,23,-88,-37,34
830,-1895,-3,95,-4649,23,-88,-38,34
831,-1894,-3,94,-4650,23,-88,-38,35
832,-1895,-3,94,-4650,23,-88,-38,34
833,-1894,-3,93,-4651,23,-87,-38,34
834,-1895,-3,95,-4650,23,-87,-38,35
835,-1895,-2,94,-4650,23,-87,-38,35
836,-1895,-2,93,-4651,23,-88,-38,35
837,-1894,-2,92,-4650,23,-87,-37,35
838,-1894,-2,93,-4650,23,-87,-37,34
839,-1896,-2,95,-4651,23,-88,-37,35
840,-1896,-3,94,-4652,23,-88,-38,35
841,-1897,-3,96,-4652,23,-88,-38,35
842,-1897,-3,97,-4650,23,-88,-38,35
843,-1896,-2,96,-4648,23,-88,-38,34
844,-1895,-1,96,-4649,23,-87,-38,34
845,-1895,-1,96,-4649,23,-88,-38,34
846,-1896,-1,95,-4648,23,-88,-37,34
847,-1895,-2,96,-4648,23,-88,-37,34
848,-1895,-2,94,-4648,23,-88,-37,34
849,-1895,-1,93,-4646,23,-88,-38,34
850,-1894,-1,93,-4647,23,-88,-38,34
851,-1895,-2,93,-4647,23,-88,-37,35
852,-1895,-3,92,-4649,23,-88,-37,35
853,-1896,-2,92,-4649,23,-87,-37,35
854,-1896,-1,93,-4651,23,-87,-38,35
855,-1895,-2,94,-4649,23,-87,-38,35
856,-1895,-2,94,-4649,23,-87,-39,35
857,-1895,-3,94,-4648,23,-86,-38,34
858,-1895,-2,93,-4648,23,-87,-38,35
859,-1895,-3,94,-4647,23,-87,-38,35
860,-1896,-3,93,-4647,23,-88,-38,35
861,-1894,-3,93,-4647,23,-88,-39,34
862,-1894,-3,93,-4646,23,-88,-39,34
863,-1895,-4,94,-4645,23,-88,-38,34
864,-1894,-4,94,-4644,23,-88,-38,35
865,-1894,-4,94,-4645,23,-88,-38,34
866,-1894,-3,93,-4647,23,-88,-38,35
867,-1894,-3,94,-4647,23,-88,-38,35
868,-1894,-1,93,-4646,23,-88,-38,34
869,-1893,-1,93,-4646,23,-88,-38,34
870,-1893,-1,93,-4647,23,-89,-39,34
871,-1893,-1,95,-4648,23,-88,-38,35
872,-1893,0,95,-4647,23,-88,-38,35
873,-1895,0,94,-4647,23,-88,-38,35
874,-1896,1,94,-4648,23,-88,-38,35
875,-1896,0,93,-4648,23,-89,-38,35
876,-1897,0,94,-4648,23,-89,-37,35
877,-1895,0,92,-4647,23,-88,-38,36
878,-1896,1,92,-4648,23,-88,-38,36
879,-1897,1,92,-4648,23,-88,-38,35
880,-1896,-1,92,-4648,23,-88,-37,36
881,-1896,-1,93,-4647,23,-88,-38,35
882,-1896,-1,92,-4648,23,-88,-38,35
883,-1896,-2,92,-4648,23,-87,-38,35
884,-1895,-1,92,-4649,23,-87,-39,35
885,-1895,-1,92,-4650,23,-87,-39,35
886,-1894,-1,92,-4649,23,-87,-39,35
887,-1895,-2,93,-4646,23,-88,-38,35
888,-1893,-2,93,-4645,23,-87,-39,35
889,-1893,0,95,-4647,23,-87,-38,35
890,-1893,-1,96,-4649,23,-87,-38,35
891,-1894,-2,97,-4649,23,-88,-38,35
892,-1894,-3,96,-4647,23,-88,-37,35
893,-1895,-2,96,-4648,23,-88,-37,35
894,-1895,-2,96,-4646,23,-88,-38,35
895,-1896,-2,95,-4644,23,-88,-38,35
896,-1895,-2,95,-4643,23,-87,-38,35
897,-1894,-3,93,-4643,23,-87,-38,35
898,-1895,-2,94,-4644,23,-87,-39,35
899,-1895,-1,95,-4646,23,-87,-39,36
900,-1895,-1,95,-4647,23,-87,-39,35
901,-1896,0,95,-4648,23,-88,-39,35
902,-1897,-1,96,-4648,23,-88,-39,35
903,-1896,-2,96,-4648,23,-88,-39,35
904,-1895,-2,96,-4646,23,-88,-40,35
905,-1896,-1,95,-4648,23,-87,-40,35
906,-1896,-1,95,-4648,23,-87,-39,35
907,-1895,-2,92,-4646,23,-88,-39,35
908,-1895,-2,92,-4645,23,-88,-39,34
909,-1896,-2,92,-4646,23,-87,-39,34
910,-1895,-2,93,-4648,23,-87,-39,34
911,-1894,-3,93,-4648,23,-88,-39,34
912,-1894,-3,93,-4649,23,-88,-39,34
913,-1893,-3,94,-4648,23,-87,-38,34
914,-1891,-4,93,-4647,23,-87,-39,34
915,-1892,-3,91,-4647,23,-87,-38,34
916,-1894,-3,92,-4646,23,-87,-38,34
917,-1894,-3,94,-4647,23,-87,-39,34
918,-1894,-2,93,-4648,23,-87,-39,34
919,-1893,-2,93,-4648,23,-88,-38,35
920,-1893,-3,92,-4648,23,-88,-38,35
921,-1893,-1,93,-4648,23,-88,-38,34
922,-1893,-1,94,-4647,23,-87,-39,34
923,-1893,-1,93,-4646,23,-87,-39,35
924,-1892,0,94,-4646,23,-87,-39,35
925,-1892,0,96,-4644,23,-88,-39,35
926,-1893,0,95,-4644,23,-88,-39,35
927,-1893,-1,94,-4642,23,-87,-39,35
928,-1894,-1,95,-4643,23,-87,-39,34
929,-1895,-2,96,-4643,23,-87,-38,34
930,-1895,-2,95,-4645,23,-87,-38,34
931,-1895,-4,94,-4645,23,-86,-38,34
932,-1895,-3,93,-4644,23,-86,-38,34
933,-1894,-4,95,-4645,23,-87,-38,34
934,-1894,-3,93,-4645,23,-86,-39,34
935,-1893,-2,95,-4645,23,-87,-38,35
936,-1894,-3,95,-4644,23,-87,-38,35
937,-1894,-2,94,-4641,23,-87,-38,35
938,-1894,-4,93,-4641,23,-87,-38,35
939,-1893,-4,94,-4641,23,-87,-38,34
940,-1894,-2,95,-4643,23,-87,-38,35
941,-1894,-2,94,-4643,23,-87,-39,35
942,-1894,-2,93,-4643,23,-87,-39,35
943,-1895,-2,92,-4641,23,-87,-39,34
944,-1894,-2,92,-4642,23,-88,-39,34
945,-1895,-2,91,-4643,23,-88,-39,34
946,-1895,-1,93,-4643,23,-88,-38,34
947,-1895,-1,93,-4643,23,-88,-38,35
948,-1896,-2,93,-4644,23,-87,-39,35
949,-1897,0,94,-4643,23,-87,-38,35
950,-1896,-1,92,-4645,23,-88,-38,35
951,-1896,-1,93,-4644,23,-88,-38,35
952,-1896,-2,94,-4643,23,-87,-39,35
953,-1897,-1,94,-4643,23,-87,-38,35
954,-1897,-1,96,-4643,23,-87,-38,35
955,-1897,-1,95,-4645,23,-87,-38,35
956,-1896,-1,95,-4645,23,-87,-38,35
957,-1896,-3,94,-4644,23,-87,-39,35
958,-1896,-3,94,-4643,23,-88,-39,35
959,-1897,-2,94,-4644,23,-88,-38,35
960,-1895,-2,93,-4643,23,-88,-38,35
961,-1895,-2,93,-4643,23,-89,-39,35
962,-1894,-1,93,-4643,23,-88,-38,35
963,-1895,0,92,-4644,23,-88,-38,35
964,-1896,0,94,-4643,23,-89,-38,35
965,-1898,0,94,-4644,23,-88,-38,35
966,-1897,0,95,-4644,23,-88,-38,35
967,-1897,0,94,-4643,23,-89,-39,34
968,-1896,0,95,-4642,23,-88,-39,35
969,-1895,-1,94,-4641,23,-89,-39,34
970,-1895,-1,93,-4641,23,-88,-39,34
971,-1894,-2,94,-4640,23,-88,-39,34
972,-1895,-2,95,-4641,23,-88,-39,34
973,-1895,-3,94,-4643,23,-88,-39,34
974,-1895,-2,95,-4643,23,-88,-39,35
975,-1896,-2,95,-4643,23,-88,-39,35
976,-1894,-2,94,-4641,23,-88,-39,35
977,-1893,-3,94,-4642,23,-88,-38,35
978,-1894,-4,95,-4643,23,-89,-38,35
979,-1894,-3,97,-4642,23,-88,-38,35
980,-1894,-4,96,-4642,23,-88,-38,35
981,-1894,-3,97,-4642,23,-88,-38,35
982,-1894,-3,96,-4642,23,-88,-38,35
983,-1895,-2,95,-4642,23,-88,-37,34
984,-1896,-2,96,-4642,23,-88,-38,34
985,-1895,-2,96,-4643,23,-88,-38,34
986,-1895,-2,96,-4642,23,-88,-38,35
987,-1895,-2,95,-4642,23,-88,-38,36
988,-1895,-1,95,-4643,23,-88,-38,35
989,-1894,0,95,-4642,23,-87,-38,35
990,-1894,-1,94,-4643,23,-87,-38,35
991,-1895,-1,96,-4644,23,-87,-38,35
992,-1894,-2,97,-4643,23,-87,-38,35
993,-1895,-3,95,-4642,23,-87,-38,35
994,-1895,-3,94,-4640,23,-87,-38,34
995,-1894,-2,93,-4642,23,-87,-38,35
