,acc_X,acc_Y,acc_Z,temp,tempC,gyr_X,gyr_Y,gyr_Z
0,-1896,-3,88,-4849,22,-170,-79,70
1,-1895,-4,91,-4845,22,-170,-79,68
2,-1898,-4,85,-4845,22,-168,-76,67
3,-1894,3,89,-4848,22,-175,-79,73
4,-1898,1,97,-4833,22,-173,-81,67
5,-1894,-4,94,-4840,22,-172,-76,73
6,-1900,-1,102,-4842,22,-172,-73,65
7,-1895,-5,86,-4843,22,-172,-74,69
8,-1898,-5,88,-4838,22,-171,-73,68
9,-1897,-6,93,-4836,22,-172,-77,68
10,-1897,-2,92,-4838,22,-171,-79,69
11,-1896,-3,99,-4834,22,-174,-79,67
12,-1897,-3,92,-4843,22,-174,-76,69
13,-1896,-4,97,-4845,22,-174,-73,70
14,-1894,5,94,-4842,22,-176,-74,67
15,-1888,2,90,-4836,22,-176,-77,70
16,-1892,-4,96,-4838,22,-174,-79,69
17,-1895,-1,94,-4842,22,-172,-79,70
18,-1892,1,94,-4839,22,-171,-80,69
19,-1890,0,95,-4837,22,-173,-83,68
20,-1899,-4,87,-4839,22,-174,-77,63
21,-1899,3,85,-4828,22,-171,-81,70
22,-1891,1,98,-4834,22,-174,-81,68
23,-1893,-4,95,-4833,22,-173,-81,71
24,-1887,-3,96,-4840,22,-172,-79,67
25,-1897,-1,92,-4829,22,-173,-77,69
26,-1895,0,85,-4837,22,-172,-79,66
27,-1888,-3,91,-4835,22,-176,-80,68
28,-1889,0,99,-4829,22,-172,-75,65
29,-1894,0,97,-4834,22,-172,-78,64
30,-1897,0,94,-4836,22,-178,-77,71
31,-1894,-3,94,-4840,22,-170,-75,68
32,-1895,-1,90,-4829,22,-177,-74,70
33,-1894,2,94,-4829,22,-171,-76,67
34,-1897,-2,86,-4828,22,-174,-78,68
35,-1893,-3,93,-4830,22,-173,-76,71
36,-1891,1,89,-4823,22,-173,-72,70
37,-1894,1,96,-4829,22,-172,-76,68
38,-1897,-1,96,-4837,22,-172,-78,70
39,-1899,-2,91,-4830,22,-177,-80,71
40,-1893,-4,89,-4833,22,-169,-75,68
41,-1898,-2,94,-4833,22,-170,-75,65
42,-1895,-1,99,-4827,22,-173,-83,65
43,-1893,-4,94,-4826,22,-173,-81,66
44,-1892,-4,90,-4827,22,-176,-77,66
45,-1890,-5,90,-4828,22,-177,-77,69
46,-1896,-6,86,-4822,22,-173,-79,68
47,-1898,-1,91,-4823,22,-173,-74,69
48,-1891,-1,89,-4828,22,-174,-74,68
49,-1893,-1,86,-4824,22,-171,-72,73
50,-1891,-8,91,-4821,22,-172,-80,63
51,-1891,2,97,-4820,22,-172,-72,70
52,-1897,-7,107,-4826,22,-171,-74,72
53,-1893,-4,95,-4825,22,-171,-80,68
54,-1894,-1,88,-4822,22,-174,-75,72
55,-1892,-7,89,-4828,22,-174,-76,71
56,-1891,-5,94,-4824,22,-170,-73,68
57,-1897,-1,91,-4815,22,-171,-75,69
58,-1896,-6,94,-4825,22,-167,-80,67
59,-1893,-2,102,-4830,22,-169,-76,67
60,-1897,-6,92,-4821,22,-175,-77,68
61,-1894,1,84,-4833,22,-172,-80,71
62,-1892,-3,90,-4826,22,-172,-77,67
63,-1896,-4,81,-4826,22,-175,-77,68
64,-1896,-2,94,-4819,22,-174,-81,69
65,-1898,-3,101,-4825,22,-173,-75,66
66,-1889,-3,94,-4823,22,-170,-76,68
67,-1895,-8,88,-4821,22,-170,-74,67
68,-1897,-3,95,-4820,22,-171,-81,69
69,-1899,-3,95,-4831,22,-171,-73,69
70,-1899,4,99,-4817,22,-175,-76,71
71,-1891,0,101,-4820,22,-172,-73,70
72,-1894,3,94,-4822,22,-173,-75,70
73,-1895,0,89,-4817,22,-169,-77,68
74,-1893,-1,91,-4830,22,-175,-74,65
75,-1890,-3,94,-4819,22,-182,-79,66
76,-1896,-3,86,-4826,22,-171,-82,69
77,-1897,-3,91,-4822,22,-177,-78,73
78,-1899,1,93,-4831,22,-177,-75,71
79,-1897,-6,85,-4826,22,-175,-77,72
80,-1895,-4,87,-4823,22,-171,-71,66
81,-1897,2,92,-4823,22,-173,-78,67
82,-1897,-5,94,-4813,22,-174,-71,69
83,-1895,0,97,-4816,22,-172,-76,69
84,-1893,1,97,-4825,22,-178,-81,72
85,-1892,-1,90,-4817,22,-170,-77,68
86,-1896,-3,92,-4818,22,-171,-81,71
87,-1891,-1,90,-4816,22,-172,-76,68
88,-1893,2,87,-4811,22,-178,-73,67
89,-1895,-2,94,-4819,22,-173,-75,63
90,-1895,-2,91,-4810,22,-171,-75,69
91,-1894,-3,89,-4818,22,-177,-77,65
92,-1895,-1,90,-4809,22,-172,-77,73
93,-1897,-9,104,-4815,22,-173,-78,66
94,-1895,-6,91,-4817,22,-174,-76,64
95,-1899,0,99,-4815,22,-174,-75,72
96,-1891,-3,100,-4809,22,-170,-76,73
97,-1892,0,88,-4816,22,-175,-74,69
98,-1897,3,95,-4813,22,-175,-75,64
99,-1892,-3,94,-4816,22,-171,-75,70
100,-1895,-1,86,-4815,22,-172,-79,69
101,-1892,-2,94,-4810,22,-171,-75,70
102,-1894,-7,92,-4814,22,-175,-73,66
103,-1897,4,96,-4816,22,-176,-76,69
104,-1896,4,92,-4808,22,-175,-81,72
105,-1901,-4,93,-4804,22,-176,-80,73
106,-1896,-2,88,-4807,22,-176,-77,74
107,-1897,-4,91,-4812,22,-171,-73,70
108,-1897,4,99,-4810,22,-172,-74,68
109,-1894,-2,91,-4810,22,-175,-81,65
110,-1901,0,87,-4807,22,-174,-73,66
111,-1893,1,94,-4807,22,-174,-80,68
112,-1896,0,99,-4812,22,-178,-78,68
113,-1894,-2,101,-4822,22,-175,-79,66
114,-1897,-4,91,-4813,22,-173,-78,65
115,-1888,3,97,-4807,22,-172,-79,64
116,-1892,-2,87,-4807,22,-170,-81,66
117,-1891,-1,100,-4805,22,-168,-81,70
118,-1897,-3,94,-4808,22,-173,-77,69
119,-1890,-6,95,-4816,22,-179,-73,66
120,-1890,-7,91,-4816,22,-172,-67,67
121,-1895,1,97,-4813,22,-176,-72,65
122,-1886,-1,89,-4808,22,-171,-74,68
123,-1895,-8,88,-4807,22,-174,-74,70
124,-1891,-3,89,-4819,22,-171,-75,67
125,-1891,2,97,-4812,22,-171,-80,70
126,-1896,-2,96,-4813,22,-167,-77,68
127,-1893,-5,95,-4812,22,-177,-77,64
128,-1891,-4,95,-4804,22,-171,-78,67
129,-1897,-2,92,-4806,22,-170,-78,67
130,-1898,3,91,-4797,22,-169,-76,70
131,-1896,-2,92,-4805,22,-176,-75,67
132,-1895,-4,96,-4808,22,-172,-79,65
133,-1898,-3,92,-4809,22,-175,-77,64
134,-1899,3,89,-4808,22,-171,-76,71
135,-1891,6,89,-4806,22,-171,-78,70
136,-1892,4,95,-4806,22,-176,-79,73
137,-1893,1,97,-4798,22,-171,-80,70
138,-1891,-2,95,-4802,22,-174,-71,70
139,-1894,-1,84,-4808,22,-172,-73,66
140,-1895,-5,93,-4808,22,-173,-79,70
141,-1897,-3,95,-4806,22,-170,-76,68
142,-1892,-6,85,-4806,22,-173,-78,71
143,-1897,0,83,-4801,22,-174,-78,71
144,-1899,-2,92,-4807,22,-171,-81,63
145,-1900,-5,96,-4800,22,-176,-78,66
146,-1895,-9,93,-4806,22,-178,-75,65
147,-1894,2,94,-4809,22,-175,-81,70
148,-1894,5,99,-4797,22,-172,-74,68
149,-1889,-1,94,-4807,22,-178,-78,68
150,-1896,-1,95,-4810,22,-169,-83,70
151,-1893,-3,87,-4803,22,-173,-77,68
152,-1897,-5,92,-4804,22,-176,-77,66
153,-1893,2,86,-4800,22,-175,-85,70
154,-1897,-1,99,-4808,22,-175,-73,69
155,-1895,4,93,-4802,22,-178,-79,68
156,-1901,-2,90,-4807,22,-173,-76,72
157,-1901,-4,91,-4807,22,-173,-75,72
158,-1894,-4,101,-4802,22,-174,-80,67
159,-1890,-1,99,-4809,22,-175,-75,70
160,-1895,3,88,-4799,22,-176,-77,67
161,-1892,0,89,-4799,22,-173,-74,72
162,-1898,2,90,-4805,22,-167,-79,67
163,-1895,0,94,-4802,22,-172,-74,68
164,-1894,-3,98,-4796,22,-167,-81,66
165,-1887,0,94,-4797,22,-169,-74,70
166,-1894,1,99,-4802,22,-167,-84,69
167,-1897,-3,90,-4802,22,-173,-80,66
168,-1896,-4,96,-4801,22,-173,-76,68
169,-1895,-6,89,-4795,22,-168,-77,72
170,-1892,-3,94,-4803,22,-173,-77,67
171,-1893,-3,91,-4803,22,-175,-76,67
172,-1896,0,88,-4807,22,-176,-77,66
173,-1896,-4,90,-4801,22,-173,-76,71
174,-1894,-6,93,-4804,22,-175,-76,71
175,-1898,-6,87,-4800,22,-172,-78,70
176,-1898,0,95,-4797,22,-172,-73,68
177,-1891,-3,97,-4795,22,-172,-77,71
178,-1897,-5,88,-4800,22,-178,-77,67
179,-1892,-3,96,-4807,22,-178,-75,72
180,-1893,0,90,-4805,22,-169,-75,67
181,-1893,4,103,-4800,22,-168,-76,67
182,-1891,-2,94,-4800,22,-174,-72,69
183,-1896,-1,90,-4784,22,-177,-78,69
184,-1894,-3,92,-4798,22,-172,-75,72
185,-1895,0,93,-4805,22,-167,-81,72
186,-1894,2,97,-4796,22,-168,-77,68
187,-1895,-3,93,-4797,22,-166,-81,65
188,-1894,-2,101,-4796,22,-170,-69,67
189,-1899,-7,88,-4799,22,-170,-76,65
190,-1892,-2,88,-4800,22,-170,-78,67
191,-1890,-4,94,-4799,22,-173,-76,68
192,-1899,1,96,-4805,22,-172,-76,69
193,-1900,-4,82,-4796,22,-173,-79,67
194,-1896,-2,94,-4797,22,-176,-79,67
195,-1895,-2,86,-4797,22,-173,-77,70
196,-1889,-6,90,-4804,22,-175,-80,68
197,-1892,-4,93,-4795,22,-174,-77,73
198,-1892,1,96,-4798,22,-175,-76,72
199,-1891,-2,90,-4800,22,-171,-77,71
200,-1892,0,93,-4802,22,-169,-76,70
201,-1897,2,86,-4796,22,-171,-78,67
202,-1894,0,96,-4804,22,-172,-73,67
203,-1898,-1,101,-4797,22,-172,-76,70
204,-1894,-6,93,-4795,22,-172,-78,72
205,-1896,-5,101,-4793,22,-170,-77,71
206,-1890,0,101,-4798,22,-173,-77,73
207,-1888,0,93,-4798,22,-170,-77,66
208,-1897,-8,88,-4799,22,-173,-75,66
209,-1893,3,93,-4789,22,-176,-79,69
210,-1893,6,87,-4795,22,-176,-74,68
211,-1896,0,93,-4795,22,-173,-79,67
212,-1898,-6,93,-4791,22,-173,-73,71
213,-1897,1,99,-4796,22,-171,-81,75
214,-1893,-2,91,-4807,22,-171,-77,69
215,-1893,-3,91,-4799,22,-171,-78,70
216,-1897,2,101,-4795,22,-168,-79,70
217,-1898,-2,89,-4793,22,-173,-78,71
218,-1896,-5,91,-4794,22,-170,-73,70
219,-1897,0,99,-4795,22,-176,-75,70
220,-1891,-4,100,-4802,22,-170,-74,67
221,-1894,-1,92,-4796,22,-173,-77,70
222,-1898,-4,96,-4797,22,-176,-76,69
223,-1895,-6,90,-4796,22,-170,-75,67
224,-1894,-3,95,-4787,22,-169,-77,67
225,-1898,-1,99,-4793,22,-175,-78,68
226,-1893,-5,97,-4790,22,-173,-81,67
227,-1894,-7,93,-4793,22,-180,-70,65
228,-1892,3,100,-4789,22,-172,-74,67
229,-1894,-2,96,-4786,22,-175,-75,68
230,-1886,2,103,-4791,22,-169,-77,71
231,-1896,-2,98,-4794,22,-170,-78,69
232,-1887,-8,90,-4789,22,-174,-77,71
233,-1894,-3,100,-4791,22,-172,-72,72
234,-1888,-1,93,-4794,22,-173,-70,64
235,-1900,0,98,-4784,22,-174,-73,62
236,-1898,0,89,-4791,22,-170,-80,65
237,-1893,0,96,-4782,22,-171,-76,70
238,-1893,0,87,-4791,22,-171,-74,69
239,-1892,-5,87,-4793,22,-174,-78,71
240,-1896,-3,89,-4794,22,-172,-76,68
241,-1892,0,93,-4787,22,-174,-72,69
242,-1893,-2,90,-4787,22,-171,-76,68
243,-1898,5,92,-4785,22,-172,-72,71
244,-1892,-3,85,-4792,22,-171,-73,63
245,-1898,-10,101,-4790,22,-170,-75,70
246,-1891,-6,99,-4800,22,-173,-74,70
247,-1892,-5,87,-4794,22,-168,-73,68
248,-1892,-4,96,-4794,22,-173,-75,68
249,-1898,-1,96,-4785,22,-178,-73,66
250,-1891,3,90,-4790,22,-167,-73,67
251,-1895,-2,96,-4788,22,-170,-77,70
252,-1895,5,99,-4787,22,-176,-71,70
253,-1899,-3,102,-4792,22,-170,-75,66
254,-1895,-1,90,-4792,22,-175,-78,71
255,-1896,-9,94,-4787,22,-173,-81,66
256,-1898,-2,95,-4789,22,-173,-81,66
257,-1894,-4,95,-4788,22,-173,-75,68
258,-1892,-2,83,-4792,22,-175,-78,75
259,-1898,2,94,-4786,22,-174,-81,66
260,-1891,1,85,-4793,22,-170,-73,69
261,-1890,0,84,-4787,22,-176,-81,69
262,-1888,-2,96,-4801,22,-178,-72,69
263,-1893,-1,91,-4795,22,-177,-76,65
264,-1897,1,97,-4793,22,-172,-72,69
265,-1898,-2,96,-4798,22,-174,-74,64
266,-1894,-2,97,-4789,22,-174,-73,71
267,-1893,-5,93,-4789,22,-175,-74,68
268,-1895,-1,95,-4787,22,-174,-79,66
269,-1894,-5,93,-4793,22,-177,-77,66
270,-1897,0,98,-4787,22,-173,-75,69
271,-1900,-2,92,-4790,22,-169,-72,73
272,-1895,-4,101,-4783,22,-169,-77,66
273,-1893,-1,94,-4789,22,-174,-77,67
274,-1893,2,97,-4783,22,-173,-79,70
275,-1892,1,89,-4786,22,-173,-78,73
276,-1892,-6,97,-4787,22,-169,-77,71
277,-1897,3,87,-4790,22,-173,-74,66
278,-1904,-2,95,-4785,22,-175,-80,68
279,-1898,-3,86,-4792,22,-171,-84,72
280,-1890,-4,94,-4790,22,-178,-81,69
281,-1897,1,93,-4789,22,-170,-72,70
282,-1895,-3,98,-4795,22,-174,-74,71
283,-1898,-1,90,-4796,22,-174,-76,68
284,-1888,2,92,-4785,22,-172,-76,68
285,-1896,-3,89,-4787,22,-175,-72,69
286,-1893,1,93,-4787,22,-172,-82,72
287,-1893,-3,96,-4789,22,-170,-79,66
288,-1891,-5,95,-4787,22,-173,-75,67
289,-1893,-6,96,-4791,22,-173,-74,66
290,-1891,-4,89,-4788,22,-172,-80,65
291,-1894,-3,92,-4790,22,-175,-77,70
292,-1899,-4,91,-4785,22,-176,-72,74
293,-1898,-6,100,-4784,22,-174,-72,69
294,-1891,-3,94,-4779,22,-178,-79,73
295,-1892,0,90,-4778,22,-174,-75,71
296,-1894,-3,93,-4783,22,-168,-75,65
297,-1894,-3,100,-4783,22,-168,-80,72
298,-1900,3,101,-4783,22,-171,-75,69
299,-1893,-4,95,-4790,22,-172,-79,74
300,-1897,-3,97,-4782,22,-174,-84,78
301,-1896,1,89,-4786,22,-173,-80,69
302,-1898,1,94,-4791,22,-171,-73,72
303,-1894,0,97,-4778,22,-175,-76,74
304,-1898,-4,81,-4786,22,-174,-73,71
305,-1892,-9,99,-4783,22,-172,-79,70
306,-1893,-8,93,-4782,22,-174,-82,68
307,-1896,-2,95,-4780,22,-173,-76,71
308,-1899,-8,95,-4781,22,-176,-76,64
309,-1888,-2,89,-4781,22,-173,-76,73
310,-1890,-3,96,-4790,22,-170,-80,69
311,-1898,1,90,-4787,22,-175,-81,73
312,-1895,0,95,-4791,22,-174,-82,74
313,-1893,-2,94,-4791,22,-174,-76,71
314,-1892,1,93,-4782,22,-176,-75,67
315,-1896,1,94,-4783,22,-170,-73,71
316,-1896,-4,95,-4781,22,-172,-82,65
317,-1900,0,90,-4788,22,-173,-73,67
318,-1893,1,91,-4780,22,-176,-83,67
319,-1898,0,93,-4777,22,-174,-80,70
320,-1896,-3,97,-4785,22,-176,-78,70
321,-1893,-6,89,-4790,22,-176,-74,68
322,-1894,-5,92,-4781,22,-178,-77,68
323,-1894,-1,92,-4782,22,-177,-77,69
324,-1895,-1,85,-4778,22,-175,-84,64
325,-1893,-2,95,-4787,22,-176,-80,65
326,-1895,3,92,-4788,22,-175,-77,69
327,-1893,5,93,-4776,22,-174,-77,66
328,-1899,3,85,-4783,22,-173,-82,71
329,-1893,-3,91,-4777,22,-169,-75,70
330,-1897,-7,94,-4786,22,-175,-73,70
331,-1902,-1,92,-4795,22,-175,-80,70
332,-1892,1,99,-4780,22,-178,-80,73
333,-1894,-1,89,-4780,22,-173,-80,67
334,-1899,-1,95,-4786,22,-171,-76,69
335,-1896,-5,96,-4785,22,-175,-78,74
336,-1889,-5,98,-4789,22,-180,-74,73
337,-1894,-3,90,-4783,22,-173,-80,70
338,-1897,-2,88,-4777,22,-172,-77,66
339,-1896,-3,92,-4781,22,-172,-74,68
340,-1893,-1,92,-4777,22,-170,-78,72
341,-1890,-4,96,-4795,22,-171,-79,70
342,-1898,-5,92,-4785,22,-177,-80,71
343,-1893,-4,90,-4786,22,-172,-73,68
344,-1891,0,90,-4778,22,-178,-72,69
345,-1892,-4,92,-4789,22,-172,-73,69
346,-1894,-4,93,-4779,22,-171,-81,71
347,-1895,-2,97,-4784,22,-173,-77,68
348,-1894,-1,82,-4777,22,-173,-78,69
349,-1898,3,84,-4772,22,-178,-74,68
350,-1899,-1,87,-4784,22,-174,-82,69
351,-1896,-2,94,-4782,22,-171,-81,66
352,-1897,4,89,-4781,22,-171,-80,67
353,-1894,-1,92,-4779,22,-177,-76,66
354,-1893,-3,94,-4783,22,-178,-76,69
355,-1899,0,94,-4772,22,-176,-78,69
356,-1895,-1,87,-4772,22,-173,-77,69
357,-1894,-5,98,-4786,22,-171,-75,69
358,-1899,-3,95,-4784,22,-172,-78,71
359,-1892,-5,93,-4780,22,-176,-73,67
360,-1895,-1,93,-4779,22,-179,-73,70
361,-1898,-10,92,-4774,22,-178,-79,71
362,-1890,3,94,-4786,22,-175,-81,70
363,-1896,-4,98,-4787,22,-172,-80,62
364,-1897,-1,100,-4777,22,-176,-75,71
365,-1895,-6,95,-4781,22,-173,-74,73
366,-1892,0,91,-4781,22,-174,-75,71
367,-1899,-7,85,-4781,22,-174,-78,70
368,-1894,-5,100,-4778,22,-172,-76,74
369,-1894,-1,99,-4774,22,-175,-77,69
370,-1892,-6,96,-4775,22,-180,-79,74
371,-1895,1,93,-4783,22,-175,-77,70
372,-1895,-3,89,-4783,22,-170,-77,69
373,-1889,-4,93,-4781,22,-176,-71,69
374,-1894,-4,96,-4774,22,-174,-73,70
375,-1896,3,97,-4776,22,-176,-72,70
376,-1889,-3,96,-4779,22,-176,-81,68
377,-1889,-3,99,-4782,22,-172,-74,64
378,-1897,-6,97,-4779,22,-170,-74,69
379,-1898,-1,93,-4782,22,-174,-74,65
380,-1893,-3,97,-4777,22,-174,-82,70
381,-1895,-1,98,-4777,22,-172,-74,70
382,-1898,-3,99,-4774,22,-173,-76,73
383,-1901,2,95,-4784,22,-177,-82,68
384,-1898,0,91,-4786,22,-172,-78,70
385,-1894,2,94,-4773,22,-178,-73,64
386,-1898,-2,99,-4777,22,-177,-75,66
387,-1896,-1,97,-4773,22,-177,-76,66
388,-1894,2,92,-4785,22,-173,-79,69
389,-1896,-4,90,-4780,22,-172,-79,71
390,-1893,-3,101,-4781,22,-177,-79,68
391,-1890,6,91,-4778,22,-173,-76,67
392,-1892,-9,100,-4781,22,-181,-70,69
393,-1894,-4,91,-4776,22,-173,-78,72
394,-1897,-4,89,-4770,22,-176,-73,67
395,-1892,0,95,-4780,22,-174,-76,63
396,-1891,1,92,-4776,22,-173,-77,72
397,-1894,3,91,-4771,22,-172,-75,71
398,-1892,-5,90,-4780,22,-173,-76,68
399,-1893,-2,94,-4773,22,-175,-74,70
400,-1891,-2,90,-4776,22,-171,-79,67
401,-1896,-6,99,-4779,22,-172,-76,68
402,-1890,1,94,-4778,22,-179,-73,71
403,-1896,0,89,-4779,22,-173,-78,67
404,-1898,-4,87,-4769,22,-175,-77,72
405,-1895,-3,90,-4769,22,-178,-73,69
406,-1898,3,92,-4769,22,-172,-76,69
407,-1895,0,92,-4769,22,-174,-76,63
408,-1895,1,94,-4777,22,-172,-78,67
409,-1898,1,93,-4775,22,-177,-80,64
410,-1894,-6,91,-4776,22,-174,-77,68
411,-1897,-2,95,-4786,22,-177,-77,65
412,-1893,-8,96,-4782,22,-174,-83,70
413,-1889,-1,88,-4768,22,-168,-82,68
414,-1898,-6,99,-4771,22,-175,-71,68
415,-1898,-7,93,-4776,22,-173,-73,73
416,-1892,0,93,-4773,22,-173,-71,67
417,-1896,5,102,-4780,22,-168,-69,66
418,-1897,1,96,-4771,22,-172,-79,69
419,-1890,3,91,-4779,22,-172,-75,66
420,-1892,-2,94,-4776,22,-170,-75,67
421,-1893,-3,99,-4779,22,-173,-78,66
422,-1895,3,97,-4773,22,-175,-76,62
423,-1899,-2,94,-4773,22,-177,-80,69
424,-1894,-5,90,-4773,22,-172,-73,68
425,-1895,-1,90,-4767,22,-173,-78,67
426,-1899,-5,98,-4770,22,-174,-83,74
427,-1892,-5,82,-4779,22,-170,-77,67
428,-1896,3,94,-4761,22,-178,-75,64
429,-1899,-2,81,-4774,22,-177,-71,73
430,-1896,0,89,-4782,22,-176,-81,65
431,-1896,1,98,-4769,22,-176,-79,67
432,-1894,-5,92,-4768,22,-171,-78,64
433,-1898,-1,94,-4768,22,-169,-74,70
434,-1894,-5,91,-4779,22,-167,-77,69
435,-1891,-2,85,-4784,22,-172,-72,64
436,-1893,-5,85,-4775,22,-174,-78,69
437,-1896,-6,92,-4777,22,-175,-73,68
438,-1892,-4,84,-4774,22,-175,-75,70
439,-1894,-1,89,-4779,22,-172,-72,76
440,-1891,-2,90,-4771,22,-181,-75,70
441,-1891,0,98,-4774,22,-168,-78,69
442,-1893,2,97,-4767,22,-168,-74,65
443,-1893,-1,91,-4783,22,-171,-80,65
444,-1890,0,94,-4767,22,-166,-75,70
445,-1898,-5,94,-4764,22,-175,-73,72
446,-1886,-1,103,-4781,22,-174,-80,69
447,-1892,-8,96,-4776,22,-173,-74,67
448,-1896,3,88,-4776,22,-176,-76,69
449,-1893,0,95,-4775,22,-174,-80,72
450,-1898,0,94,-4774,22,-175,-75,73
451,-1895,0,95,-4776,22,-173,-74,70
452,-1898,1,101,-4771,22,-169,-77,68
453,-1891,-7,102,-4769,22,-170,-68,71
454,-1900,-4,97,-4772,22,-175,-76,70
455,-1901,-5,97,-4783,22,-173,-78,67
456,-1892,-8,93,-4776,22,-174,-75,71
457,-1895,-8,93,-4775,22,-173,-79,70
458,-1903,-6,93,-4771,22,-167,-77,73
459,-1897,-4,94,-4779,22,-172,-77,71
460,-1895,-6,95,-4773,22,-173,-75,68
461,-1897,-2,90,-4774,22,-171,-77,65
462,-1894,-6,89,-4761,22,-167,-77,63
463,-1894,1,89,-4773,22,-171,-72,73
464,-1892,-6,96,-4769,22,-173,-76,71
465,-1896,-1,97,-4765,22,-174,-75,70
466,-1894,-3,94,-4771,22,-174,-82,72
467,-1888,2,92,-4769,22,-172,-76,69
468,-1894,-1,96,-4774,22,-175,-73,71
469,-1888,5,94,-4764,22,-174,-73,68
470,-1898,-2,88,-4768,22,-170,-78,70
471,-1892,1,94,-4766,22,-169,-75,66
472,-1895,-2,94,-4770,22,-177,-73,67
473,-1899,-5,89,-4768,22,-173,-76,73
474,-1893,-3,90,-4779,22,-173,-75,66
475,-1900,-2,94,-4768,22,-171,-75,66
476,-1897,-5,97,-4772,22,-171,-72,74
477,-1900,-6,91,-4772,22,-177,-75,70
478,-1894,-8,97,-4764,22,-179,-79,71
479,-1897,-3,98,-4770,22,-174,-74,67
480,-1893,0,90,-4768,22,-178,-80,69
481,-1891,-2,88,-4762,22,-177,-76,69
482,-1891,-1,94,-4762,22,-173,-77,71
483,-1892,-2,91,-4783,22,-170,-74,70
484,-1896,2,92,-4769,22,-171,-75,70
485,-1895,-2,93,-4777,22,-172,-77,69
486,-1891,-3,92,-4774,22,-176,-74,70
487,-1893,-2,85,-4775,22,-172,-73,71
488,-1890,3,90,-4767,22,-170,-75,74
489,-1901,4,94,-4760,22,-175,-72,73
490,-1893,-4,94,-4766,22,-174,-77,68
491,-1890,1,90,-4771,22,-179,-74,67
492,-1896,3,90,-4769,22,-174,-76,68
493,-1892,2,99,-4766,22,-173,-76,67
494,-1886,-6,92,-4766,22,-176,-75,70
495,-1894,-7,92,-4770,22,-170,-76,71
496,-1895,-2,95,-4766,22,-170,-85,70
497,-1901,-6,92,-4768,22,-174,-80,71
498,-1893,-3,90,-4760,22,-168,-80,63
499,-1894,0,90,-4764,22,-171,-75,67
500,-1889,-6,89,-4772,22,-175,-72,68
501,-1897,-1,98,-4764,22,-175,-71,69
502,-1897,-1,92,-4767,22,-177,-74,70
503,-1895,-1,89,-4771,22,-176,-73,71
504,-1894,-7,95,-4765,22,-178,-76,65
505,-1892,-4,90,-4764,22,-175,-79,68
506,-1888,-6,98,-4756,23,-171,-74,67
507,-1893,-3,88,-4767,22,-173,-79,69
508,-1895,-3,95,-4765,22,-178,-79,68
509,-1899,-4,100,-4767,22,-171,-79,70
510,-1892,-2,92,-4770,22,-168,-70,69
511,-1897,0,97,-4767,22,-173,-71,71
512,-1898,-2,99,-4773,22,-173,-73,74
513,-1895,-2,95,-4762,22,-172,-74,71
514,-1895,-3,102,-4764,22,-174,-74,68
515,-1891,-2,102,-4762,22,-173,-80,68
516,-1891,2,96,-4763,22,-168,-82,72
517,-1896,-5,94,-4763,22,-170,-69,69
518,-1897,5,98,-4763,22,-173,-79,71
519,-1893,-5,96,-4766,22,-174,-77,69
520,-1900,-6,93,-4766,22,-165,-80,73
521,-1900,-3,93,-4761,22,-172,-78,74
522,-1895,-1,95,-4764,22,-176,-80,69
523,-1892,-1,85,-4777,22,-170,-79,70
524,-1897,4,91,-4760,22,-176,-77,68
525,-1895,2,88,-4766,22,-173,-72,69
526,-1886,2,88,-4761,22,-174,-77,68
527,-1890,0,98,-4758,23,-176,-77,69
528,-1899,-5,87,-4769,22,-168,-75,69
529,-1893,0,100,-4770,22,-175,-74,68
530,-1894,-1,96,-4765,22,-176,-74,67
531,-1891,-3,96,-4762,22,-176,-75,69
532,-1892,-3,93,-4772,22,-168,-73,71
533,-1893,-4,86,-4759,23,-169,-76,68
534,-1896,-3,87,-4759,23,-176,-77,70
535,-1899,-3,90,-4767,22,-172,-82,70
536,-1897,-6,91,-4765,22,-173,-75,70
537,-1891,-3,93,-4769,22,-175,-77,67
538,-1900,-2,103,-4757,23,-175,-75,71
539,-1893,0,97,-4763,22,-172,-72,72
540,-1893,5,93,-4765,22,-175,-81,68
541,-1894,0,90,-4757,23,-175,-80,68
542,-1892,3,93,-4763,22,-175,-78,68
543,-1895,2,93,-4761,22,-172,-73,70
544,-1897,-7,95,-4758,23,-177,-77,66
545,-1894,-8,95,-4762,22,-176,-73,71
546,-1894,-3,99,-4761,22,-174,-77,70
547,-1896,-2,95,-4771,22,-175,-78,67
548,-1894,-2,90,-4759,23,-175,-75,72
549,-1900,1,96,-4762,22,-174,-79,72
550,-1894,-2,88,-4762,22,-173,-78,71
551,-1894,1,85,-4762,22,-169,-75,70
552,-1894,2,92,-4760,22,-173,-76,64
553,-1892,0,95,-4765,22,-172,-75,71
554,-1896,-6,90,-4765,22,-178,-73,68
555,-1894,0,92,-4763,22,-172,-69,74
556,-1894,3,95,-4762,22,-176,-79,66
557,-1896,-1,94,-4767,22,-170,-74,71
558,-1899,-3,90,-4767,22,-175,-75,67
559,-1891,1,98,-4768,22,-175,-75,69
560,-1902,-2,100,-4767,22,-172,-79,70
561,-1893,2,92,-4761,22,-168,-82,65
562,-1894,-3,85,-4759,23,-175,-72,66
563,-1898,-1,95,-4759,23,-169,-75,70
564,-1895,-1,92,-4753,23,-176,-74,71
565,-1891,1,97,-4766,22,-173,-81,69
566,-1899,-6,86,-4757,23,-173,-75,68
567,-1888,1,86,-4761,22,-172,-76,72
568,-1895,-4,91,-4756,23,-173,-79,71
569,-1898,-4,94,-4760,22,-175,-80,72
570,-1894,3,89,-4754,23,-176,-78,69
571,-1895,-4,98,-4762,22,-169,-76,66
572,-1893,-2,91,-4764,22,-174,-77,69
573,-1897,-4,88,-4764,22,-176,-71,67
574,-1899,-2,95,-4770,22,-181,-75,68
575,-1892,-1,92,-4768,22,-177,-74,72
576,-1892,3,98,-4768,22,-178,-77,73
577,-1893,1,94,-4765,22,-172,-75,69
578,-1891,0,92,-4769,22,-168,-74,63
579,-1894,0,95,-4765,22,-175,-86,71
580,-1890,-8,97,-4763,22,-177,-81,68
581,-1893,-3,106,-4765,22,-171,-79,66
582,-1894,-3,96,-4763,22,-173,-77,67
583,-1897,0,97,-4763,22,-176,-75,73
584,-1890,-3,97,-4763,22,-174,-73,71
585,-1897,-5,95,-4769,22,-177,-78,70
586,-1892,0,90,-4759,23,-177,-75,72
587,-1893,4,88,-4761,22,-180,-76,72
588,-1890,-4,87,-4755,23,-170,-76,70
589,-1894,-2,90,-4761,22,-172,-81,68
590,-1896,0,94,-4763,22,-175,-86,72
591,-1896,2,92,-4764,22,-172,-80,68
592,-1899,1,91,-4748,23,-171,-77,72
593,-1896,0,93,-4764,22,-172,-70,66
594,-1891,0,95,-4765,22,-171,-73,70
595,-1896,0,93,-4763,22,-173,-76,64
596,-1893,-3,90,-4764,22,-177,-76,72
597,-1891,-3,90,-4763,22,-174,-78,70
598,-1895,0,93,-4761,22,-180,-76,70
599,-1897,1,95,-4747,23,-173,-82,69
600,-1894,-2,98,-4760,22,-173,-84,68
601,-1895,-3,96,-4764,22,-174,-79,70
602,-1895,-1,90,-4755,23,-172,-79,71
603,-1890,-8,93,-4753,23,-177,-74,72
604,-1897,1,98,-4761,22,-176,-81,68
605,-1898,-3,89,-4764,22,-172,-78,68
606,-1897,-5,90,-4765,22,-170,-75,66
607,-1891,-8,87,-4753,23,-179,-76,68
608,-1895,-7,96,-4760,22,-172,-79,71
609,-1899,-4,94,-4750,23,-172,-82,67
610,-1893,-2,94,-4757,23,-172,-82,73
611,-1895,0,92,-4759,23,-173,-75,70
612,-1899,-6,90,-4756,23,-171,-74,71
613,-1899,-4,93,-4759,23,-177,-73,73
614,-1896,-3,85,-4749,23,-174,-75,70
615,-1896,0,89,-4758,23,-169,-76,67
616,-1897,-1,81,-4760,22,-174,-75,68
617,-1899,-6,91,-4769,22,-172,-77,65
618,-1896,-4,92,-4765,22,-173,-73,70
619,-1899,-5,94,-4757,23,-171,-78,76
620,-1896,0,96,-4758,23,-169,-77,70
621,-1898,-2,97,-4756,23,-173,-77,68
622,-1897,-2,92,-4765,22,-174,-77,67
623,-1902,-5,89,-4757,23,-172,-76,70
624,-1897,0,92,-4766,22,-177,-77,71
625,-1901,-1,87,-4754,23,-172,-73,70
626,-1894,3,91,-4765,22,-176,-80,72
627,-1896,-4,94,-4754,23,-177,-82,66
628,-1894,-9,101,-4768,22,-177,-75,66
629,-1890,-3,92,-4769,22,-173,-78,68
630,-1893,-2,93,-4766,22,-175,-71,70
631,-1900,2,90,-4759,23,-175,-79,68
632,-1893,-1,97,-4759,23,-172,-81,72
633,-1896,0,92,-4762,22,-174,-76,72
634,-1895,-3,89,-4772,22,-175,-78,73
635,-1891,-2,87,-4754,23,-173,-77,74
636,-1895,4,94,-4759,23,-172,-75,69
637,-1898,0,90,-4765,22,-176,-78,71
638,-1898,-4,92,-4760,22,-171,-80,69
639,-1896,4,94,-4764,22,-173,-77,76
640,-1890,0,96,-4763,22,-172,-81,66
641,-1892,-2,102,-4766,22,-170,-73,67
642,-1890,2,95,-4760,22,-179,-76,68
643,-1892,-1,89,-4754,23,-173,-74,67
644,-1893,-2,97,-4759,23,-173,-79,65
645,-1894,-2,83,-4760,22,-172,-80,75
646,-1894,-2,97,-4755,23,-179,-81,67
647,-1895,-4,95,-4759,23,-176,-71,67
648,-1895,-1,97,-4758,23,-175,-74,67
649,-1895,-3,87,-4758,23,-175,-80,70
650,-1890,0,83,-4757,23,-174,-77,67
651,-1897,4,104,-4761,22,-175,-76,70
652,-1898,-3,97,-4756,23,-175,-79,67
653,-1892,0,89,-4755,23,-175,-75,73
654,-1896,0,90,-4758,23,-176,-76,68
655,-1898,-4,93,-4760,22,-170,-78,72
656,-1894,-2,94,-4763,22,-177,-73,69
657,-1896,-5,97,-4759,23,-175,-75,69
658,-1895,-4,92,-4759,23,-177,-81,69
659,-1897,-2,86,-4757,23,-176,-77,67
660,-1895,-4,91,-4760,22,-170,-80,67
661,-1891,-3,93,-4761,22,-176,-75,67
662,-1899,-3,99,-4760,22,-178,-75,71
663,-1900,1,86,-4757,23,-177,-73,70
664,-1891,-1,93,-4757,23,-178,-78,76
665,-1895,0,92,-4759,23,-172,-72,66
666,-1899,-7,87,-4767,22,-172,-82,72
667,-1894,-6,88,-4765,22,-171,-77,70
668,-1893,-1,83,-4769,22,-175,-83,69
669,-1895,0,96,-4754,23,-176,-76,68
670,-1896,-4,101,-4758,23,-175,-74,74
671,-1899,-6,92,-4762,22,-176,-71,69
672,-1899,-1,89,-4758,23,-177,-73,69
673,-1898,1,92,-4755,23,-175,-77,65
674,-1897,-6,88,-4757,23,-174,-76,69
675,-1898,-5,101,-4755,23,-178,-79,68
676,-1893,2,98,-4758,23,-178,-78,69
677,-1892,-3,92,-4750,23,-174,-79,69
678,-1895,-2,84,-4752,23,-178,-75,68
679,-1892,-5,89,-4749,23,-178,-75,66
680,-1895,1,100,-4759,23,-179,-77,72
681,-1894,-5,94,-4758,23,-167,-80,72
682,-1895,2,95,-4762,22,-176,-74,70
683,-1897,-3,88,-4757,23,-177,-71,67
684,-1901,-4,94,-4758,23,-174,-70,67
685,-1894,1,91,-4763,22,-175,-75,65
686,-1892,-1,88,-4769,22,-172,-75,70
687,-1895,0,95,-4770,22,-170,-76,67
688,-1894,0,95,-4761,22,-169,-83,70
689,-1891,-2,92,-4755,23,-170,-73,70
690,-1893,-4,100,-4759,23,-171,-79,66
691,-1895,-4,94,-4751,23,-172,-78,67
692,-1892,-3,89,-4754,23,-179,-78,73
693,-1894,-2,90,-4756,23,-174,-73,71
694,-1893,-4,92,-4755,23,-175,-76,70
695,-1892,-2,93,-4761,22,-173,-75,73
696,-1890,0,90,-4760,22,-173,-81,71
697,-1894,-1,92,-4761,22,-173,-79,68
698,-1887,0,87,-4766,22,-171,-78,65
699,-1897,1,88,-4759,23,-176,-80,74
700,-1900,3,93,-4759,23,-174,-80,67
701,-1893,-2,94,-4758,23,-172,-80,71
702,-1891,-4,93,-4760,22,-174,-79,69
703,-1893,-3,86,-4757,23,-178,-78,77
704,-1892,1,96,-4755,23,-168,-76,70
705,-1896,-2,92,-4755,23,-174,-80,62
706,-1897,-4,93,-4760,22,-172,-75,71
707,-1893,-3,97,-4749,23,-173,-78,68
708,-1898,-4,94,-4752,23,-175,-79,71
709,-1896,0,97,-4760,22,-178,-77,71
710,-1897,3,92,-4767,22,-169,-82,71
711,-1896,0,87,-4766,22,-171,-76,72
712,-1894,-1,94,-4753,23,-173,-77,71
713,-1895,-6,89,-4754,23,-177,-80,67
714,-1895,-3,93,-4755,23,-174,-72,72
715,-1890,1,97,-4755,23,-172,-80,74
716,-1889,-3,89,-4753,23,-175,-72,71
717,-1895,1,103,-4754,23,-172,-73,66
718,-1892,0,96,-4764,22,-172,-77,67
719,-1896,1,91,-4755,23,-176,-78,70
720,-1899,2,97,-4767,22,-174,-78,70
721,-1897,-6,91,-4763,22,-173,-75,71
722,-1896,0,100,-4758,23,-173,-73,68
723,-1893,-4,92,-4760,22,-174,-73,73
724,-1895,-4,92,-4760,22,-178,-76,73
725,-1897,-4,89,-4758,23,-175,-76,72
726,-1890,-2,103,-4754,23,-172,-75,69
727,-1886,-1,94,-4751,23,-177,-75,70
728,-1892,0,90,-4753,23,-173,-77,69
729,-1891,0,96,-4755,23,-174,-75,68
730,-1889,4,87,-4747,23,-175,-76,68
731,-1897,1,93,-4753,23,-174,-77,66
732,-1899,-6,93,-4758,23,-176,-75,68
733,-1893,-3,97,-4751,23,-173,-76,70
734,-1896,-3,101,-4756,23,-173,-73,76
735,-1891,0,95,-4748,23,-175,-74,74
736,-1899,-4,95,-4754,23,-174,-80,74
737,-1896,3,96,-4761,22,-172,-78,70
738,-1896,-3,104,-4756,23,-175,-75,75
739,-1891,-3,95,-4761,22,-172,-80,72
740,-1896,0,97,-4758,23,-173,-80,72
741,-1889,-5,93,-4753,23,-171,-77,73
742,-1892,2,86,-4751,23,-174,-75,67
743,-1893,0,96,-4759,23,-176,-74,64
744,-1896,0,93,-4760,22,-178,-80,69
745,-1893,-3,95,-4755,23,-178,-81,67
746,-1891,-1,90,-4754,23,-170,-77,65
747,-1890,-6,91,-4757,23,-174,-74,70
748,-1894,0,92,-4758,23,-177,-79,71
749,-1896,-2,89,-4758,23,-176,-74,73
750,-1898,3,99,-4756,23,-177,-74,72
751,-1894,-3,94,-4753,23,-176,-73,68
752,-1891,-3,96,-4756,23,-173,-81,67
753,-1895,1,88,-4761,22,-173,-76,68
754,-1891,-5,87,-4750,23,-179,-74,69
755,-1892,-2,88,-4763,22,-176,-75,67
756,-1891,1,95,-4755,23,-178,-76,69
757,-1892,0,98,-4760,22,-177,-79,71
758,-1900,5,98,-4757,23,-178,-70,72
759,-1898,2,97,-4749,23,-170,-81,71
760,-1892,-4,96,-4746,23,-170,-79,67
761,-1895,1,100,-4754,23,-171,-75,67
762,-1895,-3,90,-4750,23,-172,-73,64
763,-1896,0,90,-4757,23,-177,-74,66
764,-1892,-5,94,-4749,23,-175,-78,66
765,-1893,2,89,-4751,23,-176,-82,69
766,-1894,2,97,-4750,23,-169,-76,71
767,-1899,-3,98,-4748,23,-174,-78,68
768,-1897,2,94,-4753,23,-176,-72,74
769,-1903,-4,92,-4754,23,-175,-79,73
770,-1898,1,99,-4744,23,-175,-78,67
771,-1893,-1,95,-4747,23,-173,-78,68
772,-1900,-3,94,-4755,23,-175,-80,69
773,-1896,-3,92,-4748,23,-170,-79,67
774,-1898,-2,92,-4749,23,-173,-77,67
775,-1894,-9,95,-4763,22,-179,-76,65
776,-1896,-6,92,-4755,23,-175,-79,67
777,-1899,2,94,-4754,23,-176,-78,69
778,-1899,1,95,-4750,23,-173,-81,67
779,-1891,-3,86,-4752,23,-174,-79,65
780,-1897,-2,93,-4757,23,-172,-80,67
781,-1888,0,93,-4754,23,-173,-74,69
782,-1893,-5,96,-4753,23,-176,-75,69
783,-1898,-6,94,-4751,23,-179,-75,67
784,-1896,2,88,-4760,22,-170,-77,63
785,-1893,1,99,-4755,23,-170,-79,70
786,-1897,-5,97,-4752,23,-173,-79,70
787,-1897,0,94,-4749,23,-175,-76,69
788,-1891,-2,95,-4748,23,-172,-79,68
789,-1895,-4,92,-4750,23,-171,-78,66
790,-1891,-4,100,-4753,23,-174,-78,68
791,-1898,2,94,-4753,23,-173,-76,72
792,-1898,-1,100,-4747,23,-172,-77,72
793,-1890,4,91,-4757,23,-174,-80,65
794,-1894,6,97,-4751,23,-175,-76,65
795,-1892,2,88,-4756,23,-177,-74,70
796,-1894,0,91,-4747,23,-175,-72,73
797,-1898,2,88,-4748,23,-170,-82,71
798,-1894,-4,93,-4756,23,-172,-78,71
799,-1898,1,85,-4752,23,-171,-79,68
800,-1895,-3,91,-4753,23,-177,-76,68
801,-1891,-8,102,-4756,23,-173,-76,71
802,-1894,6,93,-4752,23,-176,-74,70
803,-1893,-5,94,-4749,23,-179,-71,67
804,-1898,-7,96,-4750,23,-174,-77,66
805,-1896,-4,96,-4755,23,-175,-82,68
806,-1899,1,97,-4755,23,-175,-74,72
807,-1895,-7,91,-4751,23,-170,-77,68
808,-1895,2,82,-4751,23,-172,-74,71
809,-1888,2,93,-4749,23,-180,-79,68
810,-1896,2,90,-4753,23,-175,-81,73
811,-1895,-1,90,-4746,23,-173,-77,73
812,-1891,0,88,-4751,23,-170,-76,69
813,-1894,-4,93,-4743,23,-173,-75,70
814,-1896,-3,91,-4745,23,-169,-81,66
815,-1895,2,103,-4753,23,-175,-74,71
816,-1889,-1,104,-4751,23,-173,-76,70
817,-1894,-4,86,-4747,23,-180,-77,67
818,-1896,-3,96,-4744,23,-176,-78,64
819,-1898,-6,99,-4758,23,-174,-83,69
820,-1894,-4,101,-4751,23,-174,-79,70
821,-1887,-2,91,-4753,23,-176,-74,67
822,-1895,-6,97,-4745,23,-170,-76,74
823,-1895,-6,101,-4754,23,-173,-73,68
824,-1894,0,105,-4749,23,-176,-74,65
825,-1894,-2,96,-4747,23,-171,-82,70
826,-1898,-1,95,-4753,23,-170,-75,68
827,-1897,4,94,-4750,23,-176,-79,67
828,-1892,-2,91,-4753,23,-174,-74,71
829,-1890,-1,100,-4752,23,-172,-73,70
830,-1894,-2,101,-4751,23,-175,-76,68
831,-1893,-3,94,-4755,23,-174,-78,66
832,-1888,1,91,-4751,23,-177,-79,70
833,-1903,-5,95,-4754,23,-174,-79,74
834,-1897,-1,96,-4748,23,-175,-79,73
835,-1895,4,92,-4752,23,-175,-76,70
836,-1889,-5,93,-4750,23,-170,-74,69
837,-1892,-5,94,-4744,23,-174,-76,73
838,-1894,-2,91,-4747,23,-173,-78,69
839,-1890,0,98,-4740,23,-171,-80,69
840,-1894,0,97,-4750,23,-174,-75,67
841,-1902,-2,92,-4749,23,-169,-72,74
842,-1895,-2,90,-4746,23,-172,-73,67
843,-1892,-3,100,-4746,23,-176,-72,71
844,-1896,0,88,-4745,23,-172,-73,68
845,-1897,-1,93,-4747,23,-174,-79,70
846,-1897,1,93,-4752,23,-175,-81,70
847,-1891,-1,94,-4748,23,-170,-74,69
848,-1893,-6,90,-4751,23,-177,-75,70
849,-1895,-6,94,-4751,23,-173,-79,71
850,-1895,4,96,-4744,23,-175,-75,74
851,-1894,-2,93,-4753,23,-173,-74,67
852,-1893,3,84,-4748,23,-173,-74,67
853,-1893,-1,96,-4746,23,-177,-77,65
854,-1893,-5,97,-4750,23,-173,-75,68
855,-1901,-5,86,-4751,23,-172,-76,75
856,-1895,-3,90,-4747,23,-173,-82,69
857,-1894,3,89,-4750,23,-171,-77,66
858,-1899,-6,89,-4750,23,-177,-75,70
859,-1896,-2,94,-4745,23,-175,-77,67
860,-1905,1,84,-4741,23,-172,-80,72
861,-1898,-5,98,-4747,23,-171,-75,70
862,-1899,-2,91,-4743,23,-171,-75,72
863,-1896,0,91,-4744,23,-175,-74,66
864,-1897,-4,95,-4750,23,-171,-78,71
865,-1900,-2,100,-4750,23,-177,-83,67
866,-1896,-2,93,-4755,23,-174,-75,69
867,-1894,1,102,-4748,23,-173,-79,67
868,-1898,-10,102,-4745,23,-177,-78,67
869,-1895,2,95,-4752,23,-173,-75,62
870,-1896,2,93,-4752,23,-176,-75,65
871,-1898,-1,97,-4750,23,-174,-76,67
872,-1893,-1,92,-4750,23,-175,-78,66
873,-1897,-2,96,-4750,23,-175,-76,68
874,-1898,0,92,-4754,23,-172,-80,68
875,-1894,-6,100,-4752,23,-174,-71,71
876,-1896,-2,98,-4747,23,-174,-74,66
877,-1900,-1,91,-4745,23,-175,-78,70
878,-1889,-6,91,-4747,23,-165,-76,67
879,-1891,-4,90,-4753,23,-175,-76,70
880,-1894,-2,97,-4752,23,-173,-81,67
881,-1893,-5,93,-4752,23,-172,-80,64
882,-1899,1,92,-4746,23,-179,-78,72
883,-1897,1,91,-4745,23,-174,-75,76
884,-1893,1,86,-4754,23,-176,-64,71
885,-1897,1,92,-4751,23,-175,-74,72
886,-1897,-4,89,-4743,23,-169,-75,73
887,-1893,-4,90,-4741,23,-172,-76,71
888,-1891,-5,92,-4745,23,-176,-80,68
889,-1895,-1,91,-4752,23,-175,-76,72
890,-1891,3,91,-4747,23,-177,-79,67
891,-1891,-3,100,-4751,23,-174,-79,68
892,-1889,-6,95,-4745,23,-177,-75,70
893,-1892,2,91,-4750,23,-172,-72,69
894,-1896,-5,91,-4750,23,-173,-79,68
895,-1897,0,85,-4750,23,-176,-79,74
896,-1898,-5,92,-4750,23,-174,-79,71
897,-1898,-3,92,-4749,23,-178,-74,68
898,-1888,-1,85,-4752,23,-173,-78,69
899,-1894,-4,87,-4743,23,-171,-77,69
900,-1892,-4,89,-4757,23,-171,-80,70
901,-1891,-8,89,-4752,23,-174,-77,68
902,-1895,-7,93,-4742,23,-169,-73,68
903,-1893,-6,95,-4741,23,-173,-74,67
904,-1895,0,94,-4746,23,-176,-75,66
905,-1894,-7,89,-4752,23,-174,-79,71
906,-1889,-4,84,-4748,23,-175,-76,71
907,-1891,-3,84,-4742,23,-173,-71,66
908,-1896,-1,97,-4745,23,-176,-78,68
909,-1892,3,91,-4750,23,-178,-73,69
910,-1895,-12,100,-4754,23,-172,-76,63
911,-1891,-3,89,-4748,23,-174,-81,70
912,-1897,1,90,-4748,23,-177,-77,67
913,-1897,-2,87,-4743,23,-173,-73,74
914,-1894,-3,91,-4746,23,-178,-72,73
915,-1897,-1,87,-4744,23,-174,-76,72
916,-1897,-5,96,-4745,23,-174,-82,72
917,-1891,-6,95,-4743,23,-171,-77,65
918,-1892,-5,87,-4750,23,-175,-78,75
919,-1897,-4,89,-4743,23,-175,-77,67
920,-1902,4,95,-4741,23,-178,-76,71
921,-1894,1,94,-4755,23,-175,-76,68
922,-1891,2,97,-4749,23,-178,-73,71
923,-1900,1,88,-4751,23,-175,-71,70
924,-1893,-6,95,-4753,23,-170,-76,69
925,-1895,-1,97,-4744,23,-173,-77,66
926,-1893,1,95,-4750,23,-174,-73,69
927,-1898,-1,94,-4747,23,-174,-82,68
928,-1896,2,97,-4749,23,-178,-78,69
929,-1892,-1,94,-4740,23,-176,-79,72
930,-1897,-5,90,-4746,23,-178,-71,75
931,-1898,1,87,-4744,23,-175,-78,69
932,-1899,-2,92,-4742,23,-172,-79,66
933,-1898,-5,84,-4748,23,-174,-79,73
934,-1893,-4,95,-4745,23,-174,-75,69
935,-1889,-1,90,-4753,23,-176,-75,72
936,-1896,-1,101,-4752,23,-173,-75,69
937,-1891,-4,97,-4750,23,-170,-76,71
938,-1897,0,95,-4754,23,-173,-78,71
939,-1892,0,95,-4746,23,-172,-80,70
940,-1892,-4,96,-4754,23,-171,-78,72
941,-1896,-3,89,-4748,23,-173,-76,73
942,-1898,-1,96,-4746,23,-170,-73,70
943,-1896,-6,96,-4745,23,-171,-79,73
944,-1894,-3,95,-4744,23,-174,-79,72
945,-1896,-1,86,-4746,23,-174,-70,70
946,-1897,-4,99,-4743,23,-176,-71,72
947,-1901,0,98,-4744,23,-176,-76,71
948,-1900,0,93,-4750,23,-174,-77,75
949,-1896,-6,95,-4751,23,-173,-76,68
950,-1895,-6,80,-4745,23,-172,-73,65
951,-1897,-2,89,-4747,23,-171,-80,69
952,-1898,4,95,-4748,23,-172,-81,69
953,-1892,0,87,-4750,23,-174,-77,70
954,-1895,0,83,-4741,23,-171,-77,70
955,-1892,4,93,-4746,23,-173,-79,67
956,-1891,4,103,-4746,23,-168,-75,70
957,-1892,-2,88,-4747,23,-175,-77,71
958,-1895,6,90,-4738,23,-174,-76,71
959,-1893,0,101,-4753,23,-174,-77,69
960,-1894,-4,94,-4754,23,-174,-74,72
961,-1895,-4,97,-4745,23,-175,-80,73
962,-1903,-3,98,-4742,23,-173,-76,66
963,-1895,0,98,-4749,23,-171,-81,67
964,-1897,-4,93,-4743,23,-174,-80,68
965,-1895,-5,91,-4752,23,-172,-82,70
966,-1891,2,88,-4745,23,-173,-78,73
967,-1894,2,91,-4751,23,-174,-74,69
968,-1895,-4,86,-4743,23,-175,-74,65
969,-1895,-3,95,-4747,23,-175,-72,66
970,-1892,-1,83,-4747,23,-177,-74,67
971,-1894,-4,88,-4748,23,-172,-72,70
972,-1891,-7,93,-4754,23,-177,-78,69
973,-1897,-1,99,-4738,23,-174,-76,69
974,-1899,-1,91,-4736,23,-173,-69,68
975,-1896,3,88,-4744,23,-168,-75,65
976,-1894,4,96,-4745,23,-174,-74,64
977,-1892,-6,87,-4743,23,-174,-77,70
978,-1891,0,93,-4740,23,-173,-76,74
979,-1892,0,89,-4740,23,-168,-74,71
980,-1896,2,87,-4742,23,-174,-75,71
981,-1896,6,86,-4742,23,-177,-79,71
982,-1896,-4,94,-4744,23,-177,-79,74
983,-1900,-3,96,-4746,23,-174,-76,69
984,-1891,-3,91,-4742,23,-168,-75,69
985,-1894,3,94,-4740,23,-174,-75,72
986,-1895,-3,96,-4744,23,-172,-78,70
987,-1897,-1,95,-4740,23,-171,-75,72
988,-1896,-3,92,-4740,23,-173,-79,69
989,-1893,-2,92,-4747,23,-173,-76,70
990,-1893,-1,94,-4745,23,-175,-75,64
991,-1890,-5,96,-4741,23,-174,-78,68
992,-1892,-4,95,-4748,23,-172,-76,66
993,-1892,1,92,-4737,23,-170,-76,69
994,-1896,3,90,-4740,23,-174,-75,70
995,-1894,1,99,-4743,23,-174,-78,67
