,acc_X,acc_Y,acc_Z,temp,tempC,gyr_X,gyr_Y,gyr_Z
0,-7583,6,299,-4768,22,-44,-20,16
1,-7550,20,396,-4765,22,-42,-20,18
2,-7568,-5,377,-4771,22,-45,-19,16
3,-7577,4,370,-4775,22,-44,-20,17
4,-7576,0,391,-4768,22,-43,-19,17
5,-7582,2,356,-4782,22,-42,-19,16
6,-7575,-19,402,-4768,22,-44,-19,17
7,-7592,4,369,-4769,22,-44,-19,20
8,-7615,15,402,-4783,22,-43,-19,16
9,-7582,9,335,-4774,22,-45,-18,15
10,-7588,-5,329,-4783,22,-44,-20,17
11,-7571,18,346,-4770,22,-45,-19,19
12,-7594,0,412,-4774,22,-44,-20,16
13,-7592,-24,352,-4776,22,-44,-20,17
14,-7618,-3,323,-4773,22,-43,-20,15
15,-7578,-16,395,-4768,22,-45,-19,18
16,-7571,-16,346,-4781,22,-45,-17,18
17,-7560,-11,324,-4774,22,-42,-18,17
18,-7557,-26,352,-4780,22,-44,-19,17
19,-7527,-5,380,-4776,22,-44,-20,17
20,-7588,-8,358,-4773,22,-45,-18,17
21,-7579,-52,332,-4786,22,-44,-21,18
22,-7574,-18,344,-4786,22,-44,-18,16
23,-7572,-29,423,-4780,22,-43,-17,17
24,-7573,-20,437,-4773,22,-45,-21,15
25,-7569,-27,344,-4779,22,-43,-21,16
26,-7599,7,376,-4776,22,-43,-20,16
27,-7566,-14,387,-4787,22,-43,-21,16
28,-7559,-10,365,-4778,22,-43,-20,18
29,-7536,12,410,-4766,22,-45,-21,18
30,-7574,16,349,-4779,22,-43,-19,17
31,-7542,-11,423,-4763,22,-43,-21,15
32,-7606,-52,412,-4769,22,-44,-21,17
33,-7622,-11,374,-4786,22,-42,-21,17
34,-7613,30,453,-4777,22,-45,-20,17
35,-7595,5,414,-4773,22,-44,-20,17
36,-7636,-51,428,-4787,22,-44,-17,18
37,-7625,-2,410,-4791,22,-45,-18,18
38,-7566,-5,355,-4764,22,-43,-19,18
39,-7622,0,322,-4770,22,-44,-22,17
40,-7539,-45,330,-4770,22,-40,-19,17
41,-7584,-22,325,-4779,22,-44,-18,17
42,-7579,10,342,-4787,22,-45,-21,18
43,-7578,12,373,-4774,22,-45,-19,18
44,-7552,55,374,-4773,22,-44,-19,16
45,-7574,-38,452,-4774,22,-44,-21,16
46,-7589,-41,340,-4775,22,-43,-18,18
47,-7563,-23,404,-4770,22,-45,-20,17
48,-7538,-14,363,-4790,22,-44,-21,17
49,-7585,3,400,-4774,22,-43,-21,17
50,-7594,0,400,-4765,22,-42,-20,18
51,-7580,9,350,-4781,22,-44,-18,18
52,-7586,32,392,-4782,22,-43,-19,15
53,-7569,-15,387,-4776,22,-43,-21,18
54,-7547,12,398,-4764,22,-45,-22,15
55,-7529,-11,324,-4773,22,-45,-19,16
56,-7587,10,347,-4778,22,-43,-19,16
57,-7576,0,366,-4778,22,-43,-20,18
58,-7581,-30,321,-4789,22,-45,-20,17
59,-7568,23,408,-4779,22,-42,-22,18
60,-7565,-26,338,-4780,22,-44,-19,17
61,-7560,-11,274,-4783,22,-44,-22,15
62,-7558,-24,365,-4772,22,-45,-20,17
63,-7581,-18,363,-4785,22,-46,-21,17
64,-7592,-43,395,-4780,22,-43,-17,19
65,-7579,6,366,-4783,22,-44,-20,19
66,-7567,-19,359,-4772,22,-44,-20,15
67,-7576,-30,373,-4790,22,-40,-18,16
68,-7606,-14,442,-4780,22,-44,-19,17
69,-7543,18,346,-4778,22,-45,-20,16
70,-7560,7,364,-4787,22,-42,-20,18
71,-7568,2,417,-4763,22,-45,-18,18
72,-7610,17,406,-4787,22,-46,-23,17
73,-7569,8,368,-4770,22,-42,-22,17
74,-7605,26,437,-4781,22,-44,-19,18
75,-7565,-14,331,-4774,22,-43,-20,17
76,-7614,-6,384,-4781,22,-45,-18,18
77,-7575,1,310,-4760,22,-44,-20,18
78,-7550,26,324,-4786,22,-42,-19,18
79,-7612,-11,371,-4775,22,-44,-21,16
80,-7582,-12,375,-4770,22,-43,-20,16
81,-7597,-9,363,-4777,22,-44,-18,16
82,-7586,-37,357,-4784,22,-43,-19,15
83,-7540,14,377,-4786,22,-42,-20,17
84,-7520,-8,310,-4774,22,-44,-20,16
85,-7552,-5,362,-4776,22,-45,-20,16
86,-7540,22,359,-4771,22,-43,-21,18
87,-7589,22,342,-4782,22,-46,-19,17
88,-7628,1,327,-4772,22,-43,-17,16
89,-7592,-18,324,-4769,22,-43,-18,18
90,-7551,3,328,-4775,22,-42,-19,17
91,-7619,-4,375,-4783,22,-45,-20,18
92,-7549,-17,354,-4775,22,-44,-20,17
93,-7561,31,301,-4773,22,-44,-19,17
94,-7608,1,381,-4773,22,-43,-21,17
95,-7543,10,388,-4776,22,-45,-20,18
96,-7615,-28,379,-4763,22,-42,-21,16
97,-7549,7,360,-4767,22,-43,-19,16
98,-7584,-5,369,-4775,22,-44,-19,20
99,-7582,-22,408,-4780,22,-47,-19,16
100,-7579,54,381,-4774,22,-45,-18,17
101,-7569,2,354,-4766,22,-43,-21,18
102,-7598,-1,376,-4775,22,-44,-21,17
103,-7515,-40,364,-4755,23,-44,-20,16
104,-7580,-25,365,-4766,22,-45,-23,17
105,-7582,41,391,-4779,22,-45,-19,17
106,-7578,-23,412,-4766,22,-46,-19,18
107,-7588,66,319,-4773,22,-44,-18,19
108,-7604,2,368,-4775,22,-43,-21,16
109,-7592,9,354,-4783,22,-45,-20,17
110,-7578,7,325,-4782,22,-43,-21,15
111,-7544,11,324,-4774,22,-43,-19,18
112,-7542,27,364,-4754,23,-44,-19,16
113,-7600,31,340,-4774,22,-43,-19,16
114,-7558,-13,337,-4767,22,-46,-22,17
115,-7550,-13,368,-4769,22,-43,-21,16
116,-7615,-9,403,-4753,23,-45,-19,19
117,-7558,-23,387,-4766,22,-42,-19,17
118,-7547,-10,373,-4778,22,-43,-19,18
119,-7589,-59,386,-4779,22,-46,-20,16
120,-7601,18,382,-4766,22,-44,-19,17
121,-7600,-24,339,-4766,22,-44,-19,17
122,-7562,1,376,-4769,22,-45,-20,17
123,-7562,-19,369,-4795,22,-43,-20,17
124,-7588,-62,382,-4766,22,-44,-20,18
125,-7559,-15,403,-4787,22,-45,-22,17
126,-7572,-3,383,-4776,22,-45,-19,17
127,-7596,-25,355,-4765,22,-45,-19,16
128,-7556,-2,347,-4776,22,-43,-19,19
129,-7578,43,395,-4766,22,-43,-20,17
130,-7580,0,373,-4775,22,-42,-19,17
131,-7536,-20,357,-4770,22,-43,-20,19
132,-7562,21,369,-4767,22,-43,-20,17
133,-7581,-16,392,-4782,22,-44,-20,19
134,-7582,-3,381,-4775,22,-43,-20,20
135,-7557,1,411,-4772,22,-43,-21,15
136,-7602,28,332,-4774,22,-45,-19,19
137,-7614,-7,355,-4782,22,-43,-19,16
138,-7560,-10,353,-4775,22,-44,-19,17
139,-7560,18,328,-4776,22,-42,-18,16
140,-7575,-16,340,-4767,22,-43,-19,17
141,-7599,34,399,-4776,22,-43,-19,17
142,-7551,39,415,-4772,22,-44,-19,18
143,-7590,30,373,-4770,22,-44,-20,16
144,-7592,-4,416,-4779,22,-46,-18,17
145,-7562,30,408,-4770,22,-45,-21,15
146,-7539,-15,376,-4772,22,-44,-20,17
147,-7581,-1,326,-4780,22,-46,-19,16
148,-7572,-17,413,-4777,22,-47,-18,18
149,-7564,-30,387,-4763,22,-43,-19,16
150,-7563,14,380,-4782,22,-43,-17,17
151,-7601,9,394,-4773,22,-43,-19,15
152,-7577,-24,332,-4778,22,-46,-19,15
153,-7556,1,313,-4769,22,-44,-20,18
154,-7579,0,312,-4784,22,-42,-20,18
155,-7576,28,369,-4769,22,-42,-19,17
156,-7552,16,362,-4768,22,-44,-18,16
157,-7595,-14,333,-4777,22,-45,-19,16
158,-7549,-22,382,-4776,22,-44,-19,17
159,-7591,7,344,-4770,22,-44,-18,17
160,-7582,22,326,-4774,22,-44,-19,17
161,-7595,5,359,-4769,22,-45,-19,17
162,-7581,-7,341,-4778,22,-42,-18,16
163,-7592,-3,391,-4772,22,-46,-20,17
164,-7575,-22,364,-4777,22,-44,-20,15
165,-7567,2,380,-4766,22,-44,-21,18
166,-7563,14,356,-4776,22,-42,-20,18
167,-7579,36,334,-4766,22,-45,-19,17
168,-7568,13,304,-4782,22,-45,-19,19
169,-7623,-18,362,-4773,22,-43,-18,18
170,-7559,-35,361,-4776,22,-44,-19,15
171,-7583,-26,370,-4776,22,-41,-19,16
172,-7578,8,356,-4772,22,-44,-20,17
173,-7569,-2,365,-4758,23,-44,-22,14
174,-7587,-15,372,-4776,22,-45,-18,19
175,-7573,-25,353,-4773,22,-44,-19,17
176,-7585,-2,311,-4768,22,-43,-20,17
177,-7587,21,383,-4771,22,-44,-19,17
178,-7596,13,351,-4772,22,-44,-20,17
179,-7579,-3,356,-4778,22,-42,-20,16
180,-7570,16,379,-4769,22,-45,-21,17
181,-7568,31,373,-4764,22,-43,-20,19
182,-7590,-10,362,-4762,22,-46,-21,18
183,-7560,37,365,-4772,22,-45,-19,16
184,-7553,-32,351,-4780,22,-43,-21,17
185,-7586,-10,356,-4780,22,-43,-20,17
186,-7580,6,370,-4784,22,-44,-19,19
187,-7575,15,342,-4778,22,-46,-20,16
188,-7594,-51,351,-4769,22,-44,-17,17
189,-7619,-4,427,-4786,22,-43,-18,17
190,-7579,-17,433,-4772,22,-46,-19,15
191,-7577,-20,403,-4769,22,-44,-18,18
192,-7573,54,361,-4771,22,-41,-21,17
193,-7579,0,390,-4781,22,-44,-19,18
194,-7588,12,376,-4776,22,-46,-20,17
195,-7580,25,397,-4770,22,-44,-20,17
196,-7583,-8,296,-4777,22,-45,-20,18
197,-7589,-46,376,-4769,22,-42,-18,18
198,-7609,14,360,-4763,22,-41,-20,18
199,-7593,25,370,-4761,22,-45,-21,18
200,-7592,-17,365,-4766,22,-44,-21,16
201,-7576,-3,361,-4759,23,-43,-20,17
202,-7566,-72,365,-4774,22,-44,-18,19
203,-7602,14,398,-4758,23,-47,-17,17
204,-7588,15,386,-4769,22,-44,-18,17
205,-7582,-19,363,-4753,23,-44,-19,21
206,-7548,28,362,-4760,22,-44,-19,16
207,-7551,12,364,-4767,22,-45,-21,17
208,-7579,17,338,-4773,22,-43,-18,18
209,-7551,15,398,-4757,23,-42,-20,17
210,-7594,3,475,-4776,22,-43,-20,18
211,-7580,-31,389,-4769,22,-45,-18,18
212,-7593,-8,371,-4774,22,-42,-18,17
213,-7558,-7,371,-4775,22,-42,-17,18
214,-7600,-16,332,-4763,22,-44,-21,17
215,-7597,-16,432,-4766,22,-46,-19,17
216,-7557,-24,349,-4776,22,-43,-21,18
217,-7583,7,341,-4759,23,-46,-19,17
218,-7557,-14,327,-4777,22,-44,-22,16
219,-7534,11,393,-4778,22,-44,-21,18
220,-7562,19,351,-4782,22,-45,-19,18
221,-7545,-26,398,-4768,22,-44,-20,18
222,-7560,-7,365,-4768,22,-45,-19,17
223,-7565,-41,440,-4770,22,-45,-19,18
224,-7570,-34,366,-4769,22,-42,-18,16
225,-7577,30,333,-4767,22,-43,-20,17
226,-7569,-27,421,-4770,22,-42,-16,17
227,-7554,-3,366,-4773,22,-43,-20,17
228,-7549,-6,417,-4778,22,-43,-22,18
229,-7561,-14,361,-4785,22,-43,-19,17
230,-7557,-2,351,-4770,22,-44,-19,18
231,-7554,-36,337,-4767,22,-43,-21,18
232,-7564,18,364,-4776,22,-45,-20,14
233,-7574,-17,361,-4769,22,-41,-22,17
234,-7551,-38,355,-4761,22,-43,-21,18
235,-7596,-11,349,-4783,22,-42,-22,18
236,-7566,-14,343,-4756,23,-43,-18,16
237,-7551,-44,414,-4761,22,-44,-20,16
238,-7589,-24,352,-4777,22,-45,-19,17
239,-7558,-26,391,-4768,22,-44,-18,15
240,-7590,17,362,-4777,22,-44,-20,15
241,-7614,-15,388,-4777,22,-42,-21,19
242,-7537,32,400,-4772,22,-47,-20,19
243,-7576,-23,306,-4767,22,-45,-19,16
244,-7572,6,329,-4750,23,-43,-19,16
245,-7569,-18,400,-4765,22,-43,-22,17
246,-7583,43,437,-4766,22,-42,-20,16
247,-7572,2,403,-4766,22,-45,-20,17
248,-7584,-12,356,-4786,22,-44,-18,15
249,-7545,-13,440,-4766,22,-44,-19,16
250,-7549,5,406,-4768,22,-44,-20,15
251,-7518,2,348,-4772,22,-43,-20,17
252,-7595,-21,403,-4771,22,-43,-19,16
253,-7599,27,321,-4774,22,-42,-19,17
254,-7541,22,374,-4760,22,-42,-21,17
255,-7549,5,396,-4783,22,-43,-18,16
256,-7584,-9,319,-4778,22,-43,-20,17
257,-7592,-16,368,-4777,22,-45,-17,16
258,-7595,14,363,-4771,22,-44,-19,15
259,-7551,-19,389,-4770,22,-43,-22,18
260,-7526,-17,334,-4772,22,-44,-19,16
261,-7590,-40,388,-4776,22,-43,-18,16
262,-7555,-2,306,-4783,22,-43,-20,17
263,-7555,-46,325,-4771,22,-46,-19,16
264,-7607,5,338,-4778,22,-46,-19,18
265,-7606,27,380,-4765,22,-46,-19,15
266,-7572,-3,286,-4776,22,-46,-19,18
267,-7545,-4,352,-4766,22,-45,-19,17
268,-7590,-32,424,-4761,22,-45,-18,17
269,-7570,-35,312,-4773,22,-43,-15,17
270,-7594,-9,361,-4782,22,-45,-20,16
271,-7584,-64,386,-4776,22,-43,-21,17
272,-7561,-14,355,-4773,22,-43,-19,15
273,-7550,-50,355,-4771,22,-44,-20,15
274,-7568,21,406,-4758,23,-44,-21,18
275,-7565,26,362,-4767,22,-43,-22,15
276,-7539,-3,393,-4776,22,-44,-19,16
277,-7588,-17,361,-4776,22,-43,-20,19
278,-7555,-33,357,-4781,22,-46,-18,18
279,-7600,23,343,-4772,22,-43,-18,16
280,-7613,-12,354,-4766,22,-46,-21,16
281,-7613,-29,368,-4771,22,-44,-20,18
282,-7543,28,335,-4783,22,-42,-20,17
283,-7598,-17,396,-4773,22,-45,-19,16
284,-7608,18,414,-4763,22,-45,-20,16
285,-7579,-26,428,-4770,22,-44,-22,16
286,-7558,11,327,-4773,22,-42,-24,17
287,-7601,-26,406,-4763,22,-46,-19,17
288,-7563,-24,336,-4776,22,-44,-20,17
289,-7607,-37,366,-4761,22,-44,-20,18
290,-7594,-26,379,-4767,22,-43,-18,17
291,-7596,0,322,-4767,22,-44,-17,16
292,-7620,15,382,-4771,22,-44,-18,18
293,-7583,39,373,-4778,22,-44,-21,17
294,-7589,8,372,-4767,22,-44,-18,17
295,-7568,23,343,-4763,22,-45,-20,15
296,-7589,-7,355,-4772,22,-43,-19,19
297,-7579,4,416,-4771,22,-43,-19,18
298,-7556,-18,342,-4767,22,-42,-19,18
299,-7566,-52,382,-4766,22,-42,-21,17
300,-7578,-12,430,-4762,22,-42,-20,16
301,-7608,1,343,-4763,22,-44,-19,16
302,-7579,27,427,-4777,22,-45,-21,17
303,-7560,19,406,-4767,22,-43,-18,14
304,-7577,10,400,-4765,22,-41,-22,15
305,-7567,-9,355,-4768,22,-43,-21,15
306,-7580,-34,366,-4768,22,-46,-21,16
307,-7599,34,326,-4780,22,-42,-19,18
308,-7546,24,308,-4765,22,-44,-18,16
309,-7573,-3,345,-4768,22,-44,-19,18
310,-7641,-28,378,-4760,22,-42,-20,15
311,-7534,1,394,-4775,22,-43,-18,16
312,-7593,-18,376,-4772,22,-42,-19,17
313,-7585,-12,369,-4761,22,-44,-20,15
314,-7540,8,406,-4757,23,-44,-20,20
315,-7604,-61,416,-4768,22,-45,-20,16
316,-7523,-49,383,-4782,22,-42,-21,16
317,-7538,-54,360,-4772,22,-43,-20,15
318,-7605,-5,360,-4764,22,-45,-20,16
319,-7589,18,415,-4764,22,-45,-21,16
320,-7591,17,415,-4762,22,-42,-19,17
321,-7530,17,371,-4773,22,-43,-20,17
322,-7555,9,397,-4764,22,-45,-21,18
323,-7572,18,336,-4762,22,-44,-18,16
324,-7586,7,430,-4762,22,-43,-22,15
325,-7578,11,361,-4753,23,-41,-19,16
326,-7574,7,350,-4766,22,-43,-19,17
327,-7562,-16,387,-4770,22,-45,-19,17
328,-7585,6,324,-4796,22,-43,-22,18
329,-7573,1,294,-4764,22,-45,-19,15
330,-7537,61,412,-4780,22,-45,-17,16
331,-7559,-2,318,-4779,22,-44,-18,17
332,-7582,-24,416,-4755,23,-42,-24,16
333,-7587,17,404,-4768,22,-41,-20,19
334,-7598,17,370,-4776,22,-46,-18,16
335,-7594,-12,360,-4775,22,-44,-21,18
336,-7529,-52,385,-4766,22,-42,-19,18
337,-7547,18,346,-4774,22,-44,-21,17
338,-7587,20,405,-4769,22,-43,-20,17
339,-7528,-21,358,-4748,23,-45,-20,19
340,-7576,14,360,-4775,22,-45,-20,17
341,-7569,12,372,-4769,22,-42,-17,16
342,-7574,15,402,-4771,22,-43,-17,16
343,-7571,32,415,-4771,22,-45,-17,17
344,-7564,-51,412,-4783,22,-44,-21,16
345,-7595,-9,335,-4768,22,-44,-20,17
346,-7564,-24,387,-4781,22,-49,-20,18
347,-7586,-9,359,-4764,22,-43,-19,16
348,-7570,11,300,-4774,22,-44,-18,16
349,-7599,-49,380,-4769,22,-43,-20,17
350,-7572,-4,375,-4770,22,-44,-21,16
351,-7597,-38,330,-4780,22,-43,-20,19
352,-7593,-43,364,-4776,22,-44,-18,15
353,-7579,-1,376,-4764,22,-43,-19,17
354,-7574,-12,384,-4766,22,-41,-20,18
355,-7581,-20,379,-4761,22,-43,-18,16
356,-7579,-34,388,-4764,22,-44,-20,18
357,-7597,40,434,-4763,22,-44,-21,17
358,-7540,8,380,-4774,22,-44,-21,16
359,-7596,-2,318,-4774,22,-43,-21,18
360,-7565,-30,393,-4767,22,-43,-21,17
361,-7586,16,423,-4770,22,-41,-18,17
362,-7575,-1,378,-4772,22,-45,-19,18
363,-7596,-9,427,-4766,22,-43,-20,16
364,-7565,-11,359,-4770,22,-42,-19,19
365,-7577,11,378,-4765,22,-44,-20,18
366,-7567,12,415,-4765,22,-43,-17,17
367,-7606,-34,379,-4771,22,-45,-20,17
368,-7561,35,342,-4784,22,-42,-19,19
369,-7586,50,381,-4758,23,-45,-19,18
370,-7554,11,355,-4777,22,-46,-21,17
371,-7574,9,350,-4766,22,-46,-20,16
372,-7575,-3,413,-4766,22,-44,-21,18
373,-7580,21,390,-4765,22,-43,-21,16
374,-7579,-16,394,-4773,22,-43,-16,16
375,-7557,12,306,-4780,22,-41,-21,18
376,-7539,-36,366,-4765,22,-45,-20,16
377,-7555,-24,393,-4772,22,-43,-18,16
378,-7595,12,356,-4755,23,-45,-20,17
379,-7565,-23,357,-4777,22,-43,-22,17
380,-7601,-24,384,-4781,22,-41,-18,18
381,-7599,-25,365,-4778,22,-44,-20,18
382,-7607,-27,396,-4764,22,-44,-18,17
383,-7546,-54,374,-4775,22,-45,-19,15
384,-7533,-40,374,-4767,22,-43,-19,18
385,-7534,-9,385,-4765,22,-43,-21,18
386,-7569,-25,369,-4757,23,-44,-18,16
387,-7566,-16,359,-4756,23,-41,-20,17
388,-7572,-13,422,-4766,22,-44,-17,18
389,-7611,-3,353,-4763,22,-43,-17,16
390,-7543,1,371,-4766,22,-44,-18,16
391,-7577,-2,348,-4765,22,-44,-21,17
392,-7568,-48,320,-4771,22,-44,-20,18
393,-7567,23,369,-4768,22,-44,-20,15
394,-7598,-28,316,-4768,22,-44,-19,15
395,-7571,-6,355,-4766,22,-46,-19,17
396,-7589,-34,342,-4775,22,-42,-18,16
397,-7590,19,350,-4761,22,-43,-20,15
398,-7563,-27,389,-4770,22,-45,-22,16
399,-7577,-7,421,-4762,22,-44,-19,18
400,-7546,-44,365,-4771,22,-42,-18,18
401,-7539,23,423,-4776,22,-43,-19,18
402,-7580,21,438,-4757,23,-43,-18,19
403,-7563,25,407,-4775,22,-43,-20,19
404,-7620,-16,397,-4762,22,-42,-19,15
405,-7589,-25,339,-4759,23,-43,-19,16
406,-7586,11,408,-4768,22,-41,-21,17
407,-7566,16,405,-4760,22,-43,-21,16
408,-7595,3,352,-4769,22,-43,-21,18
409,-7557,-8,437,-4767,22,-43,-22,16
410,-7558,34,341,-4770,22,-45,-22,18
411,-7543,-13,370,-4771,22,-44,-18,19
412,-7593,9,355,-4754,23,-43,-20,18
413,-7586,23,358,-4773,22,-43,-20,18
414,-7595,-1,352,-4776,22,-43,-19,16
415,-7565,-35,389,-4775,22,-43,-17,16
416,-7549,-38,404,-4757,23,-42,-19,18
417,-7574,5,383,-4763,22,-46,-21,16
418,-7589,25,372,-4771,22,-43,-22,17
419,-7561,-22,371,-4778,22,-45,-21,17
420,-7610,-19,411,-4779,22,-44,-21,16
421,-7553,11,382,-4757,23,-46,-19,15
422,-7599,-21,414,-4769,22,-45,-20,19
423,-7547,-5,395,-4763,22,-44,-20,16
424,-7577,-11,400,-4773,22,-43,-17,18
425,-7556,20,397,-4773,22,-43,-21,17
426,-7566,29,355,-4779,22,-42,-19,14
427,-7558,-8,369,-4762,22,-44,-20,17
428,-7590,-23,345,-4766,22,-46,-18,16
429,-7598,13,367,-4758,23,-44,-20,17
430,-7627,14,391,-4773,22,-44,-20,16
431,-7582,-47,324,-4764,22,-43,-18,17
432,-7610,-44,340,-4773,22,-44,-19,17
433,-7585,-27,436,-4764,22,-43,-18,17
434,-7578,16,313,-4768,22,-43,-21,16
435,-7578,-36,349,-4766,22,-45,-21,16
436,-7608,-1,369,-4768,22,-44,-21,17
437,-7614,-2,414,-4751,23,-45,-20,18
438,-7622,-31,390,-4767,22,-45,-21,16
439,-7552,-6,371,-4775,22,-42,-19,17
440,-7564,-4,373,-4768,22,-43,-19,18
441,-7572,28,355,-4779,22,-42,-21,19
442,-7573,-27,380,-4760,22,-45,-20,18
443,-7569,14,438,-4775,22,-45,-20,17
444,-7552,-32,437,-4769,22,-47,-19,17
445,-7593,-29,373,-4779,22,-45,-21,19
446,-7563,1,347,-4771,22,-46,-20,17
447,-7606,0,319,-4772,22,-42,-19,17
448,-7605,-37,418,-4766,22,-45,-21,16
449,-7563,-52,383,-4756,23,-44,-20,19
450,-7580,5,370,-4769,22,-43,-19,16
451,-7542,4,436,-4772,22,-43,-21,16
452,-7572,-29,341,-4762,22,-44,-21,18
453,-7608,4,336,-4777,22,-45,-20,18
454,-7556,11,316,-4773,22,-43,-21,19
455,-7567,-21,442,-4752,23,-43,-19,16
456,-7612,6,421,-4773,22,-44,-21,14
457,-7561,-44,368,-4782,22,-44,-18,16
458,-7592,-17,361,-4768,22,-44,-20,15
459,-7584,5,400,-4767,22,-44,-23,16
460,-7550,-50,336,-4775,22,-45,-19,16
461,-7578,-38,382,-4761,22,-44,-20,18
462,-7603,-10,403,-4754,23,-43,-20,17
463,-7600,-52,376,-4770,22,-44,-20,17
464,-7565,-8,407,-4771,22,-43,-19,18
465,-7583,-5,427,-4771,22,-44,-20,16
466,-7580,-16,297,-4769,22,-44,-19,19
467,-7594,-5,343,-4763,22,-46,-21,15
468,-7615,0,359,-4767,22,-43,-22,15
469,-7577,22,427,-4761,22,-44,-19,16
470,-7580,-8,325,-4754,23,-44,-18,13
471,-7578,-27,367,-4765,22,-46,-21,16
472,-7550,1,401,-4773,22,-44,-20,19
473,-7572,-26,351,-4774,22,-41,-19,16
474,-7566,-41,335,-4757,23,-45,-19,16
475,-7612,29,377,-4776,22,-44,-19,16
476,-7558,10,332,-4775,22,-44,-20,18
477,-7576,26,450,-4771,22,-44,-20,17
478,-7578,-1,346,-4771,22,-43,-20,20
479,-7570,-7,378,-4767,22,-45,-19,17
480,-7571,-8,374,-4764,22,-43,-20,16
481,-7551,-37,368,-4767,22,-44,-17,16
482,-7581,1,409,-4759,23,-44,-21,17
483,-7549,-33,404,-4777,22,-44,-19,17
484,-7554,-1,354,-4772,22,-43,-20,17
485,-7579,-57,371,-4763,22,-43,-22,16
486,-7591,28,349,-4773,22,-45,-19,17
487,-7579,16,402,-4787,22,-44,-21,18
488,-7548,9,372,-4775,22,-45,-18,16
489,-7595,-20,355,-4756,23,-41,-21,16
490,-7585,-36,391,-4748,23,-44,-21,17
491,-7591,-16,346,-4767,22,-40,-19,17
492,-7548,-6,373,-4768,22,-42,-19,18
493,-7573,-17,398,-4765,22,-44,-20,16
494,-7596,40,327,-4762,22,-42,-18,16
495,-7569,9,310,-4768,22,-44,-19,17
496,-7539,-18,365,-4784,22,-45,-18,16
497,-7603,-20,377,-4761,22,-44,-18,16
498,-7562,9,314,-4782,22,-45,-19,19
499,-7567,-9,385,-4759,23,-42,-18,16
500,-7592,-13,365,-4754,23,-44,-20,18
501,-7573,-2,320,-4785,22,-42,-23,16
502,-7601,-31,369,-4764,22,-45,-17,17
503,-7591,15,357,-4774,22,-45,-20,18
504,-7563,17,303,-4769,22,-45,-18,17
505,-7601,-19,370,-4758,23,-44,-19,17
506,-7608,9,370,-4777,22,-44,-19,17
507,-7566,-41,345,-4754,23,-45,-21,17
508,-7572,11,405,-4762,22,-44,-19,17
509,-7572,-8,394,-4776,22,-44,-21,16
510,-7567,-19,368,-4771,22,-42,-20,17
511,-7544,-13,370,-4754,23,-44,-21,17
512,-7569,-40,409,-4766,22,-45,-20,17
513,-7567,31,308,-4757,23,-46,-19,16
514,-7559,-36,414,-4780,22,-44,-19,16
515,-7582,-4,388,-4762,22,-45,-21,17
516,-7562,11,363,-4772,22,-42,-17,18
517,-7546,-24,345,-4784,22,-44,-22,15
518,-7583,-27,381,-4766,22,-44,-20,17
519,-7549,32,376,-4769,22,-42,-21,17
520,-7537,-3,415,-4769,22,-44,-19,15
521,-7586,3,372,-4761,22,-43,-20,17
522,-7586,-16,326,-4772,22,-41,-21,17
523,-7596,20,275,-4773,22,-44,-22,18
524,-7557,-8,334,-4774,22,-44,-20,17
525,-7607,-36,355,-4777,22,-43,-20,17
526,-7581,4,370,-4771,22,-44,-22,15
527,-7580,-4,371,-4776,22,-41,-19,16
528,-7609,-10,377,-4764,22,-43,-20,15
529,-7609,-3,354,-4778,22,-43,-20,19
530,-7558,-32,365,-4751,23,-43,-20,18
531,-7582,1,362,-4757,23,-46,-18,15
532,-7562,-8,405,-4762,22,-44,-22,18
533,-7602,-36,375,-4765,22,-45,-19,18
534,-7575,14,304,-4766,22,-44,-23,17
535,-7564,6,397,-4781,22,-43,-19,18
536,-7572,20,375,-4767,22,-43,-20,17
537,-7632,-20,373,-4751,23,-43,-18,16
538,-7538,19,348,-4760,22,-45,-18,17
539,-7585,-6,387,-4759,23,-42,-19,16
540,-7567,-9,400,-4766,22,-45,-19,19
541,-7577,-1,436,-4777,22,-45,-19,16
542,-7601,-3,385,-4762,22,-44,-20,18
543,-7567,9,383,-4763,22,-45,-20,16
544,-7597,-2,381,-4784,22,-44,-19,17
545,-7600,6,368,-4772,22,-43,-20,16
546,-7552,13,408,-4755,23,-44,-18,16
547,-7563,-34,437,-4767,22,-42,-21,17
548,-7559,-32,421,-4767,22,-44,-21,17
549,-7557,-23,377,-4766,22,-46,-21,17
550,-7572,7,389,-4753,23,-44,-23,18
551,-7575,-14,423,-4760,22,-44,-20,18
552,-7549,-20,393,-4760,22,-43,-19,17
553,-7552,-17,394,-4760,22,-45,-16,18
554,-7543,-47,393,-4767,22,-44,-20,17
555,-7588,-26,385,-4754,23,-44,-18,16
556,-7589,5,392,-4746,23,-45,-19,19
557,-7550,19,374,-4765,22,-42,-22,16
558,-7581,-33,360,-4774,22,-44,-22,16
559,-7544,12,345,-4761,22,-43,-21,18
560,-7569,16,320,-4770,22,-43,-21,18
561,-7556,28,355,-4761,22,-44,-20,18
562,-7619,-7,399,-4767,22,-44,-20,17
563,-7551,34,426,-4762,22,-43,-22,17
564,-7599,29,449,-4771,22,-43,-22,16
565,-7611,7,393,-4765,22,-45,-21,16
566,-7594,-34,392,-4762,22,-43,-19,16
567,-7579,23,405,-4772,22,-44,-19,17
568,-7592,44,410,-4755,23,-44,-18,18
569,-7574,-12,317,-4755,23,-42,-20,14
570,-7577,-40,389,-4745,23,-42,-20,16
571,-7552,-16,383,-4759,23,-41,-20,17
572,-7576,2,338,-4765,22,-42,-19,17
573,-7581,-32,416,-4766,22,-44,-19,18
574,-7594,0,346,-4767,22,-43,-18,17
575,-7554,-31,404,-4763,22,-44,-22,18
576,-7566,-33,394,-4767,22,-44,-19,18
577,-7538,8,428,-4759,23,-43,-22,18
578,-7589,-13,361,-4761,22,-44,-20,15
579,-7533,-19,343,-4763,22,-43,-20,18
580,-7615,-30,340,-4753,23,-44,-21,17
581,-7586,5,391,-4772,22,-43,-19,17
582,-7597,-6,430,-4764,22,-44,-19,18
583,-7583,-16,414,-4763,22,-43,-20,15
584,-7571,-28,391,-4766,22,-43,-20,17
585,-7574,-7,374,-4765,22,-41,-20,18
586,-7543,31,432,-4775,22,-45,-19,17
587,-7585,16,338,-4760,22,-45,-18,17
588,-7584,-8,437,-4764,22,-42,-20,15
589,-7616,-14,411,-4751,23,-44,-21,18
590,-7567,30,363,-4759,23,-45,-20,17
591,-7549,22,370,-4757,23,-43,-22,19
592,-7605,26,331,-4759,23,-44,-22,18
593,-7560,-7,370,-4775,22,-45,-20,18
594,-7509,4,370,-4755,23,-43,-21,15
595,-7593,-3,390,-4761,22,-45,-19,18
596,-7592,27,324,-4752,23,-45,-20,17
597,-7551,-8,323,-4771,22,-44,-21,16
598,-7589,0,309,-4760,22,-43,-21,16
599,-7547,-8,382,-4753,23,-46,-22,17
600,-7582,-41,413,-4769,22,-40,-19,16
601,-7583,-53,350,-4766,22,-45,-20,19
602,-7616,25,319,-4768,22,-44,-20,18
603,-7573,-52,375,-4774,22,-45,-17,19
604,-7568,1,416,-4757,23,-43,-19,16
605,-7564,2,404,-4782,22,-45,-21,17
606,-7582,-20,314,-4753,23,-45,-19,15
607,-7562,-33,380,-4766,22,-47,-20,14
608,-7542,37,371,-4766,22,-46,-19,18
609,-7555,-51,371,-4756,23,-45,-17,17
610,-7574,-12,392,-4761,22,-43,-19,17
611,-7593,-7,352,-4752,23,-45,-19,16
612,-7589,-18,342,-4741,23,-45,-20,16
613,-7612,-28,423,-4771,22,-44,-19,16
614,-7576,-52,385,-4769,22,-45,-20,18
615,-7600,-3,341,-4755,23,-43,-23,18
616,-7591,-42,336,-4766,22,-42,-18,17
617,-7595,13,365,-4762,22,-44,-20,15
618,-7605,-62,410,-4767,22,-42,-20,18
619,-7560,-26,400,-4780,22,-43,-21,14
620,-7600,-2,336,-4766,22,-44,-19,17
621,-7588,-18,378,-4776,22,-41,-19,15
622,-7575,2,335,-4761,22,-44,-18,16
623,-7574,-17,353,-4767,22,-45,-20,17
624,-7610,-19,431,-4759,23,-46,-20,17
625,-7548,-12,371,-4756,23,-45,-20,16
626,-7581,-19,324,-4768,22,-44,-19,19
627,-7582,-10,363,-4774,22,-43,-20,17
628,-7597,-8,351,-4771,22,-44,-18,16
629,-7603,21,320,-4757,23,-45,-19,17
630,-7569,11,408,-4766,22,-45,-17,16
631,-7577,3,428,-4774,22,-43,-20,17
632,-7588,-22,337,-4771,22,-45,-18,18
633,-7556,29,410,-4767,22,-43,-18,19
634,-7555,12,428,-4769,22,-45,-21,18
635,-7559,-4,383,-4761,22,-43,-19,16
636,-7558,-12,403,-4772,22,-42,-21,18
637,-7577,6,355,-4762,22,-43,-20,19
638,-7560,-15,390,-4771,22,-43,-19,17
639,-7600,-10,360,-4755,23,-44,-19,15
640,-7590,-3,438,-4761,22,-44,-20,15
641,-7594,17,288,-4769,22,-42,-18,17
642,-7582,-34,400,-4758,23,-43,-20,19
643,-7607,-18,320,-4770,22,-44,-20,16
644,-7569,-14,345,-4767,22,-42,-21,17
645,-7605,-37,396,-4763,22,-46,-21,16
646,-7559,-9,391,-4764,22,-44,-18,18
647,-7588,14,362,-4766,22,-43,-18,16
648,-7574,9,367,-4765,22,-45,-16,17
649,-7571,3,394,-4767,22,-45,-19,18
650,-7545,17,389,-4761,22,-44,-20,16
651,-7572,-3,334,-4765,22,-43,-20,17
652,-7566,14,379,-4780,22,-45,-21,16
653,-7575,-50,388,-4758,23,-42,-20,17
654,-7567,5,337,-4753,23,-42,-21,16
655,-7579,6,335,-4771,22,-46,-20,18
656,-7584,2,337,-4754,23,-41,-19,17
657,-7592,-22,410,-4754,23,-43,-19,16
658,-7586,7,422,-4772,22,-43,-20,20
659,-7609,-38,353,-4754,23,-44,-20,17
660,-7586,-1,347,-4769,22,-42,-19,19
661,-7579,22,412,-4757,23,-42,-21,17
662,-7560,-35,337,-4764,22,-46,-19,17
663,-7586,4,357,-4771,22,-41,-20,18
664,-7571,27,322,-4760,22,-44,-19,19
665,-7580,12,424,-4760,22,-44,-21,16
666,-7576,9,372,-4762,22,-44,-19,14
667,-7569,-2,349,-4764,22,-46,-18,19
668,-7581,26,338,-4767,22,-45,-18,18
669,-7573,5,305,-4763,22,-44,-22,19
670,-7592,21,337,-4773,22,-45,-17,17
671,-7583,10,368,-4749,23,-45,-20,16
672,-7591,-15,383,-4765,22,-44,-20,14
673,-7579,31,326,-4761,22,-44,-21,16
674,-7580,-31,407,-4768,22,-42,-20,16
675,-7543,11,354,-4769,22,-46,-22,16
676,-7556,-9,393,-4768,22,-44,-20,17
677,-7588,-32,435,-4776,22,-45,-21,15
678,-7597,-2,357,-4752,23,-42,-18,16
679,-7573,2,350,-4770,22,-45,-21,17
680,-7570,-28,378,-4765,22,-45,-18,17
681,-7611,-25,371,-4761,22,-45,-19,16
682,-7559,-6,380,-4758,23,-44,-18,18
683,-7582,-27,349,-4769,22,-43,-21,18
684,-7590,-50,353,-4757,23,-43,-20,17
685,-7576,-15,372,-4757,23,-47,-20,19
686,-7545,4,361,-4767,22,-44,-19,16
687,-7575,-12,365,-4766,22,-45,-18,18
688,-7551,-64,354,-4760,22,-45,-19,18
689,-7580,-34,418,-4761,22,-43,-20,18
690,-7546,-22,367,-4766,22,-44,-19,15
691,-7568,19,357,-4770,22,-43,-21,17
692,-7540,17,361,-4764,22,-42,-20,17
693,-7607,12,385,-4771,22,-44,-22,16
694,-7598,-15,380,-4760,22,-45,-20,15
695,-7612,10,382,-4771,22,-45,-18,15
696,-7560,4,334,-4751,23,-42,-20,18
697,-7585,-21,322,-4763,22,-43,-20,17
698,-7599,9,345,-4760,22,-45,-20,19
699,-7549,-10,390,-4763,22,-43,-18,18
700,-7580,-1,377,-4755,23,-44,-19,18
701,-7590,-12,339,-4757,23,-43,-20,18
702,-7563,14,350,-4761,22,-42,-20,17
703,-7586,-14,365,-4760,22,-45,-20,17
704,-7556,36,365,-4769,22,-42,-21,17
705,-7556,-37,341,-4756,23,-44,-18,19
706,-7610,1,354,-4767,22,-43,-20,16
707,-7566,-26,324,-4760,22,-41,-21,18
708,-7575,-11,405,-4761,22,-42,-20,16
709,-7568,-6,327,-4760,22,-41,-20,18
710,-7570,24,413,-4753,23,-42,-18,18
711,-7572,-24,326,-4768,22,-42,-19,17
712,-7552,-14,349,-4777,22,-45,-20,16
713,-7587,-12,326,-4769,22,-43,-19,16
714,-7576,-21,385,-4760,22,-41,-23,17
715,-7620,22,363,-4760,22,-44,-21,17
716,-7629,-41,416,-4768,22,-43,-22,14
717,-7580,3,405,-4765,22,-44,-20,17
718,-7548,-11,390,-4773,22,-42,-20,16
719,-7617,-3,348,-4770,22,-44,-21,19
720,-7556,32,380,-4757,23,-45,-18,18
721,-7580,-27,298,-4742,23,-43,-19,17
722,-7568,9,412,-4767,22,-43,-20,19
723,-7623,21,423,-4760,22,-42,-19,17
724,-7587,-15,331,-4763,22,-45,-20,18
725,-7570,-1,357,-4762,22,-44,-18,17
726,-7586,17,433,-4762,22,-42,-19,18
727,-7596,-29,365,-4780,22,-43,-21,17
728,-7578,27,378,-4757,23,-43,-19,16
729,-7600,-6,385,-4747,23,-44,-20,15
730,-7585,-10,307,-4767,22,-44,-19,15
731,-7582,-26,394,-4771,22,-47,-18,16
732,-7597,2,439,-4744,23,-43,-21,17
733,-7542,32,401,-4757,23,-43,-20,17
734,-7558,-7,332,-4758,23,-43,-22,17
735,-7585,-24,401,-4760,22,-44,-20,16
736,-7586,9,354,-4759,23,-44,-20,17
737,-7547,-36,410,-4748,23,-43,-20,17
738,-7557,14,422,-4766,22,-44,-18,16
739,-7554,5,344,-4760,22,-42,-19,18
740,-7551,-32,393,-4761,22,-45,-20,19
741,-7581,11,349,-4761,22,-44,-19,16
742,-7590,-7,366,-4758,23,-44,-19,16
743,-7575,-34,346,-4768,22,-45,-21,16
744,-7605,-19,430,-4761,22,-44,-18,16
745,-7564,18,338,-4748,23,-44,-22,17
746,-7559,-13,333,-4758,23,-44,-19,17
747,-7586,-22,311,-4765,22,-44,-20,18
748,-7584,-7,409,-4747,23,-44,-21,18
749,-7584,16,380,-4755,23,-45,-19,17
750,-7559,-6,399,-4768,22,-46,-18,15
751,-7614,-7,333,-4762,22,-43,-20,19
752,-7582,-17,401,-4750,23,-42,-18,18
753,-7554,0,388,-4763,22,-44,-20,15
754,-7609,-35,377,-4753,23,-43,-22,16
755,-7530,14,409,-4757,23,-44,-18,16
756,-7557,-36,349,-4750,23,-43,-21,19
757,-7575,-22,369,-4766,22,-43,-20,19
758,-7559,-51,328,-4766,22,-44,-20,15
759,-7590,-27,377,-4756,23,-45,-21,16
760,-7587,5,365,-4757,23,-44,-18,16
761,-7580,-53,407,-4760,22,-43,-19,16
762,-7576,-4,395,-4762,22,-45,-20,18
763,-7570,28,370,-4765,22,-44,-21,16
764,-7549,1,368,-4750,23,-45,-21,16
765,-7583,-23,408,-4759,23,-44,-18,18
766,-7559,-15,347,-4764,22,-42,-19,17
767,-7600,-4,317,-4764,22,-44,-19,18
768,-7600,-2,395,-4757,23,-44,-17,18
769,-7611,13,384,-4763,22,-43,-19,16
770,-7579,-30,405,-4768,22,-42,-21,16
771,-7579,-4,332,-4754,23,-43,-19,18
772,-7589,15,334,-4760,22,-44,-18,16
773,-7575,-3,413,-4762,22,-45,-20,17
774,-7572,-23,399,-4766,22,-43,-22,18
775,-7581,6,350,-4751,23,-43,-18,17
776,-7600,-20,367,-4756,23,-44,-20,16
777,-7594,-9,343,-4759,23,-43,-20,17
778,-7592,-7,371,-4765,22,-43,-17,17
779,-7548,-14,353,-4761,22,-41,-19,16
780,-7561,-31,389,-4756,23,-43,-23,18
781,-7585,-5,386,-4758,23,-44,-20,17
782,-7551,-19,365,-4762,22,-47,-19,17
783,-7542,-7,351,-4761,22,-43,-19,17
784,-7544,-25,465,-4752,23,-44,-20,18
785,-7566,-17,405,-4755,23,-44,-19,17
786,-7542,-28,408,-4765,22,-46,-21,16
787,-7574,17,361,-4772,22,-43,-19,14
788,-7581,-24,376,-4748,23,-44,-19,16
789,-7600,-5,364,-4759,23,-44,-21,16
790,-7567,12,428,-4744,23,-43,-19,18
791,-7542,-23,422,-4774,22,-46,-19,17
792,-7543,-61,402,-4769,22,-44,-21,17
793,-7559,49,388,-4762,22,-46,-20,17
794,-7591,10,370,-4767,22,-43,-21,17
795,-7607,-32,355,-4764,22,-44,-18,17
796,-7572,-26,393,-4769,22,-44,-19,18
797,-7530,5,369,-4772,22,-42,-19,18
798,-7589,-5,374,-4759,23,-44,-18,18
799,-7582,-22,391,-4766,22,-43,-21,15
800,-7553,-20,353,-4756,23,-44,-20,16
801,-7584,-30,350,-4771,22,-44,-21,18
802,-7615,6,419,-4762,22,-43,-20,16
803,-7546,-1,403,-4770,22,-43,-19,17
804,-7548,-48,366,-4761,22,-43,-20,16
805,-7637,-18,397,-4762,22,-45,-20,18
806,-7578,8,392,-4761,22,-44,-21,18
807,-7596,-11,395,-4769,22,-46,-18,16
808,-7620,-24,417,-4764,22,-43,-21,16
809,-7601,-39,385,-4764,22,-46,-19,20
810,-7562,33,396,-4767,22,-44,-22,15
811,-7577,6,402,-4756,23,-43,-19,18
812,-7549,14,336,-4751,23,-43,-19,17
813,-7577,-1,397,-4769,22,-44,-19,18
814,-7520,2,379,-4749,23,-44,-19,17
815,-7562,8,382,-4771,22,-44,-21,18
816,-7561,5,336,-4761,22,-43,-20,18
817,-7545,-5,351,-4764,22,-43,-19,18
818,-7595,6,409,-4759,23,-44,-21,17
819,-7576,-32,330,-4749,23,-46,-21,16
820,-7538,12,357,-4768,22,-45,-19,19
821,-7585,-16,381,-4767,22,-40,-19,17
822,-7552,15,387,-4760,22,-44,-22,17
823,-7559,-10,347,-4750,23,-44,-21,15
824,-7590,5,363,-4756,23,-44,-20,17
825,-7549,23,322,-4740,23,-42,-21,18
826,-7589,31,366,-4763,22,-42,-19,17
827,-7614,-6,367,-4753,23,-42,-20,19
828,-7572,-25,374,-4766,22,-45,-19,16
829,-7579,19,359,-4750,23,-45,-17,18
830,-7556,-3,387,-4758,23,-43,-19,19
831,-7601,22,360,-4760,22,-43,-21,18
832,-7547,-3,374,-4772,22,-44,-21,18
833,-7551,-12,373,-4751,23,-41,-20,17
834,-7573,-6,370,-4761,22,-44,-18,17
835,-7591,3,325,-4774,22,-43,-20,18
836,-7628,-30,397,-4759,23,-44,-20,15
837,-7604,2,392,-4761,22,-44,-18,17
838,-7578,-13,483,-4763,22,-44,-20,18
839,-7589,-31,376,-4752,23,-43,-18,17
840,-7596,-34,329,-4765,22,-44,-19,16
841,-7564,-13,368,-4763,22,-43,-17,16
842,-7569,-13,406,-4765,22,-44,-18,17
843,-7588,-3,435,-4774,22,-45,-19,18
844,-7606,13,387,-4759,23,-45,-20,18
845,-7605,-2,392,-4760,22,-43,-21,18
846,-7596,-20,386,-4767,22,-43,-19,16
847,-7570,28,355,-4752,23,-44,-20,18
848,-7549,-12,437,-4755,23,-44,-20,17
849,-7564,4,378,-4761,22,-44,-19,16
850,-7524,-26,322,-4760,22,-43,-21,18
851,-7573,-9,351,-4765,22,-43,-18,18
852,-7569,-2,381,-4744,23,-44,-19,17
853,-7573,15,391,-4761,22,-44,-18,16
854,-7566,7,389,-4752,23,-44,-21,17
855,-7587,5,379,-4765,22,-43,-21,17
856,-7563,-22,402,-4760,22,-44,-21,15
857,-7591,-10,352,-4766,22,-45,-21,17
858,-7581,-20,366,-4762,22,-44,-20,16
859,-7575,0,364,-4764,22,-44,-19,16
860,-7574,29,340,-4751,23,-43,-19,18
861,-7599,-19,451,-4739,23,-44,-19,17
862,-7570,0,416,-4760,22,-45,-19,16
863,-7575,24,356,-4759,23,-45,-22,16
864,-7589,-5,404,-4750,23,-45,-19,18
865,-7571,-11,369,-4763,22,-42,-20,19
866,-7584,-12,368,-4747,23,-42,-21,17
867,-7571,-3,397,-4756,23,-43,-22,16
868,-7567,22,367,-4757,23,-45,-19,19
869,-7612,-13,426,-4758,23,-44,-21,17
870,-7594,-15,410,-4752,23,-44,-19,15
871,-7576,-15,338,-4753,23,-43,-18,18
872,-7601,48,397,-4755,23,-44,-20,16
873,-7556,16,369,-4754,23,-43,-20,15
874,-7606,1,396,-4746,23,-45,-18,18
875,-7602,-22,380,-4760,22,-45,-20,16
876,-7585,-5,345,-4742,23,-43,-19,18
877,-7574,10,419,-4766,22,-46,-19,17
878,-7584,58,360,-4747,23,-42,-19,16
879,-7583,-6,352,-4758,23,-44,-19,17
880,-7595,8,375,-4756,23,-43,-19,15
881,-7567,-13,383,-4761,22,-43,-20,18
882,-7582,1,356,-4768,22,-44,-20,18
883,-7609,-24,380,-4760,22,-44,-20,16
884,-7601,9,376,-4764,22,-42,-18,17
885,-7594,-24,390,-4752,23,-43,-21,15
886,-7561,33,429,-4747,23,-44,-23,16
887,-7557,-50,361,-4770,22,-43,-18,18
888,-7620,2,413,-4760,22,-43,-22,17
889,-7608,-13,382,-4771,22,-41,-23,18
890,-7600,-35,407,-4757,23,-43,-20,15
891,-7607,28,390,-4743,23,-43,-17,19
892,-7567,-34,452,-4766,22,-42,-22,17
893,-7577,17,425,-4744,23,-44,-20,15
894,-7562,-56,409,-4764,22,-44,-21,16
895,-7600,-32,391,-4773,22,-45,-19,16
896,-7586,-3,382,-4759,23,-44,-18,18
897,-7575,-7,373,-4756,23,-44,-21,18
898,-7607,-1,317,-4764,22,-45,-18,18
899,-7573,-5,437,-4756,23,-43,-20,17
900,-7551,-7,377,-4745,23,-44,-18,17
901,-7579,-32,372,-4768,22,-46,-19,17
902,-7573,-8,414,-4770,22,-42,-20,18
903,-7567,-1,335,-4749,23,-43,-19,19
904,-7594,-50,393,-4763,22,-44,-20,17
905,-7526,22,403,-4749,23,-43,-21,19
906,-7581,41,438,-4762,22,-45,-19,17
907,-7594,34,391,-4767,22,-43,-20,16
908,-7585,-32,348,-4760,22,-44,-18,18
909,-7598,-31,368,-4744,23,-44,-20,18
910,-7548,-2,408,-4759,23,-45,-21,17
911,-7546,24,398,-4759,23,-46,-21,15
912,-7599,-13,410,-4760,22,-45,-22,17
913,-7558,15,339,-4751,23,-45,-19,17
914,-7589,2,331,-4769,22,-44,-20,15
915,-7566,16,352,-4760,22,-44,-18,18
916,-7599,-1,419,-4762,22,-42,-20,18
917,-7586,38,412,-4739,23,-43,-20,15
918,-7583,-20,416,-4750,23,-45,-19,16
919,-7598,21,386,-4759,23,-44,-20,16
920,-7611,19,379,-4752,23,-43,-18,18
921,-7595,-26,434,-4767,22,-44,-19,17
922,-7586,6,367,-4769,22,-44,-19,16
923,-7558,-19,384,-4747,23,-44,-22,15
924,-7572,-43,306,-4753,23,-42,-20,17
925,-7539,4,387,-4749,23,-44,-17,17
926,-7591,-10,324,-4760,22,-45,-18,17
927,-7598,-10,382,-4779,22,-41,-18,17
928,-7598,-27,329,-4768,22,-44,-22,19
929,-7610,-5,404,-4755,23,-44,-21,17
930,-7575,18,362,-4756,23,-42,-20,16
931,-7566,-7,334,-4743,23,-44,-18,17
932,-7548,18,343,-4763,22,-45,-18,18
933,-7621,-36,287,-4755,23,-44,-19,19
934,-7595,-19,339,-4764,22,-44,-20,16
935,-7547,-19,367,-4752,23,-44,-21,17
936,-7549,-39,405,-4764,22,-43,-21,16
937,-7568,-18,315,-4750,23,-45,-19,19
938,-7570,-2,409,-4756,23,-44,-20,18
939,-7539,34,426,-4771,22,-44,-18,18
940,-7604,-6,382,-4762,22,-42,-21,16
941,-7561,-16,313,-4763,22,-43,-18,19
942,-7562,1,380,-4756,23,-44,-18,17
943,-7603,-49,293,-4773,22,-43,-19,16
944,-7586,25,386,-4756,23,-42,-19,15
945,-7564,-58,326,-4772,22,-45,-20,19
946,-7575,-1,365,-4754,23,-42,-17,17
947,-7577,-9,349,-4759,23,-43,-19,16
948,-7560,-3,292,-4751,23,-43,-19,17
949,-7599,-16,363,-4755,23,-45,-19,19
950,-7576,8,391,-4763,22,-43,-21,18
951,-7601,36,369,-4757,23,-44,-21,18
952,-7578,-3,323,-4756,23,-43,-20,17
953,-7585,-26,328,-4769,22,-42,-19,18
954,-7583,-18,334,-4765,22,-44,-21,16
955,-7593,7,351,-4766,22,-46,-19,17
956,-7564,-20,360,-4764,22,-43,-20,17
957,-7549,9,327,-4752,23,-43,-19,18
958,-7547,-25,360,-4756,23,-44,-20,18
959,-7571,29,394,-4749,23,-47,-20,16
960,-7594,4,427,-4774,22,-45,-21,17
961,-7589,25,407,-4764,22,-43,-20,18
962,-7579,-42,359,-4743,23,-44,-20,16
963,-7553,6,312,-4751,23,-44,-20,18
964,-7595,-10,374,-4769,22,-45,-21,17
965,-7592,29,345,-4747,23,-44,-20,16
966,-7548,-20,354,-4758,23,-44,-20,18
967,-7577,16,342,-4756,23,-41,-20,17
968,-7598,-10,420,-4765,22,-42,-20,17
969,-7560,8,383,-4753,23,-45,-18,17
970,-7564,5,358,-4755,23,-45,-17,18
971,-7587,-5,360,-4758,23,-45,-20,15
972,-7593,-12,361,-4748,23,-44,-19,17
973,-7619,-57,387,-4760,22,-43,-18,17
974,-7556,16,381,-4758,23,-42,-20,18
975,-7566,15,425,-4751,23,-45,-22,17
976,-7548,-6,400,-4761,22,-42,-19,17
977,-7532,-23,403,-4759,23,-44,-21,17
978,-7557,-19,418,-4767,22,-44,-20,17
979,-7590,-26,395,-4760,22,-43,-21,18
980,-7586,-2,350,-4746,23,-46,-19,17
981,-7552,-24,392,-4762,22,-45,-19,17
982,-7550,-28,423,-4772,22,-44,-22,16
983,-7549,-8,364,-4764,22,-43,-18,17
984,-7570,-15,373,-4754,23,-44,-21,14
985,-7595,-4,348,-4764,22,-43,-19,16
986,-7574,-15,357,-4769,22,-43,-20,15
987,-7574,-21,393,-4749,23,-43,-20,17
988,-7563,5,348,-4764,22,-44,-22,16
989,-7562,-11,357,-4767,22,-43,-19,17
990,-7600,-25,351,-4762,22,-41,-21,17
991,-7556,32,450,-4760,22,-43,-19,18
992,-7582,1,402,-4752,23,-44,-21,16
993,-7608,-11,340,-4763,22,-44,-20,17
994,-7552,3,415,-4748,23,-43,-21,17
995,-7589,-15,364,-4753,23,-44,-19,17
996,-7524,-23,373,-4753,23,-44,-18,18
997,-7586,9,401,-4763,22,-43,-22,16
998,-7578,15,430,-4765,22,-44,-20,19
