,acc_X,acc_Y,acc_Z,temp,tempC,gyr_X,gyr_Y,gyr_Z
0,-7577,3,364,-4764,22,-174,-77,66
1,-7575,6,369,-4763,22,-174,-78,67
2,-7573,8,367,-4762,22,-174,-78,68
3,-7578,7,373,-4763,22,-175,-78,68
4,-7577,0,372,-4762,22,-174,-78,68
5,-7577,-5,368,-4762,22,-174,-79,68
6,-7576,-3,366,-4763,22,-174,-79,69
7,-7576,-8,366,-4763,22,-175,-78,70
8,-7576,-4,374,-4763,22,-175,-79,70
9,-7582,-6,377,-4764,22,-176,-77,70
10,-7582,-9,380,-4765,22,-175,-78,69
11,-7583,-10,379,-4764,22,-175,-78,70
12,-7577,-11,370,-4763,22,-174,-79,69
13,-7579,-5,371,-4763,22,-173,-79,68
14,-7580,-8,369,-4764,22,-173,-78,68
15,-7576,-9,362,-4763,22,-173,-78,66
16,-7579,-11,361,-4763,22,-175,-78,67
17,-7576,-12,360,-4764,22,-174,-78,68
18,-7577,-8,366,-4764,22,-174,-79,68
19,-7575,-2,365,-4765,22,-173,-79,69
20,-7574,-1,366,-4765,22,-174,-78,69
21,-7571,-6,373,-4762,22,-174,-77,68
22,-7573,-6,376,-4761,22,-174,-78,69
23,-7575,-6,372,-4761,22,-174,-78,68
24,-7575,-6,371,-4760,22,-174,-78,68
25,-7579,-2,377,-4760,22,-172,-78,69
26,-7578,-2,379,-4761,22,-173,-77,68
27,-7578,0,373,-4762,22,-173,-76,67
28,-7578,1,371,-4763,22,-174,-77,68
29,-7575,2,368,-4763,22,-174,-76,68
30,-7580,5,358,-4764,22,-174,-78,68
31,-7580,4,368,-4765,22,-173,-78,68
32,-7582,5,371,-4765,22,-174,-76,69
33,-7582,2,375,-4765,22,-173,-77,69
34,-7580,1,369,-4764,22,-172,-78,69
35,-7573,0,368,-4764,22,-172,-78,69
36,-7572,-2,366,-4764,22,-171,-78,69
37,-7577,-1,371,-4763,22,-172,-78,70
38,-7574,0,373,-4763,22,-172,-78,70
39,-7575,0,372,-4762,22,-172,-78,69
40,-7571,-1,373,-4763,22,-172,-77,69
41,-7574,0,370,-4763,22,-172,-77,69
42,-7573,-3,372,-4764,22,-172,-76,69
43,-7572,0,375,-4763,22,-172,-78,68
44,-7570,-3,374,-4763,22,-173,-78,68
45,-7571,-6,379,-4763,22,-173,-78,68
46,-7577,-5,378,-4764,22,-174,-77,67
47,-7576,-8,372,-4763,22,-174,-77,68
48,-7578,-5,373,-4765,22,-175,-78,68
49,-7576,-3,374,-4764,22,-175,-77,68
50,-7572,0,377,-4764,22,-174,-77,68
51,-7575,-2,370,-4764,22,-173,-76,68
52,-7575,0,373,-4765,22,-173,-76,67
53,-7572,1,370,-4764,22,-174,-76,68
54,-7577,1,367,-4764,22,-173,-76,68
55,-7579,1,360,-4763,22,-173,-75,68
56,-7582,0,364,-4765,22,-173,-75,68
57,-7583,-4,367,-4767,22,-174,-76,69
58,-7578,-4,361,-4766,22,-173,-76,68
59,-7581,-4,359,-4766,22,-173,-78,67
60,-7579,0,368,-4766,22,-173,-78,67
61,-7579,-3,369,-4765,22,-173,-79,67
62,-7577,-6,370,-4764,22,-173,-80,68
63,-7582,-4,370,-4764,22,-172,-79,68
64,-7582,-2,367,-4763,22,-172,-78,69
65,-7580,-3,375,-4763,22,-171,-77,69
66,-7580,-7,373,-4763,22,-172,-76,69
67,-7581,-7,364,-4766,22,-173,-78,69
68,-7578,-6,373,-4765,22,-174,-78,70
69,-7576,-5,377,-4766,22,-174,-78,69
70,-7576,-7,383,-4764,22,-174,-78,68
71,-7579,-9,385,-4764,22,-173,-77,68
72,-7577,-5,373,-4763,22,-173,-77,68
73,-7577,-4,377,-4761,22,-173,-76,69
74,-7579,-6,380,-4761,22,-174,-77,69
75,-7581,-5,378,-4762,22,-174,-78,70
76,-7579,-8,367,-4760,22,-175,-78,69
77,-7579,-10,364,-4761,22,-175,-79,70
78,-7585,-13,372,-4762,22,-176,-77,69
79,-7586,-10,371,-4761,22,-176,-77,68
80,-7587,-9,368,-4760,22,-175,-78,68
81,-7584,-8,370,-4763,22,-174,-77,68
82,-7579,-4,377,-4763,22,-175,-77,68
83,-7579,-5,371,-4764,22,-176,-78,69
84,-7579,-9,366,-4764,22,-176,-78,68
85,-7577,-6,366,-4763,22,-175,-77,69
86,-7573,-7,364,-4762,22,-175,-78,69
87,-7576,0,365,-4762,22,-175,-78,69
88,-7576,-1,365,-4762,22,-175,-79,69
89,-7578,-1,371,-4762,22,-174,-79,69
90,-7576,-2,369,-4761,22,-174,-78,69
91,-7577,-3,371,-4759,23,-174,-78,68
92,-7571,-10,370,-4759,23,-175,-77,69
93,-7570,-10,365,-4759,23,-174,-78,68
94,-7567,-9,369,-4762,22,-173,-79,69
95,-7569,-10,373,-4762,22,-175,-77,70
96,-7569,-7,373,-4762,22,-175,-78,70
97,-7568,-6,363,-4764,22,-175,-78,70
98,-7572,-8,365,-4765,22,-176,-78,69
99,-7578,-7,359,-4763,22,-176,-78,68
100,-7577,-8,366,-4761,22,-176,-78,69
101,-7580,-3,367,-4761,22,-175,-80,69
102,-7581,-6,366,-4763,22,-176,-78,69
103,-7575,-9,363,-4762,22,-175,-78,70
104,-7574,-11,367,-4760,22,-175,-77,70
105,-7577,-12,368,-4763,22,-175,-77,70
106,-7576,-15,366,-4765,22,-175,-77,70
107,-7576,-12,360,-4765,22,-176,-78,68
108,-7578,-6,362,-4767,22,-176,-78,69
109,-7580,-5,365,-4765,22,-176,-78,69
110,-7583,-3,369,-4765,22,-176,-77,69
111,-7587,-4,370,-4765,22,-175,-76,69
112,-7581,-8,367,-4765,22,-175,-76,69
113,-7581,-9,386,-4763,22,-175,-77,69
114,-7580,-6,381,-4760,22,-174,-78,70
115,-7578,-9,381,-4760,22,-175,-78,69
116,-7574,-15,376,-4761,22,-175,-77,70
117,-7575,-16,377,-4760,22,-175,-78,70
118,-7575,-16,375,-4760,22,-175,-76,69
119,-7582,-15,377,-4760,22,-174,-77,70
120,-7582,-15,378,-4759,23,-174,-78,71
121,-7581,-17,372,-4758,23,-174,-79,70
122,-7581,-16,377,-4758,23,-174,-78,70
123,-7578,-14,369,-4761,22,-174,-78,70
124,-7578,-13,370,-4761,22,-173,-78,70
125,-7574,-11,370,-4762,22,-173,-78,70
126,-7577,-5,362,-4762,22,-174,-78,70
127,-7576,-5,361,-4762,22,-175,-78,70
128,-7576,-2,366,-4761,22,-174,-78,70
129,-7582,-7,367,-4759,23,-175,-78,71
130,-7582,-6,373,-4760,22,-176,-78,70
131,-7591,-5,380,-4759,23,-175,-79,70
132,-7587,-5,374,-4758,23,-175,-79,70
133,-7580,-3,376,-4759,23,-176,-77,70
134,-7580,-9,374,-4759,23,-174,-78,70
135,-7581,-7,375,-4759,23,-173,-78,68
136,-7579,-2,368,-4760,22,-175,-78,69
137,-7576,1,370,-4759,23,-174,-77,68
138,-7579,-1,370,-4757,23,-173,-78,68
139,-7580,1,376,-4758,23,-173,-78,69
140,-7578,-2,371,-4758,23,-175,-79,69
141,-7578,-4,370,-4759,23,-176,-79,69
142,-7573,-5,371,-4760,22,-176,-79,69
143,-7577,-10,371,-4760,22,-175,-77,70
144,-7574,-6,372,-4761,22,-175,-78,69
145,-7572,-12,364,-4761,22,-174,-78,69
146,-7573,-8,362,-4762,22,-174,-78,69
147,-7571,-5,370,-4761,22,-175,-77,69
148,-7573,-4,375,-4761,22,-175,-77,68
149,-7575,-5,375,-4760,22,-175,-78,68
150,-7576,-4,370,-4761,22,-174,-77,69
151,-7574,-1,369,-4761,22,-174,-76,68
152,-7575,-3,376,-4761,22,-174,-75,68
153,-7578,-4,385,-4760,22,-175,-74,68
154,-7577,-4,387,-4759,23,-175,-75,69
155,-7575,-8,381,-4760,22,-175,-77,70
156,-7574,-7,380,-4760,22,-175,-77,69
157,-7575,-4,377,-4759,23,-175,-77,69
158,-7578,-2,380,-4759,23,-175,-78,69
159,-7578,-2,379,-4759,23,-174,-78,69
160,-7576,-8,378,-4759,23,-174,-78,69
161,-7578,-4,383,-4757,23,-174,-77,69
162,-7576,-3,378,-4757,23,-174,-77,69
163,-7576,-6,380,-4758,23,-174,-78,69
164,-7581,-6,379,-4760,22,-173,-77,69
165,-7579,-9,371,-4760,22,-175,-76,70
166,-7578,-12,371,-4759,23,-174,-76,70
167,-7578,-14,367,-4758,23,-174,-76,69
168,-7578,-9,363,-4759,23,-174,-76,68
169,-7581,-3,360,-4759,23,-175,-75,68
170,-7579,-6,365,-4761,22,-174,-75,68
171,-7583,-8,369,-4761,22,-173,-75,69
172,-7583,-9,368,-4761,22,-172,-76,69
173,-7578,-10,380,-4761,22,-173,-76,69
174,-7576,-12,377,-4760,22,-174,-76,69
175,-7574,-10,377,-4760,22,-174,-77,69
176,-7574,-10,375,-4759,23,-174,-79,68
177,-7581,-9,374,-4759,23,-174,-78,69
178,-7584,-5,376,-4760,22,-174,-79,69
179,-7582,-6,378,-4761,22,-175,-79,69
180,-7572,-3,375,-4760,22,-174,-78,69
181,-7571,-2,380,-4761,22,-175,-77,69
182,-7567,-4,381,-4761,22,-175,-78,68
183,-7569,-10,375,-4759,23,-174,-79,69
184,-7573,-5,374,-4760,22,-174,-80,68
185,-7575,-8,376,-4762,22,-173,-79,69
186,-7577,-2,372,-4764,22,-172,-81,69
187,-7580,-1,371,-4765,22,-173,-80,69
188,-7582,-2,369,-4765,22,-174,-81,67
189,-7578,-4,368,-4764,22,-172,-81,67
190,-7576,-3,371,-4764,22,-172,-79,66
191,-7582,-5,371,-4763,22,-173,-79,67
192,-7582,-6,367,-4761,22,-174,-80,68
193,-7582,-2,364,-4760,22,-174,-79,67
194,-7584,-5,360,-4761,22,-174,-79,67
195,-7582,-6,366,-4762,22,-174,-79,68
196,-7579,-8,363,-4761,22,-173,-79,68
197,-7578,-11,363,-4761,22,-173,-79,69
198,-7577,-11,359,-4761,22,-173,-76,69
199,-7583,-10,367,-4761,22,-174,-77,68
200,-7582,-9,367,-4761,22,-173,-78,68
201,-7578,-10,362,-4762,22,-175,-77,67
202,-7578,-9,361,-4763,22,-174,-79,69
203,-7575,-5,361,-4762,22,-174,-79,69
204,-7575,-5,359,-4762,22,-174,-77,68
205,-7578,-4,363,-4759,23,-175,-78,68
206,-7571,-7,367,-4760,22,-175,-77,68
207,-7572,-7,372,-4761,22,-175,-77,68
208,-7577,-4,374,-4762,22,-175,-78,68
209,-7579,-4,374,-4761,22,-174,-77,68
210,-7579,-5,378,-4761,22,-173,-77,68
211,-7577,-5,375,-4762,22,-173,-76,68
212,-7583,-4,371,-4763,22,-174,-76,69
213,-7583,-5,381,-4764,22,-174,-76,69
214,-7586,-6,377,-4763,22,-175,-75,70
215,-7582,-11,369,-4763,22,-175,-75,69
216,-7577,-9,371,-4761,22,-176,-76,68
217,-7578,-8,368,-4761,22,-176,-77,68
218,-7577,-5,368,-4760,22,-175,-77,67
219,-7577,-3,366,-4761,22,-176,-77,67
220,-7575,0,371,-4760,22,-175,-78,68
221,-7572,-2,366,-4759,23,-175,-78,68
222,-7576,-4,367,-4760,22,-174,-77,68
223,-7572,-3,367,-4761,22,-174,-77,69
224,-7575,-5,370,-4759,23,-174,-77,70
225,-7575,-3,367,-4759,23,-174,-78,70
226,-7573,-2,371,-4756,23,-174,-77,69
227,-7580,-10,373,-4757,23,-173,-78,69
228,-7582,-5,375,-4756,23,-173,-79,68
229,-7578,-4,374,-4756,23,-174,-77,68
230,-7579,-4,368,-4758,23,-174,-77,69
231,-7577,-3,364,-4760,22,-174,-78,70
232,-7584,-2,364,-4759,23,-174,-78,69
233,-7583,-2,368,-4759,23,-176,-78,69
234,-7579,-7,368,-4758,23,-175,-78,69
235,-7578,-8,362,-4758,23,-175,-77,69
236,-7577,-5,362,-4756,23,-175,-78,68
237,-7574,-5,364,-4757,23,-175,-78,69
238,-7574,-6,364,-4758,23,-175,-78,69
239,-7575,-11,368,-4759,23,-174,-76,69
240,-7582,-6,367,-4759,23,-174,-75,69
241,-7581,-7,373,-4760,22,-175,-76,69
242,-7581,-8,376,-4759,23,-176,-76,69
243,-7580,-8,372,-4760,22,-175,-76,68
244,-7575,-11,368,-4760,22,-174,-77,69
245,-7575,-9,369,-4760,22,-173,-77,68
246,-7575,-8,370,-4760,22,-174,-77,70
247,-7577,-12,369,-4760,22,-175,-76,71
248,-7574,-12,375,-4761,22,-173,-76,71
249,-7574,-13,373,-4760,22,-173,-77,70
250,-7574,-15,368,-4761,22,-174,-75,69
251,-7573,-17,374,-4759,23,-175,-75,69
252,-7577,-17,376,-4760,22,-175,-76,69
253,-7578,-18,377,-4761,22,-175,-76,68
254,-7576,-19,373,-4762,22,-174,-75,69
255,-7578,-16,368,-4762,22,-174,-76,69
256,-7580,-16,369,-4761,22,-174,-77,70
257,-7581,-16,372,-4761,22,-174,-77,69
258,-7581,-15,367,-4762,22,-175,-76,68
259,-7580,-16,363,-4761,22,-173,-76,68
260,-7577,-12,368,-4762,22,-173,-77,68
261,-7579,-14,370,-4761,22,-174,-77,69
262,-7580,-12,370,-4761,22,-174,-77,69
263,-7580,-14,366,-4760,22,-174,-77,69
264,-7581,-8,364,-4759,23,-174,-77,70
265,-7580,-14,370,-4760,22,-174,-78,70
266,-7580,-16,371,-4761,22,-173,-78,69
267,-7577,-11,372,-4760,22,-173,-78,69
268,-7580,-6,376,-4760,22,-174,-77,69
269,-7580,-3,373,-4759,23,-175,-78,69
270,-7581,0,372,-4760,22,-174,-78,68
271,-7578,-4,366,-4758,23,-174,-78,68
272,-7574,-6,368,-4758,23,-175,-77,68
273,-7573,-8,372,-4759,23,-175,-78,68
274,-7572,-11,371,-4761,22,-174,-77,69
275,-7575,-13,371,-4759,23,-175,-78,70
276,-7580,-8,362,-4758,23,-175,-77,69
277,-7580,-6,363,-4758,23,-175,-78,69
278,-7577,-2,360,-4759,23,-175,-77,69
279,-7577,-3,363,-4758,23,-175,-77,70
280,-7578,-7,367,-4759,23,-176,-76,70
281,-7579,-8,369,-4758,23,-176,-77,69
282,-7579,-5,371,-4758,23,-176,-76,69
283,-7577,-5,384,-4758,23,-177,-77,69
284,-7578,-4,378,-4758,23,-176,-76,70
285,-7585,-5,385,-4760,22,-176,-77,69
286,-7587,-9,384,-4761,22,-176,-76,70
287,-7583,-6,377,-4761,22,-176,-77,69
288,-7584,-5,375,-4760,22,-176,-76,69
289,-7585,-4,381,-4761,22,-175,-75,69
290,-7585,-7,378,-4762,22,-175,-75,69
291,-7580,-10,374,-4762,22,-173,-76,70
292,-7581,-8,364,-4762,22,-173,-76,69
293,-7576,-6,368,-4761,22,-173,-77,69
294,-7571,1,371,-4762,22,-174,-78,69
295,-7568,-2,371,-4763,22,-174,-76,69
296,-7569,-1,370,-4761,22,-173,-77,69
297,-7572,-3,372,-4761,22,-174,-77,69
298,-7576,-4,373,-4761,22,-175,-78,68
299,-7576,-3,373,-4763,22,-175,-77,69
300,-7576,1,377,-4761,22,-175,-77,69
301,-7575,-4,378,-4760,22,-175,-77,70
302,-7575,-9,373,-4760,22,-175,-76,69
303,-7576,-10,373,-4760,22,-175,-77,69
304,-7573,-9,377,-4758,23,-174,-76,69
305,-7574,-9,377,-4760,22,-174,-77,69
306,-7574,-8,371,-4760,22,-174,-77,69
307,-7577,-6,367,-4761,22,-174,-77,68
308,-7579,-10,371,-4761,22,-173,-78,68
309,-7576,-6,377,-4760,22,-172,-78,67
310,-7578,-4,376,-4759,23,-173,-78,68
311,-7579,-5,373,-4759,23,-173,-77,68
312,-7579,-4,372,-4759,23,-174,-77,68
313,-7578,-7,365,-4762,22,-174,-76,69
314,-7574,-10,364,-4762,22,-172,-76,69
315,-7577,-5,370,-4760,22,-173,-76,69
316,-7577,-8,371,-4760,22,-174,-76,68
317,-7577,-4,372,-4759,23,-174,-76,69
318,-7576,-5,382,-4759,23,-174,-78,68
319,-7577,-6,373,-4759,23,-175,-78,69
320,-7571,-5,374,-4758,23,-174,-78,69
321,-7570,-5,368,-4757,23,-174,-77,68
322,-7573,-8,370,-4758,23,-173,-76,68
323,-7574,-13,375,-4758,23,-173,-76,68
324,-7576,-10,371,-4759,23,-171,-76,68
325,-7574,-11,371,-4759,23,-171,-77,68
326,-7576,-7,371,-4759,23,-173,-76,69
327,-7578,-6,363,-4760,22,-174,-77,69
328,-7572,-9,370,-4759,23,-175,-78,68
329,-7575,-7,370,-4758,23,-175,-77,67
330,-7576,-9,363,-4757,23,-175,-77,67
331,-7573,-5,358,-4759,23,-175,-77,67
332,-7573,-8,356,-4759,23,-175,-77,68
333,-7577,-6,357,-4759,23,-175,-76,68
334,-7577,-7,358,-4761,22,-174,-78,68
335,-7579,-7,361,-4762,22,-175,-77,69
336,-7576,-1,365,-4764,22,-175,-76,70
337,-7574,-4,366,-4763,22,-175,-77,69
338,-7575,-5,373,-4762,22,-175,-77,68
339,-7577,-9,376,-4762,22,-174,-77,68
340,-7579,-8,376,-4762,22,-173,-76,69
341,-7575,-8,374,-4762,22,-173,-76,69
342,-7575,-5,375,-4760,22,-174,-75,70
343,-7575,-8,383,-4759,23,-175,-75,69
344,-7575,-9,376,-4759,23,-174,-75,68
345,-7576,-13,375,-4757,23,-174,-75,68
346,-7573,-6,387,-4756,23,-173,-75,68
347,-7572,2,384,-4756,23,-173,-77,69
348,-7571,2,384,-4757,23,-173,-77,69
349,-7574,5,381,-4758,23,-173,-77,69
350,-7573,4,377,-4759,23,-175,-77,70
351,-7574,1,373,-4760,22,-175,-78,70
352,-7570,0,375,-4762,22,-175,-77,70
353,-7567,2,372,-4761,22,-174,-78,70
354,-7574,-3,372,-4761,22,-173,-76,70
355,-7573,-5,369,-4762,22,-174,-75,70
356,-7573,-7,365,-4761,22,-172,-76,70
357,-7573,-8,371,-4760,22,-173,-76,72
358,-7577,-7,371,-4759,23,-174,-75,71
359,-7575,-4,364,-4758,23,-173,-75,70
360,-7580,-4,364,-4759,23,-173,-74,69
361,-7578,-6,364,-4760,22,-173,-75,69
362,-7580,-4,359,-4760,22,-173,-75,69
363,-7581,-2,364,-4760,22,-174,-76,69
364,-7582,-7,370,-4757,23,-175,-75,69
365,-7579,-9,375,-4757,23,-175,-75,71
366,-7579,-10,372,-4756,23,-174,-76,70
367,-7579,-7,376,-4756,23,-174,-76,70
368,-7580,-10,375,-4755,23,-175,-76,68
369,-7581,-16,370,-4755,23,-174,-75,68
370,-7578,-8,376,-4757,23,-174,-75,68
371,-7580,-6,377,-4758,23,-174,-76,68
372,-7578,-8,374,-4760,22,-174,-76,68
373,-7579,-7,377,-4760,22,-174,-76,68
374,-7579,-5,382,-4756,23,-173,-76,69
375,-7580,-6,385,-4754,23,-174,-76,68
376,-7580,-7,379,-4754,23,-174,-78,68
377,-7577,-10,373,-4755,23,-174,-76,69
378,-7580,-12,377,-4755,23,-174,-76,69
379,-7586,-9,375,-4756,23,-174,-76,69
380,-7582,-9,374,-4756,23,-174,-77,68
381,-7583,-8,373,-4758,23,-175,-78,68
382,-7582,-11,372,-4759,23,-174,-77,67
383,-7579,-4,373,-4759,23,-175,-77,69
384,-7583,0,374,-4758,23,-174,-78,69
385,-7581,0,372,-4759,23,-175,-77,68
386,-7579,4,371,-4759,23,-175,-78,69
387,-7578,4,368,-4759,23,-175,-77,68
388,-7579,3,370,-4759,23,-174,-77,68
389,-7576,-2,370,-4758,23,-174,-77,69
390,-7575,-4,363,-4759,23,-175,-77,71
391,-7579,-2,366,-4759,23,-175,-78,71
392,-7578,-2,368,-4758,23,-174,-78,70
393,-7579,-3,367,-4758,23,-174,-76,70
394,-7577,-9,371,-4757,23,-175,-76,70
395,-7573,-13,371,-4757,23,-174,-76,71
396,-7575,-10,372,-4756,23,-174,-75,70
397,-7577,-10,370,-4756,23,-173,-76,70
398,-7585,-6,369,-4757,23,-173,-78,70
399,-7581,-10,372,-4758,23,-172,-79,70
400,-7582,-8,371,-4760,22,-171,-78,70
401,-7586,-6,368,-4760,22,-173,-78,70
402,-7583,-6,369,-4760,22,-173,-77,69
403,-7582,-5,372,-4759,23,-173,-77,70
404,-7581,-8,373,-4758,23,-172,-78,69
405,-7580,-9,367,-4759,23,-172,-78,69
406,-7577,-10,365,-4759,23,-173,-78,69
407,-7579,-7,369,-4759,23,-174,-78,69
408,-7580,-7,374,-4758,23,-174,-76,69
409,-7585,-7,372,-4758,23,-174,-77,69
410,-7582,-6,377,-4757,23,-175,-75,69
411,-7575,-4,370,-4756,23,-176,-75,68
412,-7569,0,360,-4757,23,-174,-77,69
413,-7570,-4,350,-4758,23,-174,-77,71
414,-7573,-4,347,-4757,23,-175,-77,70
415,-7572,-3,350,-4757,23,-175,-76,70
416,-7570,-9,354,-4759,23,-174,-77,69
417,-7573,-11,356,-4758,23,-174,-78,69
418,-7574,-6,352,-4760,22,-174,-79,69
419,-7574,-4,353,-4760,22,-174,-77,68
420,-7576,-6,358,-4761,22,-174,-77,68
421,-7579,-3,369,-4761,22,-174,-78,69
422,-7578,-4,376,-4760,22,-174,-78,69
423,-7579,-6,383,-4760,22,-174,-78,69
424,-7573,-8,381,-4758,23,-174,-77,69
425,-7573,-6,384,-4758,23,-173,-76,70
426,-7573,-6,379,-4758,23,-174,-77,70
427,-7578,-5,381,-4757,23,-173,-77,71
428,-7581,-3,381,-4759,23,-173,-77,71
429,-7574,-3,378,-4758,23,-172,-77,70
430,-7570,-4,380,-4757,23,-173,-78,69
431,-7568,-4,378,-4757,23,-173,-77,69
432,-7570,-7,377,-4757,23,-173,-76,68
433,-7568,-4,374,-4756,23,-173,-78,69
434,-7574,-6,373,-4757,23,-174,-79,70
435,-7577,-8,377,-4758,23,-173,-80,71
436,-7578,-7,373,-4759,23,-174,-79,71
437,-7581,-4,379,-4757,23,-174,-80,70
438,-7580,-2,379,-4758,23,-174,-80,70
439,-7580,-2,379,-4759,23,-174,-80,68
440,-7577,3,375,-4758,23,-174,-80,68
441,-7576,1,369,-4759,23,-174,-80,69
442,-7580,0,367,-4758,23,-174,-78,69
443,-7575,0,367,-4759,23,-174,-77,68
444,-7577,1,368,-4758,23,-174,-77,69
445,-7576,-5,373,-4758,23,-175,-77,69
446,-7574,-4,380,-4756,23,-174,-76,69
447,-7570,-5,381,-4757,23,-175,-76,69
448,-7571,-1,380,-4757,23,-175,-77,70
449,-7574,-5,380,-4756,23,-174,-77,70
450,-7574,-3,374,-4756,23,-174,-78,69
451,-7574,-1,369,-4757,23,-174,-78,69
452,-7571,-4,367,-4756,23,-175,-77,70
453,-7573,-6,369,-4757,23,-176,-77,70
454,-7576,-4,375,-4758,23,-175,-76,69
455,-7573,-9,380,-4758,23,-175,-76,69
456,-7576,-14,380,-4758,23,-174,-77,68
457,-7573,-11,375,-4758,23,-175,-76,68
458,-7573,-7,377,-4759,23,-175,-77,68
459,-7571,-4,372,-4760,22,-175,-77,67
460,-7568,-9,371,-4759,23,-175,-78,68
461,-7568,-3,380,-4760,22,-174,-77,69
462,-7567,-5,382,-4760,22,-174,-78,69
463,-7568,-12,378,-4760,22,-175,-78,69
464,-7570,-11,373,-4760,22,-175,-77,69
465,-7571,-11,372,-4759,23,-175,-78,70
466,-7572,-11,367,-4758,23,-175,-79,70
467,-7577,-5,364,-4756,23,-174,-78,70
468,-7576,-3,366,-4757,23,-174,-78,69
469,-7576,-6,369,-4756,23,-175,-78,71
470,-7579,-5,358,-4755,23,-175,-78,70
471,-7575,0,359,-4756,23,-175,-77,70
472,-7575,1,362,-4756,23,-174,-77,69
473,-7579,-2,366,-4756,23,-173,-76,69
474,-7581,4,369,-4758,23,-173,-76,70
475,-7581,2,373,-4757,23,-172,-76,69
476,-7583,-1,371,-4757,23,-172,-76,71
477,-7579,-5,369,-4757,23,-171,-77,70
478,-7576,-7,371,-4758,23,-172,-77,70
479,-7575,-10,373,-4756,23,-172,-76,70
480,-7577,-11,379,-4756,23,-172,-77,70
481,-7580,-9,384,-4758,23,-173,-77,70
482,-7579,-6,382,-4760,22,-174,-77,71
483,-7577,-4,377,-4761,22,-174,-76,71
484,-7578,-1,377,-4761,22,-174,-76,71
485,-7575,-5,367,-4758,23,-175,-75,71
486,-7575,-5,367,-4759,23,-175,-75,70
487,-7574,-6,365,-4760,22,-176,-76,70
488,-7578,-3,359,-4759,23,-176,-76,72
489,-7576,0,353,-4760,22,-176,-77,71
490,-7580,1,359,-4761,22,-175,-78,71
491,-7585,0,361,-4763,22,-176,-78,70
492,-7580,-2,358,-4763,22,-176,-76,70
493,-7579,1,360,-4763,22,-176,-76,70
494,-7579,3,358,-4761,22,-176,-77,71
495,-7580,2,360,-4760,22,-176,-76,71
496,-7575,2,370,-4760,22,-175,-76,71
497,-7578,-2,365,-4761,22,-175,-76,70
498,-7579,-2,362,-4760,22,-174,-76,69
499,-7575,0,365,-4759,23,-175,-76,69
500,-7575,2,373,-4758,23,-175,-77,70
501,-7571,5,367,-4758,23,-174,-76,69
502,-7570,-3,368,-4757,23,-174,-76,70
503,-7575,-2,372,-4759,23,-174,-77,70
504,-7576,-8,372,-4757,23,-174,-77,70
505,-7576,-6,373,-4756,23,-175,-76,69
506,-7576,-11,371,-4757,23,-174,-76,69
507,-7572,-16,374,-4756,23,-174,-76,68
508,-7575,-12,370,-4758,23,-173,-76,69
509,-7577,-12,379,-4759,23,-173,-78,69
510,-7574,-11,384,-4760,22,-173,-78,69
511,-7575,-8,382,-4760,22,-174,-77,69
512,-7576,-10,380,-4761,22,-175,-76,69
513,-7573,-6,373,-4760,22,-175,-77,69
514,-7574,-2,373,-4758,23,-175,-77,69
515,-7574,-5,381,-4759,23,-175,-77,69
516,-7575,-4,378,-4760,22,-174,-77,69
517,-7573,-6,378,-4758,23,-174,-76,69
518,-7574,-10,375,-4758,23,-173,-76,69
519,-7574,-11,368,-4759,23,-175,-76,69
520,-7572,-12,374,-4760,22,-174,-77,69
521,-7574,-12,369,-4760,22,-174,-76,70
522,-7578,-7,363,-4758,23,-174,-76,70
523,-7582,-4,364,-4760,22,-174,-75,69
524,-7579,-9,358,-4760,22,-174,-76,69
525,-7572,-7,356,-4759,23,-175,-75,67
526,-7576,-3,354,-4757,23,-174,-75,68
527,-7579,-4,357,-4758,23,-174,-76,68
528,-7581,-4,361,-4758,23,-175,-76,69
529,-7578,-3,365,-4759,23,-175,-76,70
530,-7575,-2,368,-4759,23,-175,-77,69
531,-7572,-4,372,-4760,22,-174,-77,69
532,-7575,-4,374,-4760,22,-174,-77,68
533,-7574,-3,373,-4760,22,-173,-77,68
534,-7573,-6,366,-4759,23,-173,-77,68
535,-7568,-6,364,-4760,22,-172,-76,68
536,-7566,-7,368,-4760,22,-172,-76,68
537,-7568,-4,373,-4760,22,-173,-77,69
538,-7567,-6,371,-4759,23,-174,-77,69
539,-7561,-5,370,-4759,23,-174,-76,69
540,-7564,-4,366,-4760,22,-173,-76,69
541,-7570,0,362,-4759,23,-174,-76,70
542,-7572,-3,370,-4759,23,-175,-77,70
543,-7577,-2,371,-4760,22,-173,-77,69
544,-7582,-8,377,-4758,23,-174,-77,69
545,-7583,-8,373,-4760,22,-174,-77,70
546,-7581,-11,374,-4758,23,-174,-77,69
547,-7585,-7,373,-4758,23,-173,-78,70
548,-7578,-3,372,-4760,22,-174,-77,71
549,-7580,-8,373,-4759,23,-174,-77,70
550,-7576,-11,373,-4757,23,-175,-78,70
551,-7574,-12,372,-4757,23,-175,-78,70
552,-7573,-7,376,-4758,23,-174,-78,70
553,-7574,-4,373,-4758,23,-174,-78,69
554,-7578,-3,379,-4757,23,-174,-78,69
555,-7576,-5,377,-4756,23,-174,-78,70
556,-7579,-4,375,-4757,23,-173,-78,71
557,-7579,-1,376,-4755,23,-172,-78,70
558,-7580,3,381,-4757,23,-172,-78,70
559,-7581,-2,380,-4757,23,-173,-77,70
560,-7580,-6,373,-4757,23,-174,-77,69
561,-7584,-5,372,-4759,23,-174,-77,69
562,-7584,-5,364,-4759,23,-174,-76,68
563,-7578,-4,364,-4760,22,-173,-76,69
564,-7583,0,362,-4759,23,-172,-77,68
565,-7581,-1,365,-4757,23,-173,-78,68
566,-7576,-2,372,-4757,23,-173,-78,68
567,-7577,-5,375,-4757,23,-173,-77,68
568,-7578,-7,377,-4756,23,-173,-77,68
569,-7580,-4,371,-4756,23,-172,-77,68
570,-7581,-7,370,-4756,23,-172,-76,68
571,-7578,-10,374,-4755,23,-173,-78,68
572,-7574,-8,376,-4754,23,-173,-77,68
573,-7577,-8,365,-4755,23,-173,-78,69
574,-7577,-12,366,-4757,23,-172,-77,68
575,-7581,-11,366,-4758,23,-173,-77,68
576,-7582,-8,369,-4759,23,-173,-76,68
577,-7582,-7,369,-4759,23,-174,-77,68
578,-7581,-8,363,-4760,22,-174,-77,68
579,-7585,-9,366,-4759,23,-173,-77,68
580,-7589,-10,372,-4758,23,-173,-77,69
581,-7586,-8,375,-4758,23,-173,-77,69
582,-7581,-7,370,-4757,23,-174,-77,68
583,-7581,-1,374,-4759,23,-175,-76,69
584,-7583,-3,369,-4758,23,-175,-76,68
585,-7577,-3,369,-4757,23,-174,-77,69
586,-7574,-1,374,-4756,23,-175,-77,68
587,-7573,4,371,-4756,23,-176,-76,69
588,-7577,2,367,-4756,23,-175,-76,69
589,-7577,0,370,-4758,23,-176,-76,69
590,-7577,-2,367,-4758,23,-176,-76,69
591,-7582,-3,366,-4757,23,-176,-76,68
592,-7579,-6,360,-4757,23,-175,-77,69
593,-7580,-6,363,-4756,23,-176,-77,67
594,-7576,-6,367,-4756,23,-175,-76,67
595,-7577,-9,365,-4755,23,-175,-76,68
596,-7577,-7,363,-4756,23,-174,-77,68
597,-7575,-7,367,-4756,23,-174,-78,69
598,-7574,-2,364,-4756,23,-174,-78,68
599,-7573,0,372,-4757,23,-175,-79,69
600,-7574,-3,371,-4759,23,-175,-78,69
601,-7572,-7,374,-4760,22,-176,-77,70
602,-7575,-5,376,-4760,22,-175,-77,70
603,-7573,-2,378,-4760,22,-174,-76,69
604,-7578,1,371,-4761,22,-175,-76,69
605,-7578,-1,370,-4762,22,-175,-77,69
606,-7576,-5,370,-4761,22,-175,-76,70
607,-7574,-5,365,-4761,22,-174,-76,69
608,-7576,-6,363,-4759,23,-173,-76,69
609,-7579,-2,362,-4758,23,-174,-76,69
610,-7576,-6,365,-4758,23,-175,-77,69
611,-7576,-4,363,-4758,23,-175,-76,70
612,-7579,-1,373,-4756,23,-176,-76,68
613,-7578,5,376,-4754,23,-176,-76,67
614,-7578,4,372,-4755,23,-175,-77,68
615,-7577,-4,370,-4755,23,-175,-77,68
616,-7581,-8,374,-4755,23,-176,-78,68
617,-7581,-8,370,-4756,23,-175,-77,67
618,-7580,-9,363,-4756,23,-175,-79,68
619,-7584,-4,366,-4758,23,-174,-79,68
620,-7581,-5,372,-4758,23,-175,-78,67
621,-7584,-8,366,-4757,23,-174,-77,68
622,-7582,-7,362,-4757,23,-174,-76,68
623,-7581,-1,365,-4758,23,-174,-76,68
624,-7578,-6,365,-4757,23,-174,-77,68
625,-7581,-7,365,-4758,23,-173,-77,68
626,-7578,-9,365,-4758,23,-174,-77,70
627,-7577,-6,372,-4759,23,-174,-76,70
628,-7580,-8,370,-4760,22,-173,-78,69
629,-7580,-9,368,-4761,22,-173,-79,69
630,-7576,-7,370,-4759,23,-173,-79,69
631,-7577,-10,369,-4759,23,-173,-78,69
632,-7577,-11,368,-4759,23,-173,-78,70
633,-7577,-6,364,-4759,23,-173,-77,69
634,-7579,-1,360,-4760,22,-172,-76,70
635,-7578,-4,360,-4759,23,-173,-76,70
636,-7574,0,362,-4757,23,-172,-76,70
637,-7577,-2,364,-4757,23,-173,-76,70
638,-7575,-5,370,-4756,23,-173,-77,70
639,-7573,-4,369,-4757,23,-173,-77,70
640,-7569,-3,369,-4756,23,-174,-77,70
641,-7577,-6,368,-4756,23,-174,-78,69
642,-7572,-7,359,-4756,23,-173,-78,69
643,-7575,-8,363,-4757,23,-173,-79,69
644,-7576,-3,366,-4756,23,-174,-78,68
645,-7576,-1,371,-4755,23,-174,-78,68
646,-7574,-1,382,-4755,23,-173,-77,68
647,-7575,-6,385,-4754,23,-174,-78,69
648,-7577,-8,378,-4752,23,-174,-78,68
649,-7574,-5,376,-4753,23,-175,-77,68
650,-7575,-3,379,-4753,23,-175,-77,68
651,-7578,-4,380,-4753,23,-175,-78,67
652,-7576,-12,380,-4754,23,-175,-77,67
653,-7577,-6,369,-4755,23,-174,-76,68
654,-7580,-5,363,-4754,23,-175,-77,68
655,-7574,-6,366,-4754,23,-175,-76,68
656,-7577,-9,362,-4753,23,-176,-75,68
657,-7574,-6,359,-4753,23,-175,-75,69
658,-7570,-9,365,-4753,23,-176,-76,69
659,-7572,-6,375,-4755,23,-176,-77,68
660,-7574,-6,380,-4756,23,-175,-78,69
661,-7574,-4,381,-4756,23,-174,-79,69
662,-7571,-9,377,-4756,23,-175,-79,69
663,-7573,-14,381,-4756,23,-174,-77,69
664,-7574,-9,375,-4756,23,-175,-78,69
665,-7573,-8,370,-4757,23,-173,-77,68
666,-7575,-4,371,-4758,23,-174,-78,69
667,-7580,-1,370,-4758,23,-175,-79,69
668,-7576,-6,370,-4757,23,-174,-79,70
669,-7573,-5,371,-4758,23,-172,-79,70
670,-7571,-6,374,-4756,23,-174,-78,70
671,-7572,-6,375,-4757,23,-176,-77,69
672,-7569,-6,374,-4756,23,-175,-78,69
673,-7568,-10,369,-4759,23,-175,-78,69
674,-7571,-11,371,-4758,23,-175,-77,69
675,-7568,-14,366,-4759,23,-175,-78,69
676,-7568,-13,363,-4757,23,-176,-78,69
677,-7569,-10,367,-4755,23,-175,-79,69
678,-7571,-2,371,-4755,23,-174,-79,70
679,-7572,-2,372,-4756,23,-174,-79,69
680,-7573,-2,376,-4756,23,-173,-78,70
681,-7572,0,368,-4754,23,-173,-78,71
682,-7572,-5,371,-4754,23,-173,-78,71
683,-7568,-2,371,-4755,23,-172,-79,69
684,-7573,-5,371,-4756,23,-172,-78,70
685,-7572,-7,368,-4755,23,-173,-78,69
686,-7577,-6,372,-4755,23,-174,-77,69
687,-7583,-5,369,-4755,23,-174,-77,71
688,-7581,-7,366,-4754,23,-174,-79,71
689,-7576,-10,365,-4756,23,-174,-77,70
690,-7574,-12,372,-4756,23,-174,-78,70
691,-7577,-13,372,-4755,23,-175,-78,71
692,-7581,-11,372,-4756,23,-175,-78,70
693,-7585,-5,375,-4756,23,-174,-78,68
694,-7584,-7,369,-4755,23,-174,-79,69
695,-7588,-9,367,-4757,23,-175,-79,68
696,-7583,-6,358,-4755,23,-175,-79,68
697,-7580,-9,358,-4753,23,-174,-79,68
698,-7579,-9,367,-4752,23,-174,-80,69
699,-7575,-10,367,-4752,23,-175,-80,69
700,-7571,-7,374,-4752,23,-173,-80,69
701,-7572,-7,381,-4752,23,-173,-79,69
702,-7574,-8,382,-4752,23,-174,-77,68
703,-7570,-11,377,-4753,23,-174,-77,68
704,-7573,-11,374,-4752,23,-174,-77,68
705,-7568,-11,370,-4751,23,-174,-76,69
706,-7575,-11,372,-4755,23,-174,-76,68
707,-7580,-11,366,-4756,23,-174,-76,69
708,-7583,-7,356,-4756,23,-174,-75,69
709,-7581,-8,359,-4755,23,-173,-75,69
710,-7581,-9,364,-4755,23,-174,-76,68
711,-7579,-8,364,-4753,23,-174,-77,69
712,-7576,-8,368,-4753,23,-173,-76,69
713,-7572,-10,368,-4755,23,-173,-76,68
714,-7572,-3,368,-4753,23,-172,-75,68
715,-7573,-2,369,-4753,23,-173,-76,68
716,-7574,-4,368,-4753,23,-173,-78,68
717,-7576,-10,370,-4752,23,-173,-77,68
718,-7581,-7,364,-4753,23,-172,-77,69
719,-7579,-6,366,-4754,23,-173,-78,69
720,-7582,-12,372,-4755,23,-174,-78,69
721,-7585,-13,374,-4755,23,-173,-77,70
722,-7585,-8,378,-4756,23,-173,-77,70
723,-7584,-9,379,-4758,23,-174,-77,70
724,-7581,-10,377,-4756,23,-174,-77,69
725,-7584,-10,376,-4757,23,-173,-77,70
726,-7581,-10,378,-4757,23,-174,-77,70
727,-7579,-7,372,-4754,23,-173,-78,71
728,-7580,-6,370,-4755,23,-174,-78,69
729,-7577,-2,378,-4757,23,-174,-77,68
730,-7576,-6,378,-4755,23,-173,-77,70
731,-7575,-4,371,-4757,23,-173,-77,70
732,-7578,-2,378,-4758,23,-173,-77,69
733,-7576,-4,379,-4757,23,-174,-77,70
734,-7580,-6,374,-4756,23,-174,-77,70
735,-7578,-5,374,-4755,23,-175,-75,71
736,-7574,-6,367,-4755,23,-176,-77,70
737,-7574,-7,372,-4756,23,-176,-78,70
738,-7574,-5,369,-4756,23,-176,-79,71
739,-7571,-7,370,-4757,23,-177,-79,70
740,-7570,-5,367,-4756,23,-176,-77,70
741,-7569,-11,364,-4756,23,-174,-77,69
742,-7573,-10,363,-4756,23,-175,-77,68
743,-7570,-6,364,-4757,23,-175,-76,69
744,-7572,-4,367,-4758,23,-175,-75,70
745,-7574,-1,367,-4756,23,-175,-76,69
746,-7571,-7,369,-4756,23,-175,-76,69
747,-7572,-8,370,-4758,23,-175,-74,69
748,-7575,-8,374,-4757,23,-175,-75,69
749,-7577,-7,376,-4759,23,-174,-75,70
750,-7575,-10,382,-4758,23,-175,-75,69
751,-7576,-8,374,-4759,23,-175,-75,70
752,-7578,-8,373,-4760,22,-175,-75,71
753,-7581,-8,373,-4762,22,-174,-77,70
754,-7577,-9,378,-4761,22,-173,-77,70
755,-7580,-3,373,-4761,22,-174,-76,69
756,-7584,0,375,-4761,22,-175,-78,69
757,-7586,-3,378,-4759,23,-175,-78,69
758,-7583,-7,383,-4756,23,-175,-77,70
759,-7581,-11,382,-4757,23,-174,-77,69
760,-7579,-9,375,-4758,23,-173,-77,68
761,-7580,-6,369,-4758,23,-174,-76,68
762,-7578,-8,371,-4758,23,-174,-75,69
763,-7577,-6,369,-4756,23,-173,-76,69
764,-7580,-3,366,-4757,23,-174,-76,69
765,-7579,-7,373,-4756,23,-175,-77,69
766,-7582,-5,375,-4755,23,-173,-77,70
767,-7580,-7,376,-4754,23,-174,-77,70
768,-7577,-6,378,-4754,23,-175,-77,70
769,-7575,-4,374,-4754,23,-175,-77,69
770,-7576,-4,374,-4755,23,-173,-77,69
771,-7577,1,374,-4754,23,-172,-77,69
772,-7573,2,376,-4753,23,-173,-78,69
773,-7579,-2,371,-4755,23,-173,-78,69
774,-7570,-2,371,-4755,23,-174,-77,69
775,-7570,-4,373,-4754,23,-174,-77,70
776,-7571,-3,374,-4754,23,-173,-77,70
777,-7575,1,373,-4756,23,-172,-77,70
778,-7578,-3,367,-4755,23,-172,-78,70
779,-7575,-3,365,-4756,23,-172,-77,69
780,-7574,-2,361,-4755,23,-172,-78,69
781,-7572,-2,362,-4756,23,-172,-78,70
782,-7574,-1,367,-4757,23,-173,-77,69
783,-7574,-2,367,-4758,23,-173,-76,69
784,-7574,-1,369,-4757,23,-173,-77,69
785,-7573,2,375,-4758,23,-173,-77,69
786,-7578,1,372,-4759,23,-173,-77,69
787,-7577,3,378,-4759,23,-172,-77,69
788,-7574,2,378,-4760,22,-174,-77,70
789,-7571,1,377,-4758,23,-174,-78,70
790,-7575,0,378,-4756,23,-174,-77,69
791,-7576,-4,378,-4757,23,-174,-78,69
792,-7573,-6,365,-4757,23,-174,-78,69
793,-7574,-7,368,-4757,23,-174,-78,69
794,-7576,-6,361,-4757,23,-174,-78,68
795,-7582,-5,363,-4757,23,-174,-76,68
796,-7580,-3,367,-4757,23,-175,-77,69
797,-7573,-6,373,-4757,23,-174,-77,68
798,-7573,-7,373,-4757,23,-174,-77,68
799,-7572,-4,372,-4755,23,-174,-76,68
800,-7572,-5,370,-4755,23,-173,-76,70
801,-7570,-9,370,-4756,23,-173,-76,71
802,-7567,-10,368,-4755,23,-173,-78,70
803,-7576,-6,368,-4756,23,-174,-77,70
804,-7574,-2,367,-4755,23,-175,-76,71
805,-7576,-2,363,-4755,23,-175,-77,70
806,-7576,-6,370,-4754,23,-176,-76,70
807,-7577,-5,374,-4755,23,-175,-75,70
808,-7577,-5,373,-4757,23,-174,-76,69
809,-7580,-9,373,-4754,23,-173,-76,68
810,-7585,-10,373,-4754,23,-172,-74,69
811,-7584,-10,372,-4755,23,-173,-74,69
812,-7584,-7,375,-4753,23,-173,-75,69
813,-7579,-8,366,-4754,23,-175,-75,69
814,-7576,-8,366,-4753,23,-173,-77,68
815,-7578,-8,372,-4754,23,-174,-77,69
816,-7577,-5,375,-4754,23,-173,-77,68
817,-7579,-5,368,-4754,23,-175,-78,68
818,-7575,-5,369,-4753,23,-175,-77,69
819,-7580,-6,374,-4753,23,-175,-77,70
820,-7583,-6,375,-4754,23,-176,-78,69
821,-7582,-8,372,-4754,23,-176,-78,68
822,-7579,-10,366,-4753,23,-175,-79,69
823,-7579,-9,370,-4754,23,-175,-78,69
824,-7575,-10,370,-4753,23,-175,-78,70
825,-7576,-8,382,-4753,23,-175,-77,69
826,-7576,-1,383,-4754,23,-176,-77,70
827,-7578,-7,387,-4755,23,-174,-79,70
828,-7578,-8,387,-4756,23,-174,-78,70
829,-7582,-7,377,-4756,23,-175,-78,69
830,-7581,-8,372,-4757,23,-175,-78,69
831,-7581,-11,366,-4755,23,-175,-79,69
832,-7582,-10,369,-4756,23,-175,-77,69
833,-7584,-11,369,-4756,23,-175,-77,70
834,-7577,-14,364,-4755,23,-173,-77,70
835,-7581,-12,368,-4755,23,-174,-77,70
836,-7577,-13,368,-4754,23,-174,-78,70
837,-7576,-4,375,-4754,23,-174,-76,70
838,-7576,-7,368,-4754,23,-174,-75,70
839,-7575,-7,367,-4752,23,-174,-76,69
840,-7577,-8,370,-4751,23,-173,-76,69
841,-7580,-14,365,-4752,23,-173,-75,69
842,-7584,-10,361,-4754,23,-174,-74,69
843,-7585,-8,355,-4753,23,-172,-74,68
844,-7588,-9,352,-4754,23,-172,-74,67
845,-7590,-7,355,-4754,23,-173,-75,69
846,-7589,-10,364,-4755,23,-173,-76,69
847,-7589,-7,368,-4755,23,-172,-77,70
848,-7588,-4,373,-4755,23,-172,-76,70
849,-7586,-8,362,-4755,23,-173,-76,70
850,-7583,-10,357,-4754,23,-173,-76,70
851,-7584,-8,359,-4754,23,-174,-77,70
852,-7581,-3,358,-4755,23,-173,-76,68
853,-7581,-5,362,-4756,23,-173,-77,69
854,-7578,-5,360,-4754,23,-173,-77,68
855,-7581,-4,367,-4754,23,-172,-78,68
856,-7581,-6,368,-4755,23,-173,-77,68
857,-7584,-6,373,-4756,23,-173,-78,68
858,-7584,-1,364,-4757,23,-174,-78,68
859,-7578,-4,366,-4757,23,-173,-78,69
860,-7582,-6,365,-4757,23,-174,-78,69
861,-7579,-6,368,-4758,23,-174,-77,70
862,-7572,-4,366,-4760,22,-174,-76,69
863,-7572,-5,368,-4758,23,-173,-77,69
864,-7572,-10,370,-4756,23,-174,-76,69
865,-7573,-13,372,-4754,23,-174,-75,69
866,-7573,-10,368,-4754,23,-174,-77,69
867,-7570,-10,370,-4754,23,-174,-77,69
868,-7572,-8,376,-4753,23,-174,-78,69
869,-7570,-6,372,-4754,23,-174,-78,69
870,-7574,-6,369,-4753,23,-175,-78,69
871,-7575,-8,368,-4752,23,-175,-78,69
872,-7578,-7,366,-4752,23,-174,-79,69
873,-7578,-7,366,-4755,23,-174,-78,69
874,-7579,-1,369,-4757,23,-174,-78,70
875,-7582,-5,369,-4755,23,-176,-78,68
876,-7582,-4,376,-4754,23,-175,-78,68
877,-7586,-5,381,-4754,23,-175,-77,69
878,-7589,-8,380,-4752,23,-174,-77,69
879,-7583,-7,378,-4753,23,-174,-77,70
880,-7583,-3,375,-4754,23,-175,-78,70
881,-7586,-2,375,-4754,23,-175,-78,69
882,-7584,-5,376,-4753,23,-175,-77,69
883,-7584,-3,374,-4754,23,-175,-79,68
884,-7584,-4,373,-4754,23,-174,-79,68
885,-7587,-8,364,-4754,23,-174,-79,67
886,-7580,-9,358,-4752,23,-174,-79,67
887,-7586,-10,360,-4752,23,-174,-78,67
888,-7586,-10,367,-4753,23,-174,-78,68
889,-7579,-9,367,-4752,23,-174,-77,68
890,-7585,-10,371,-4753,23,-175,-76,67
891,-7579,-8,367,-4754,23,-175,-77,67
892,-7583,-9,371,-4755,23,-175,-77,67
893,-7582,-9,372,-4755,23,-174,-77,68
894,-7583,-6,372,-4755,23,-175,-78,67
895,-7582,-8,373,-4754,23,-174,-78,68
896,-7582,-14,368,-4753,23,-174,-79,67
897,-7581,-9,375,-4753,23,-173,-78,68
898,-7581,-5,376,-4752,23,-173,-78,69
899,-7574,-4,375,-4752,23,-172,-77,70
900,-7571,-5,369,-4752,23,-173,-77,70
901,-7572,-8,361,-4753,23,-173,-77,69
902,-7573,-6,358,-4752,23,-173,-77,68
903,-7572,-2,360,-4752,23,-173,-78,68
904,-7568,-2,368,-4753,23,-174,-77,67
905,-7572,-3,364,-4752,23,-174,-78,68
906,-7574,-2,360,-4753,23,-173,-77,68
907,-7571,-1,364,-4754,23,-173,-77,68
908,-7574,1,369,-4755,23,-174,-77,68
909,-7578,-3,371,-4755,23,-173,-78,68
910,-7575,-3,369,-4754,23,-173,-78,68
911,-7576,0,364,-4752,23,-173,-77,67
912,-7579,-1,372,-4753,23,-174,-76,67
913,-7573,-3,370,-4754,23,-175,-77,67
914,-7572,-5,369,-4753,23,-174,-77,67
915,-7567,-7,373,-4753,23,-174,-78,68
916,-7570,-5,373,-4752,23,-174,-78,68
917,-7576,-3,375,-4752,23,-175,-78,68
918,-7579,-5,373,-4753,23,-173,-78,68
919,-7582,-3,372,-4755,23,-174,-79,69
920,-7578,-6,374,-4754,23,-175,-79,68
921,-7577,-2,371,-4754,23,-175,-79,68
922,-7581,-1,368,-4755,23,-174,-79,68
923,-7582,-5,360,-4755,23,-174,-78,69
924,-7580,-1,367,-4754,23,-175,-78,69
925,-7575,-1,380,-4754,23,-175,-78,69
926,-7573,-6,379,-4751,23,-175,-79,69
927,-7574,-9,371,-4752,23,-175,-78,69
928,-7579,-5,371,-4751,23,-175,-79,69
929,-7581,-5,370,-4752,23,-174,-79,68
930,-7582,-2,366,-4753,23,-174,-78,68
931,-7585,-2,373,-4752,23,-174,-78,69
932,-7583,-2,374,-4752,23,-172,-78,69
933,-7580,-7,372,-4751,23,-173,-79,67
934,-7581,-11,373,-4751,23,-174,-79,68
935,-7579,-3,379,-4752,23,-174,-78,69
936,-7578,-2,376,-4754,23,-174,-78,68
937,-7583,-3,382,-4754,23,-172,-78,68
938,-7581,0,386,-4753,23,-172,-79,68
939,-7576,-1,376,-4753,23,-172,-78,69
940,-7572,0,376,-4754,23,-173,-78,68
941,-7576,-1,373,-4754,23,-173,-77,68
942,-7571,-1,378,-4752,23,-173,-78,68
943,-7575,0,371,-4752,23,-174,-78,69
944,-7570,0,365,-4751,23,-175,-76,69
945,-7578,1,364,-4752,23,-175,-77,69
946,-7574,8,360,-4751,23,-174,-77,69
947,-7575,3,358,-4753,23,-175,-78,69
948,-7575,1,365,-4753,23,-175,-77,70
949,-7578,-6,368,-4755,23,-174,-77,69
950,-7578,-7,371,-4754,23,-173,-78,69
951,-7578,-5,374,-4754,23,-173,-77,69
952,-7580,-6,374,-4753,23,-174,-76,69
953,-7572,-8,372,-4754,23,-174,-77,69
954,-7572,-6,369,-4754,23,-173,-77,69
955,-7574,-5,365,-4754,23,-173,-77,68
956,-7577,-10,362,-4755,23,-175,-76,69
957,-7576,-10,365,-4754,23,-174,-76,70
958,-7579,-10,364,-4754,23,-174,-76,70
959,-7581,-8,366,-4752,23,-174,-76,69
960,-7575,-7,374,-4752,23,-174,-77,70
961,-7579,-7,368,-4752,23,-174,-78,70
962,-7577,-8,378,-4753,23,-175,-77,70
963,-7584,-8,371,-4755,23,-174,-77,69
964,-7583,-4,380,-4755,23,-175,-76,69
965,-7584,-1,379,-4755,23,-175,-75,69
966,-7581,-2,373,-4754,23,-174,-76,69
967,-7583,0,374,-4756,23,-174,-77,69
968,-7583,-2,374,-4754,23,-173,-78,69
969,-7585,-3,368,-4754,23,-173,-77,69
970,-7582,-7,379,-4753,23,-173,-76,68
971,-7586,-10,374,-4755,23,-173,-78,68
972,-7589,-10,373,-4756,23,-174,-77,69
973,-7586,-11,371,-4756,23,-173,-77,69
974,-7586,-10,369,-4755,23,-172,-77,69
975,-7584,-7,366,-4755,23,-173,-77,69
976,-7582,-4,361,-4755,23,-172,-77,68
977,-7580,-7,365,-4755,23,-174,-78,68
978,-7579,-5,371,-4755,23,-173,-77,67
979,-7585,-8,369,-4753,23,-174,-77,67
980,-7584,-5,368,-4753,23,-174,-77,68
981,-7585,-4,365,-4755,23,-175,-76,69
982,-7582,-2,365,-4755,23,-175,-75,70
983,-7584,-4,365,-4753,23,-174,-76,68
984,-7586,-5,371,-4753,23,-175,-76,68
985,-7584,-2,366,-4754,23,-174,-76,67
986,-7581,1,365,-4755,23,-172,-77,68
987,-7578,4,371,-4753,23,-173,-78,69
988,-7581,0,371,-4753,23,-173,-77,69
989,-7579,3,370,-4755,23,-173,-76,70
990,-7580,-3,373,-4757,23,-174,-77,69
991,-7574,-8,369,-4756,23,-173,-77,70
992,-7572,-6,367,-4755,23,-173,-75,70
993,-7575,-10,375,-4754,23,-174,-76,69
994,-7572,-7,374,-4754,23,-172,-76,70
995,-7570,-17,371,-4754,23,-172,-77,71
996,-7574,-16,370,-4755,23,-173,-77,70
997,-7577,-12,371,-4755,23,-173,-78,70
998,-7576,-7,372,-4755,23,-174,-79,70
