,acc_X,acc_Y,acc_Z,temp,tempC,gyr_X,gyr_Y,gyr_Z
0,-15186,66,774,-4705,23,-341,-149,134
1,-15156,20,560,-4690,23,-344,-153,146
2,-15154,-2,840,-4711,23,-377,-151,132
3,-15188,-32,776,-4719,23,-350,-151,126
4,-15130,-6,790,-4702,23,-358,-166,168
5,-15182,-32,672,-4707,23,-338,-165,144
6,-15150,60,768,-4720,23,-307,-172,127
7,-15112,-12,724,-4710,23,-343,-144,133
8,-15146,30,714,-4703,23,-337,-144,145
9,-15212,22,692,-4711,23,-354,-166,154
10,-15252,-68,808,-4709,23,-345,-163,145
11,-15166,-12,730,-4698,23,-332,-143,141
12,-15082,-44,822,-4718,23,-352,-142,126
13,-15110,10,632,-4708,23,-354,-154,122
14,-15130,54,678,-4715,23,-347,-146,137
15,-15238,-54,746,-4703,23,-353,-143,140
16,-15038,-8,670,-4711,23,-335,-159,139
17,-15214,8,874,-4708,23,-362,-161,136
18,-15154,-6,750,-4707,23,-357,-144,133
19,-15104,32,866,-4708,23,-348,-144,144
20,-15248,-16,766,-4710,23,-357,-153,131
21,-15176,22,890,-4713,23,-349,-147,135
22,-15140,4,754,-4705,23,-355,-141,139
23,-15092,52,762,-4713,23,-354,-174,140
24,-15096,10,668,-4698,23,-349,-177,132
25,-15256,64,756,-4706,23,-333,-165,130
26,-15100,-6,788,-4709,23,-349,-149,146
27,-15106,-70,720,-4719,23,-336,-143,137
28,-15134,72,850,-4697,23,-343,-168,123
29,-15210,-60,802,-4713,23,-328,-151,144
30,-15196,64,832,-4688,23,-345,-166,148
31,-15132,56,712,-4717,23,-349,-167,134
32,-15182,-24,710,-4725,23,-336,-169,142
33,-15178,-56,682,-4704,23,-340,-155,148
34,-15098,-30,666,-4705,23,-333,-136,142
35,-15142,-34,760,-4702,23,-351,-146,159
36,-15128,-54,730,-4708,23,-346,-147,146
37,-15224,-40,696,-4705,23,-344,-160,136
38,-15232,-68,794,-4711,23,-339,-156,142
39,-15120,-30,790,-4706,23,-360,-172,144
40,-15136,-48,774,-4710,23,-333,-160,150
41,-15136,-20,720,-4708,23,-348,-160,151
42,-15174,2,784,-4698,23,-348,-143,153
43,-15160,6,794,-4698,23,-339,-168,153
44,-15120,-18,778,-4710,23,-348,-145,136
45,-15148,-8,776,-4705,23,-357,-165,142
46,-15258,0,770,-4714,23,-344,-158,139
47,-15092,30,736,-4696,23,-333,-149,123
48,-15180,-44,656,-4701,23,-355,-160,144
49,-15104,-14,758,-4704,23,-353,-154,154
50,-15120,10,690,-4711,23,-344,-161,129
51,-15114,14,850,-4705,23,-364,-160,129
52,-15122,28,902,-4702,23,-338,-155,149
53,-15178,40,834,-4696,23,-345,-145,141
54,-15274,34,692,-4708,23,-351,-166,148
55,-15138,-22,732,-4710,23,-347,-150,137
56,-15214,-8,764,-4714,23,-347,-143,124
57,-15180,-12,694,-4709,23,-358,-155,140
58,-15182,-10,728,-4722,23,-353,-143,124
59,-15214,48,724,-4709,23,-347,-131,135
60,-15096,24,770,-4719,23,-337,-172,134
61,-15164,12,618,-4705,23,-354,-148,127
62,-15164,36,858,-4710,23,-364,-159,144
63,-15196,66,846,-4700,23,-355,-142,149
64,-15228,32,696,-4705,23,-360,-161,143
65,-15172,58,744,-4690,23,-344,-145,162
66,-15102,4,790,-4695,23,-345,-177,139
67,-15114,-42,818,-4690,23,-354,-155,141
68,-15158,18,660,-4707,23,-336,-159,146
69,-15116,-70,744,-4697,23,-347,-157,131
70,-15190,-34,796,-4712,23,-353,-157,144
71,-15124,-18,734,-4707,23,-354,-157,141
72,-15106,-20,838,-4706,23,-331,-174,123
73,-15180,-44,690,-4692,23,-355,-161,152
74,-15234,48,720,-4713,23,-338,-165,135
75,-15240,-46,844,-4709,23,-336,-152,132
76,-15192,-4,702,-4713,23,-343,-157,136
77,-15084,-28,678,-4694,23,-344,-145,159
78,-15142,-6,738,-4709,23,-343,-163,141
79,-15196,26,728,-4693,23,-356,-158,142
80,-15144,-38,794,-4707,23,-339,-157,141
81,-15140,22,720,-4708,23,-353,-154,155
82,-15150,98,730,-4699,23,-352,-163,130
83,-15224,-84,702,-4701,23,-340,-158,148
84,-15218,16,768,-4699,23,-335,-161,144
85,-15158,-14,774,-4701,23,-348,-158,130
86,-15192,0,804,-4717,23,-360,-148,147
87,-15122,26,836,-4710,23,-349,-146,127
88,-15126,32,794,-4706,23,-342,-130,133
89,-15118,10,756,-4690,23,-352,-157,148
90,-15138,-52,808,-4703,23,-336,-155,140
91,-15114,-60,818,-4704,23,-338,-142,140
92,-15126,70,718,-4703,23,-346,-147,151
93,-15200,-12,664,-4711,23,-337,-168,145
94,-15130,-26,724,-4716,23,-351,-156,130
95,-15244,28,784,-4701,23,-336,-157,135
96,-15178,-112,804,-4701,23,-359,-160,132
97,-15114,-26,712,-4706,23,-350,-156,138
98,-15142,-60,700,-4708,23,-332,-180,136
99,-15148,-82,704,-4705,23,-339,-144,144
100,-15094,34,748,-4716,23,-339,-167,142
101,-15164,-18,776,-4693,23,-355,-154,151
102,-15234,-14,854,-4702,23,-339,-153,152
103,-15106,-72,794,-4710,23,-334,-172,130
104,-15154,-82,612,-4698,23,-359,-163,144
105,-15130,-42,618,-4705,23,-352,-178,135
106,-15122,-40,802,-4700,23,-350,-156,127
107,-15106,-4,602,-4689,23,-349,-152,141
108,-15138,100,718,-4700,23,-340,-169,125
109,-15192,2,644,-4718,23,-345,-148,155
110,-15078,-74,578,-4705,23,-345,-137,141
111,-15148,-112,718,-4711,23,-353,-146,140
112,-15086,46,724,-4701,23,-345,-161,130
113,-15190,-44,838,-4705,23,-340,-150,155
114,-15196,-28,804,-4701,23,-348,-143,132
115,-15160,-58,844,-4715,23,-339,-142,128
116,-15266,62,694,-4699,23,-334,-144,145
117,-15184,6,708,-4699,23,-330,-155,140
118,-15174,-20,818,-4701,23,-347,-158,132
119,-15158,12,752,-4710,23,-359,-147,153
120,-15186,-22,776,-4713,23,-333,-142,136
121,-15138,30,754,-4706,23,-361,-161,147
122,-15154,2,808,-4698,23,-320,-152,147
123,-15168,16,700,-4702,23,-346,-141,143
124,-15170,-44,778,-4703,23,-331,-159,144
125,-15152,-20,730,-4711,23,-348,-146,148
126,-15232,-72,744,-4694,23,-352,-166,133
127,-15148,-56,856,-4693,23,-329,-141,129
128,-15116,-14,730,-4707,23,-349,-148,133
129,-15116,36,668,-4716,23,-350,-154,149
130,-15152,28,728,-4705,23,-344,-159,140
131,-15102,-20,714,-4709,23,-328,-148,140
132,-15176,-24,868,-4699,23,-339,-153,138
133,-15114,8,724,-4711,23,-352,-151,141
134,-15128,18,768,-4702,23,-338,-140,154
135,-15262,-8,738,-4713,23,-338,-170,154
136,-15122,2,734,-4695,23,-336,-147,135
137,-15102,44,840,-4706,23,-339,-161,139
138,-15208,-46,750,-4696,23,-350,-178,160
139,-15216,-34,838,-4700,23,-355,-156,140
140,-15274,28,638,-4704,23,-344,-154,144
141,-15088,42,662,-4718,23,-343,-155,131
142,-15208,2,762,-4695,23,-360,-161,147
143,-15146,-36,754,-4716,23,-333,-164,134
144,-15234,-16,762,-4711,23,-353,-156,140
145,-15180,4,734,-4700,23,-347,-148,133
146,-15132,-22,668,-4717,23,-344,-147,141
147,-15146,44,742,-4707,23,-334,-148,133
148,-15180,58,750,-4715,23,-353,-162,149
149,-15186,-38,822,-4698,23,-352,-152,152
150,-15170,46,692,-4693,23,-340,-167,134
151,-15114,20,768,-4712,23,-330,-137,138
152,-15104,56,782,-4708,23,-339,-156,130
153,-15164,16,770,-4693,23,-362,-149,146
154,-15200,-40,724,-4697,23,-356,-169,144
155,-15104,-36,708,-4696,23,-339,-151,146
156,-15158,-70,702,-4697,23,-342,-155,145
157,-15176,14,834,-4701,23,-336,-143,145
158,-15062,0,726,-4706,23,-336,-141,130
159,-15090,-26,786,-4713,23,-339,-149,128
160,-15170,-84,742,-4719,23,-340,-154,135
161,-15118,-10,778,-4700,23,-356,-143,144
162,-15204,34,650,-4714,23,-353,-151,156
163,-15168,-58,642,-4698,23,-361,-160,136
164,-15166,-32,806,-4702,23,-351,-169,143
165,-15186,24,770,-4709,23,-335,-145,144
166,-15176,-38,756,-4701,23,-350,-145,141
167,-15164,-26,774,-4709,23,-335,-167,124
168,-15244,50,810,-4705,23,-348,-141,136
169,-15084,12,656,-4699,23,-337,-149,148
170,-15148,-36,698,-4704,23,-343,-161,133
171,-15200,-34,750,-4713,23,-339,-144,132
172,-15076,26,686,-4702,23,-354,-142,135
173,-15168,-52,806,-4709,23,-332,-149,148
174,-15164,14,720,-4709,23,-348,-145,142
175,-15172,-42,662,-4701,23,-359,-159,143
176,-15174,-96,718,-4704,23,-338,-137,139
177,-15226,-44,752,-4691,23,-350,-164,141
178,-15158,46,780,-4698,23,-340,-149,153
179,-15196,-30,748,-4717,23,-358,-162,141
180,-15214,18,692,-4697,23,-358,-157,134
181,-15120,28,666,-4703,23,-350,-158,136
182,-15186,2,816,-4708,23,-360,-144,136
183,-15182,-44,782,-4706,23,-343,-164,142
184,-15142,26,750,-4705,23,-345,-168,134
185,-15086,-6,746,-4695,23,-355,-149,139
186,-15154,-12,668,-4707,23,-329,-151,127
187,-15194,-2,762,-4700,23,-352,-155,139
188,-15078,-54,720,-4705,23,-346,-131,146
189,-15220,44,726,-4707,23,-347,-161,134
190,-15128,-8,830,-4710,23,-339,-155,147
191,-15176,-2,800,-4685,23,-345,-167,152
192,-15118,58,858,-4704,23,-352,-131,129
193,-15208,-12,654,-4698,23,-340,-164,127
194,-15094,-44,724,-4715,23,-338,-168,129
195,-15154,-32,764,-4698,23,-342,-155,152
196,-15126,-40,836,-4707,23,-354,-159,143
197,-15128,-2,756,-4691,23,-346,-135,138
198,-15168,-20,834,-4707,23,-352,-154,142
199,-15160,-64,734,-4697,23,-353,-145,149
200,-15112,-54,720,-4697,23,-344,-161,134
201,-15116,-28,708,-4706,23,-340,-155,157
202,-15146,-38,742,-4702,23,-351,-171,150
203,-15114,-4,848,-4702,23,-340,-160,137
204,-15112,-22,796,-4699,23,-357,-138,131
205,-15148,-36,676,-4704,23,-356,-153,144
206,-15198,16,700,-4696,23,-343,-159,150
207,-15156,46,728,-4701,23,-336,-142,135
208,-15128,-24,776,-4713,23,-342,-157,147
209,-15122,-52,672,-4718,23,-337,-152,151
210,-15120,18,742,-4698,23,-339,-151,134
211,-15142,-18,772,-4700,23,-352,-153,142
212,-15062,-102,770,-4704,23,-352,-137,134
213,-15090,4,678,-4716,23,-333,-143,134
214,-15172,24,738,-4704,23,-363,-150,163
215,-15196,-38,738,-4717,23,-347,-181,121
216,-15096,-14,848,-4701,23,-329,-150,149
217,-15120,-60,728,-4698,23,-372,-135,141
218,-15106,38,826,-4699,23,-357,-146,157
219,-15190,-26,772,-4700,23,-342,-154,137
220,-15112,18,778,-4708,23,-345,-161,134
221,-15156,44,646,-4699,23,-340,-169,141
222,-15134,-16,702,-4706,23,-345,-154,148
223,-15160,44,812,-4709,23,-349,-151,138
224,-15194,-12,642,-4714,23,-349,-145,127
225,-15136,-24,756,-4702,23,-354,-147,138
226,-15164,-72,682,-4704,23,-339,-158,144
227,-15172,-2,814,-4695,23,-349,-145,142
228,-15190,12,734,-4711,23,-339,-143,130
229,-15224,-58,760,-4694,23,-351,-156,143
230,-15134,-112,630,-4704,23,-348,-160,145
231,-15126,-48,682,-4701,23,-352,-162,130
232,-15148,-42,672,-4703,23,-339,-155,136
233,-15158,56,736,-4693,23,-343,-160,139
234,-15190,-26,806,-4699,23,-337,-163,147
235,-15110,0,730,-4709,23,-353,-170,125
236,-15210,-16,736,-4704,23,-338,-150,139
237,-15260,-18,670,-4697,23,-341,-148,134
238,-15150,-36,760,-4715,23,-351,-152,142
239,-15220,30,756,-4703,23,-337,-141,158
240,-15142,42,728,-4706,23,-346,-157,137
241,-15108,-56,786,-4712,23,-355,-159,135
242,-15138,-56,714,-4714,23,-351,-159,153
243,-15134,-30,750,-4705,23,-345,-160,153
244,-15148,20,750,-4701,23,-339,-146,144
245,-15108,-28,712,-4709,23,-352,-156,137
246,-15138,-102,842,-4705,23,-349,-163,145
247,-15182,4,778,-4707,23,-349,-159,137
248,-15128,-54,750,-4693,23,-351,-167,148
249,-15172,-48,726,-4710,23,-331,-150,138
250,-15114,-28,714,-4706,23,-351,-162,154
251,-15200,38,726,-4702,23,-344,-167,132
252,-15158,-80,756,-4702,23,-352,-154,144
253,-15216,50,872,-4697,23,-349,-146,128
254,-15154,-84,812,-4712,23,-335,-165,127
255,-15144,46,768,-4702,23,-349,-141,137
256,-15180,-50,754,-4701,23,-343,-138,130
257,-15022,82,710,-4705,23,-343,-155,138
258,-15126,-62,782,-4707,23,-336,-175,143
259,-15150,-16,820,-4705,23,-352,-174,130
260,-15148,24,722,-4692,23,-352,-145,141
261,-15122,-84,754,-4701,23,-333,-135,128
262,-15152,-48,864,-4714,23,-336,-138,155
263,-15176,-44,848,-4703,23,-340,-151,140
264,-15174,0,670,-4708,23,-335,-147,140
265,-15134,-2,778,-4699,23,-353,-160,149
266,-15148,42,818,-4697,23,-342,-160,118
267,-15116,-58,688,-4701,23,-347,-156,134
268,-15140,0,744,-4710,23,-338,-137,130
269,-15132,-10,778,-4685,23,-339,-138,135
270,-15182,2,664,-4709,23,-354,-170,135
271,-15196,12,678,-4703,23,-347,-143,151
272,-15136,-4,844,-4697,23,-339,-151,138
273,-15070,-60,742,-4695,23,-366,-168,137
274,-15094,-12,794,-4714,23,-338,-153,143
275,-15158,-2,686,-4687,23,-355,-164,137
276,-15078,6,924,-4705,23,-344,-155,126
277,-15134,60,586,-4714,23,-355,-158,131
278,-15122,14,778,-4717,23,-353,-140,140
279,-15090,40,628,-4696,23,-356,-148,139
280,-15126,38,694,-4713,23,-351,-166,148
281,-15108,-72,760,-4718,23,-337,-167,152
282,-15108,-8,850,-4693,23,-349,-171,143
283,-15120,-58,702,-4713,23,-363,-178,134
284,-15176,-24,746,-4701,23,-343,-162,157
285,-15166,8,816,-4704,23,-352,-161,143
286,-15216,34,798,-4709,23,-354,-173,137
287,-15128,-26,650,-4710,23,-350,-143,148
288,-15056,-42,812,-4704,23,-338,-147,151
289,-15098,-54,612,-4698,23,-335,-153,139
290,-15218,-26,776,-4709,23,-359,-160,134
291,-15196,54,722,-4715,23,-349,-143,131
292,-15180,20,734,-4689,23,-350,-162,131
293,-15182,-10,844,-4694,23,-354,-164,136
294,-15124,36,642,-4700,23,-336,-141,142
295,-15240,-58,734,-4712,23,-333,-151,142
296,-15176,42,892,-4707,23,-351,-159,148
297,-15142,-60,748,-4699,23,-343,-170,135
298,-15180,-34,682,-4700,23,-331,-153,131
299,-15200,30,648,-4705,23,-355,-141,139
300,-15182,28,594,-4699,23,-337,-157,151
301,-15138,-12,686,-4714,23,-334,-150,116
302,-15204,-42,744,-4699,23,-348,-144,149
303,-15148,-96,808,-4704,23,-351,-164,144
304,-15206,-38,778,-4698,23,-359,-161,127
305,-15168,-2,740,-4721,23,-331,-152,126
306,-15050,-8,616,-4703,23,-355,-163,148
307,-15218,34,684,-4709,23,-347,-138,131
308,-15226,-56,750,-4707,23,-358,-149,143
309,-15236,2,712,-4714,23,-354,-142,125
310,-15148,-4,780,-4688,23,-327,-137,133
311,-15166,-18,712,-4694,23,-335,-138,122
312,-15166,-60,754,-4709,23,-351,-153,135
313,-15110,-30,690,-4701,23,-357,-162,132
314,-15148,66,794,-4698,23,-347,-157,132
315,-15128,-60,722,-4710,23,-357,-141,145
316,-15180,6,786,-4707,23,-340,-163,134
317,-15140,-56,622,-4711,23,-355,-148,137
318,-15122,88,738,-4706,23,-355,-154,145
319,-15166,62,818,-4705,23,-341,-149,148
320,-15148,-10,748,-4701,23,-354,-164,151
321,-15182,48,820,-4685,23,-335,-155,137
322,-15180,38,820,-4699,23,-316,-160,139
323,-15220,-22,792,-4714,23,-346,-153,139
324,-15118,16,706,-4702,23,-361,-155,135
325,-15144,16,718,-4713,23,-336,-156,145
326,-15218,-8,814,-4718,23,-322,-138,126
327,-15134,-44,788,-4700,23,-338,-150,142
328,-15108,-2,762,-4711,23,-344,-144,139
329,-15176,-36,662,-4709,23,-329,-144,108
330,-15196,-98,834,-4710,23,-352,-155,124
331,-15128,-6,664,-4692,23,-351,-148,139
332,-15058,42,926,-4708,23,-345,-147,129
333,-15118,-56,760,-4698,23,-357,-180,143
334,-15146,-64,708,-4694,23,-348,-147,146
335,-15142,26,750,-4703,23,-345,-171,137
336,-15124,2,770,-4709,23,-348,-161,134
337,-15094,68,680,-4701,23,-353,-144,137
338,-15174,-26,774,-4704,23,-358,-144,149
339,-15088,-84,802,-4694,23,-350,-149,137
340,-15154,-76,752,-4698,23,-355,-159,148
341,-15120,4,698,-4706,23,-361,-149,152
342,-15126,-4,648,-4685,23,-324,-139,133
343,-15184,-6,646,-4710,23,-349,-168,155
344,-15154,-36,770,-4699,23,-345,-153,143
345,-15182,70,726,-4697,23,-354,-167,151
346,-15192,-8,800,-4705,23,-342,-161,136
347,-15184,34,632,-4699,23,-355,-164,133
348,-15216,28,704,-4692,23,-347,-148,130
349,-15094,128,680,-4699,23,-340,-147,137
350,-15158,10,734,-4697,23,-343,-148,151
351,-15134,-12,690,-4703,23,-345,-166,138
352,-15138,-2,726,-4705,23,-354,-162,148
353,-15096,-48,700,-4710,23,-332,-150,150
354,-15170,-16,662,-4692,23,-343,-153,132
355,-15176,-46,802,-4717,23,-355,-164,148
356,-15168,-30,720,-4699,23,-332,-153,150
357,-15190,32,694,-4704,23,-343,-154,140
358,-15190,-38,742,-4716,23,-362,-148,150
359,-15170,-40,772,-4709,23,-355,-145,142
360,-15110,-42,688,-4711,23,-346,-161,152
361,-15172,42,802,-4706,23,-320,-172,141
362,-15126,8,822,-4714,23,-325,-162,141
363,-15108,-8,720,-4692,23,-331,-151,140
364,-15190,30,764,-4708,23,-339,-149,121
365,-15146,-6,694,-4713,23,-354,-160,144
366,-15170,-20,716,-4701,23,-333,-152,135
367,-15188,8,808,-4697,23,-349,-155,126
368,-15184,-62,750,-4707,23,-341,-158,144
369,-15174,14,758,-4698,23,-344,-145,132
370,-15132,-32,794,-4689,23,-343,-150,132
371,-15174,-16,782,-4707,23,-348,-152,119
372,-15150,52,744,-4707,23,-341,-168,143
373,-15118,-46,694,-4697,23,-356,-142,142
374,-15148,6,762,-4706,23,-338,-147,129
375,-15166,-100,766,-4693,23,-332,-150,131
376,-15146,-68,830,-4710,23,-343,-165,144
377,-15098,18,818,-4695,23,-338,-147,142
378,-15176,16,704,-4703,23,-327,-151,149
379,-15212,10,672,-4706,23,-349,-161,147
380,-15100,-130,704,-4702,23,-358,-159,136
381,-15098,-4,752,-4693,23,-353,-147,129
382,-15144,6,732,-4696,23,-352,-149,152
383,-15186,42,848,-4717,23,-362,-180,151
384,-15106,44,746,-4718,23,-344,-157,141
385,-15228,-50,732,-4716,23,-350,-142,139
386,-15116,10,628,-4696,23,-332,-157,137
387,-15204,20,712,-4710,23,-356,-176,157
388,-15148,-38,798,-4716,23,-349,-156,148
389,-15074,-20,718,-4701,23,-352,-139,119
390,-15210,-18,696,-4708,23,-332,-166,133
391,-15064,-2,750,-4715,23,-351,-144,133
392,-15144,4,722,-4706,23,-347,-150,136
393,-15078,-10,784,-4711,23,-365,-168,146
394,-15192,-40,766,-4700,23,-350,-154,132
395,-15144,34,796,-4705,23,-343,-135,126
396,-15170,-84,786,-4695,23,-327,-146,137
397,-15242,-114,696,-4715,23,-345,-166,138
398,-15126,28,682,-4701,23,-337,-160,147
399,-15228,-64,794,-4702,23,-364,-165,125
400,-15106,-16,898,-4691,23,-354,-154,143
401,-15170,-6,740,-4707,23,-355,-170,146
402,-15158,-82,790,-4716,23,-359,-139,139
403,-15172,62,776,-4701,23,-338,-158,142
404,-15208,-30,688,-4707,23,-340,-177,135
405,-15146,0,840,-4699,23,-337,-155,137
406,-15220,-96,730,-4723,23,-337,-151,135
407,-15114,26,848,-4703,23,-350,-162,130
408,-15184,-4,776,-4706,23,-345,-149,141
409,-15068,-6,682,-4697,23,-353,-149,149
410,-15116,76,712,-4693,23,-338,-158,138
411,-15192,-22,660,-4701,23,-323,-150,129
412,-15154,-4,698,-4695,23,-344,-170,151
413,-15136,-38,752,-4699,23,-351,-150,145
414,-15208,34,806,-4710,23,-349,-146,134
415,-15110,-8,808,-4708,23,-352,-164,121
416,-15120,-62,686,-4722,23,-342,-151,133
417,-15240,-34,668,-4694,23,-321,-144,138
418,-15160,-24,578,-4710,23,-351,-160,132
419,-15126,-2,780,-4696,23,-345,-154,155
420,-15104,-34,624,-4701,23,-358,-165,144
421,-15166,12,730,-4716,23,-349,-164,149
422,-15160,-8,822,-4704,23,-326,-138,146
423,-15134,0,742,-4712,23,-344,-144,157
424,-15186,-30,816,-4708,23,-342,-136,142
425,-15116,54,692,-4703,23,-354,-155,132
426,-15172,28,772,-4699,23,-334,-157,147
427,-15174,22,800,-4706,23,-327,-153,139
428,-15162,32,842,-4711,23,-359,-153,152
429,-15160,-76,892,-4722,23,-363,-159,120
430,-15166,-30,852,-4711,23,-349,-149,142
431,-15160,10,784,-4712,23,-338,-156,137
432,-15120,-64,824,-4696,23,-346,-170,136
433,-15256,40,712,-4713,23,-344,-149,128
434,-15216,14,756,-4697,23,-352,-157,144
435,-15202,42,856,-4706,23,-347,-152,143
436,-15148,-64,742,-4709,23,-349,-157,146
437,-15214,66,780,-4707,23,-350,-155,111
438,-15122,-30,652,-4705,23,-337,-151,154
439,-15148,-94,818,-4714,23,-347,-156,145
440,-15172,-10,726,-4697,23,-351,-148,148
441,-15160,16,858,-4712,23,-345,-141,140
442,-15098,62,786,-4701,23,-345,-148,135
443,-15188,-58,856,-4707,23,-344,-169,137
444,-15120,44,700,-4701,23,-336,-151,144
445,-15080,-40,664,-4693,23,-347,-163,136
446,-15144,-38,802,-4702,23,-353,-143,141
447,-15188,-30,896,-4703,23,-343,-146,143
448,-15074,-46,770,-4695,23,-349,-147,119
449,-15180,-36,806,-4703,23,-329,-156,146
450,-15128,-28,730,-4694,23,-365,-139,144
451,-15170,8,734,-4707,23,-324,-172,146
452,-15136,-4,666,-4702,23,-319,-148,142
453,-15152,14,586,-4718,23,-361,-160,142
454,-15120,42,660,-4712,23,-348,-157,152
455,-15168,-72,754,-4725,23,-356,-171,144
456,-15180,-48,720,-4701,23,-355,-135,133
457,-15152,48,712,-4689,23,-342,-153,137
458,-15174,2,866,-4704,23,-351,-159,148
459,-15050,-8,760,-4706,23,-336,-169,138
460,-15180,30,728,-4699,23,-348,-151,143
461,-15232,0,738,-4706,23,-380,-162,144
462,-15172,40,680,-4696,23,-355,-136,136
463,-15150,0,792,-4715,23,-368,-138,135
464,-15142,2,766,-4707,23,-346,-161,137
465,-15202,-80,718,-4696,23,-352,-152,149
466,-15130,-10,744,-4710,23,-354,-151,143
467,-15204,-18,740,-4704,23,-354,-137,146
468,-15126,-24,730,-4695,23,-355,-163,130
469,-15198,-16,720,-4708,23,-333,-149,136
470,-15154,-20,674,-4704,23,-359,-153,146
471,-15098,6,794,-4704,23,-336,-150,127
472,-15208,58,728,-4703,23,-338,-140,138
473,-15108,-90,692,-4716,23,-357,-145,150
474,-15050,-12,704,-4709,23,-349,-164,146
475,-15248,16,782,-4710,23,-350,-158,131
476,-15052,48,806,-4694,23,-340,-170,145
477,-15128,-38,650,-4692,23,-357,-148,134
478,-15124,40,688,-4706,23,-339,-158,149
479,-15134,92,732,-4715,23,-345,-153,139
480,-15094,64,828,-4702,23,-354,-149,132
481,-15078,-40,588,-4699,23,-325,-151,134
482,-15092,56,814,-4709,23,-344,-150,134
483,-15238,0,758,-4714,23,-351,-149,134
484,-15186,-82,726,-4710,23,-346,-155,131
485,-15196,-40,740,-4714,23,-311,-141,154
486,-15142,-18,704,-4700,23,-342,-151,141
487,-15130,-34,760,-4720,23,-343,-167,145
488,-15116,-22,850,-4713,23,-353,-156,135
489,-15056,-52,874,-4706,23,-339,-119,145
490,-15198,-4,732,-4709,23,-339,-167,142
491,-15174,-52,744,-4711,23,-344,-148,144
492,-15164,-22,716,-4699,23,-359,-163,125
493,-15114,32,750,-4702,23,-351,-142,122
494,-15158,-6,728,-4706,23,-345,-140,146
495,-15162,4,716,-4701,23,-337,-152,157
496,-15120,-28,724,-4710,23,-347,-153,134
497,-15210,-28,706,-4700,23,-345,-157,142
498,-15102,-30,728,-4706,23,-352,-175,134
499,-15170,-34,802,-4700,23,-348,-187,150
500,-15148,-56,802,-4710,23,-350,-141,151
501,-15226,-80,618,-4704,23,-342,-159,123
502,-15138,18,752,-4710,23,-362,-144,129
503,-15118,10,862,-4712,23,-340,-153,131
504,-15166,28,852,-4711,23,-335,-138,148
505,-15144,-20,804,-4698,23,-357,-140,136
506,-15216,-34,668,-4708,23,-346,-155,153
507,-15200,20,736,-4705,23,-351,-165,137
508,-15150,-10,746,-4704,23,-349,-140,145
509,-15238,36,776,-4700,23,-332,-160,150
510,-15112,-60,760,-4709,23,-337,-145,126
511,-15178,-56,768,-4698,23,-360,-151,151
512,-15140,-14,704,-4704,23,-344,-154,134
513,-15160,-2,672,-4691,23,-330,-166,131
514,-15140,-70,640,-4711,23,-345,-152,135
515,-15202,2,704,-4695,23,-362,-142,138
516,-15180,-90,800,-4700,23,-358,-163,145
517,-15184,-72,900,-4702,23,-334,-151,127
518,-15196,74,742,-4692,23,-350,-157,146
519,-15172,-14,630,-4709,23,-333,-156,145
520,-15124,4,684,-4701,23,-342,-150,124
521,-15108,64,796,-4704,23,-363,-158,134
522,-15164,2,782,-4706,23,-345,-149,147
523,-15186,-48,750,-4702,23,-338,-161,142
524,-15156,-8,706,-4701,23,-340,-168,135
525,-15156,80,638,-4713,23,-344,-147,142
526,-15190,-16,800,-4714,23,-353,-142,131
527,-15146,26,818,-4695,23,-346,-141,149
528,-15128,-48,680,-4708,23,-344,-151,144
529,-15066,14,700,-4699,23,-347,-161,153
530,-15076,-8,846,-4701,23,-342,-158,129
531,-15166,-30,704,-4712,23,-353,-165,148
532,-15108,22,802,-4697,23,-335,-149,120
533,-15278,52,736,-4707,23,-333,-151,129
534,-15194,-42,712,-4702,23,-351,-164,151
535,-15130,36,670,-4703,23,-361,-146,147
536,-15150,56,594,-4705,23,-355,-171,145
537,-15148,-30,612,-4700,23,-348,-147,132
538,-15132,-72,800,-4700,23,-353,-149,147
539,-15164,-4,774,-4702,23,-365,-157,123
540,-15160,116,762,-4715,23,-347,-132,139
541,-15062,-40,764,-4704,23,-333,-166,154
542,-15210,-42,782,-4729,23,-344,-140,137
543,-15232,72,838,-4702,23,-351,-146,141
544,-15082,14,714,-4702,23,-341,-159,129
545,-15218,30,708,-4704,23,-347,-158,154
546,-15116,14,750,-4709,23,-341,-157,139
547,-15148,-64,858,-4711,23,-360,-157,126
548,-15192,-68,672,-4705,23,-334,-153,139
549,-15114,8,690,-4717,23,-347,-142,148
550,-15160,-40,808,-4709,23,-337,-157,149
551,-15220,62,720,-4707,23,-361,-138,136
552,-15216,-74,828,-4699,23,-334,-163,133
553,-15114,48,794,-4707,23,-339,-163,133
554,-15108,22,708,-4688,23,-348,-147,138
555,-15162,82,812,-4709,23,-348,-160,144
556,-15104,-34,738,-4712,23,-341,-154,128
557,-15082,-52,712,-4707,23,-346,-151,144
558,-15240,60,736,-4704,23,-341,-145,122
559,-15178,18,672,-4703,23,-343,-163,151
560,-15208,-30,798,-4703,23,-349,-165,148
561,-15112,-16,804,-4704,23,-337,-145,141
562,-15166,-58,814,-4699,23,-332,-146,154
563,-15150,-42,778,-4695,23,-348,-135,139
564,-15220,-64,802,-4695,23,-354,-157,144
565,-15182,74,724,-4721,23,-344,-139,149
566,-15198,-2,742,-4708,23,-325,-156,151
567,-15128,-66,752,-4698,23,-350,-149,126
568,-15172,-42,778,-4706,23,-348,-160,159
569,-15180,-4,640,-4683,23,-354,-167,145
570,-15182,30,716,-4708,23,-340,-139,139
571,-15086,20,648,-4694,23,-347,-135,129
572,-15100,-44,748,-4698,23,-356,-139,131
573,-15262,-10,756,-4702,23,-350,-146,131
574,-15152,24,730,-4701,23,-337,-150,145
575,-15142,22,754,-4709,23,-354,-144,133
576,-15228,-4,696,-4707,23,-351,-162,150
577,-15076,-32,808,-4705,23,-340,-141,132
578,-15250,8,634,-4686,23,-346,-152,144
579,-15168,-44,730,-4689,23,-360,-158,152
580,-15194,-10,708,-4712,23,-351,-145,142
581,-15186,-44,732,-4713,23,-349,-149,121
582,-15186,-42,814,-4700,23,-347,-148,150
583,-15084,28,708,-4693,23,-349,-155,148
584,-15152,-96,872,-4705,23,-352,-169,126
585,-15126,32,654,-4702,23,-333,-164,144
586,-15106,-28,814,-4697,23,-348,-163,146
587,-15180,-10,738,-4702,23,-341,-139,142
588,-15170,-18,750,-4706,23,-329,-160,138
589,-15134,-40,782,-4709,23,-325,-143,151
590,-15020,-16,676,-4704,23,-341,-142,135
591,-15132,20,826,-4700,23,-336,-156,143
592,-15126,-44,678,-4701,23,-337,-157,136
593,-15172,42,744,-4707,23,-349,-159,129
594,-15152,-14,824,-4709,23,-344,-143,144
595,-15272,-38,868,-4708,23,-325,-143,154
596,-15260,-32,690,-4719,23,-339,-153,138
597,-15200,40,792,-4706,23,-340,-157,138
598,-15152,-6,720,-4712,23,-337,-159,150
599,-15238,-52,896,-4691,23,-329,-159,139
600,-15116,-24,778,-4704,23,-354,-159,154
601,-15144,-36,794,-4709,23,-346,-146,153
602,-15098,-20,826,-4702,23,-349,-160,144
603,-15148,78,722,-4706,23,-348,-148,129
604,-15170,-102,726,-4688,23,-336,-147,137
605,-15158,50,732,-4697,23,-347,-150,157
606,-15160,-2,680,-4706,23,-326,-147,145
607,-15164,-16,704,-4695,23,-346,-144,138
608,-15170,-86,666,-4705,23,-354,-155,146
609,-15132,-26,794,-4707,23,-358,-142,151
610,-15242,26,754,-4705,23,-346,-165,144
611,-15232,-64,736,-4705,23,-355,-157,135
612,-15116,36,794,-4708,23,-341,-156,138
613,-15146,72,708,-4705,23,-345,-159,138
614,-15166,-44,656,-4687,23,-340,-150,144
615,-15072,-66,708,-4702,23,-335,-153,142
616,-15126,-30,712,-4694,23,-360,-159,136
617,-15126,4,698,-4703,23,-340,-157,139
618,-15086,44,788,-4696,23,-365,-152,147
619,-15152,14,756,-4697,23,-330,-163,150
620,-15190,-44,764,-4715,23,-351,-150,140
621,-15106,-18,638,-4702,23,-345,-157,141
622,-15140,-50,748,-4697,23,-355,-168,136
623,-15184,90,698,-4699,23,-352,-142,141
624,-15120,28,676,-4700,23,-358,-152,143
625,-15096,-28,688,-4703,23,-346,-172,137
626,-15096,-42,682,-4702,23,-351,-150,152
627,-15190,32,674,-4695,23,-334,-145,142
628,-15140,-8,714,-4700,23,-339,-150,138
629,-15224,-40,546,-4705,23,-349,-156,142
630,-15160,0,724,-4691,23,-347,-153,121
631,-15140,-100,780,-4700,23,-349,-151,141
632,-15140,20,728,-4709,23,-353,-158,128
633,-15160,-12,724,-4706,23,-343,-131,128
634,-15172,-16,812,-4696,23,-338,-137,139
635,-15172,-36,726,-4697,23,-346,-164,133
636,-15264,24,706,-4697,23,-351,-150,153
637,-15122,-42,748,-4705,23,-348,-144,138
638,-15216,-4,678,-4703,23,-338,-144,138
639,-15116,-74,794,-4699,23,-347,-162,137
640,-15138,-14,872,-4696,23,-352,-137,139
641,-15148,-84,708,-4702,23,-333,-135,138
642,-15190,8,820,-4707,23,-343,-166,129
643,-15174,-8,704,-4693,23,-356,-160,147
644,-15116,4,646,-4700,23,-336,-150,127
645,-15150,102,640,-4710,23,-351,-152,131
646,-15102,68,764,-4695,23,-329,-155,148
647,-15210,-12,840,-4693,23,-346,-179,134
648,-15128,-12,734,-4702,23,-342,-163,143
649,-15082,28,776,-4697,23,-337,-148,127
650,-15164,70,704,-4710,23,-349,-149,144
651,-15224,-72,680,-4691,23,-334,-154,140
652,-15086,-30,666,-4694,23,-346,-155,149
653,-15202,-40,700,-4701,23,-353,-163,138
654,-15114,-68,594,-4697,23,-333,-137,149
655,-15134,22,706,-4705,23,-344,-141,136
656,-15156,-4,792,-4698,23,-341,-153,141
657,-15146,-94,746,-4692,23,-359,-169,148
658,-15132,-70,762,-4705,23,-374,-140,143
659,-15104,6,772,-4684,23,-352,-157,141
660,-15130,-6,728,-4704,23,-327,-136,140
661,-15112,-32,790,-4703,23,-349,-161,140
662,-15038,-74,816,-4699,23,-356,-167,151
663,-15054,-32,736,-4690,23,-331,-161,142
664,-15148,-2,678,-4706,23,-360,-151,120
665,-15166,14,832,-4708,23,-336,-139,135
666,-15148,-50,700,-4703,23,-343,-166,139
667,-15140,-28,892,-4704,23,-339,-147,148
668,-15206,-70,768,-4701,23,-344,-172,130
669,-15080,-32,602,-4685,23,-336,-171,129
670,-15090,12,764,-4712,23,-338,-147,118
671,-15068,18,642,-4694,23,-340,-153,139
672,-15106,-6,804,-4698,23,-351,-145,142
673,-15174,-28,728,-4697,23,-335,-150,151
674,-15118,-70,762,-4695,23,-343,-166,142
675,-15176,8,740,-4702,23,-341,-171,152
676,-15210,-24,724,-4690,23,-353,-152,155
677,-15118,-22,878,-4713,23,-350,-150,143
678,-15154,-6,718,-4706,23,-350,-156,137
679,-15160,-22,780,-4705,23,-335,-148,154
680,-15182,58,762,-4697,23,-332,-158,143
681,-15096,20,686,-4706,23,-348,-168,143
682,-15130,-32,772,-4686,23,-336,-159,146
683,-15120,-14,618,-4710,23,-352,-153,140
684,-15128,-4,800,-4704,23,-340,-135,136
685,-15114,44,810,-4697,23,-329,-147,135
686,-15172,-6,770,-4704,23,-336,-147,151
687,-15118,2,672,-4696,23,-348,-152,151
688,-15140,20,622,-4715,23,-345,-153,136
689,-15102,-8,790,-4699,23,-360,-144,142
690,-15202,-12,724,-4704,23,-363,-163,143
691,-15144,12,596,-4700,23,-351,-158,151
692,-15114,-78,840,-4699,23,-342,-155,157
693,-15188,112,702,-4690,23,-341,-164,134
694,-15168,-4,730,-4699,23,-337,-137,135
695,-15132,-80,728,-4696,23,-342,-169,150
696,-15132,-38,642,-4721,23,-324,-143,139
697,-15160,26,734,-4701,23,-349,-159,133
698,-15172,-56,618,-4695,23,-367,-125,134
699,-15126,-102,692,-4707,23,-351,-150,139
700,-15200,110,740,-4702,23,-352,-171,135
701,-15078,4,762,-4705,23,-346,-162,134
702,-15122,16,724,-4710,23,-345,-148,126
703,-15152,-54,772,-4711,23,-335,-147,145
704,-15158,20,666,-4697,23,-329,-150,126
705,-15250,-62,706,-4693,23,-367,-155,139
706,-15154,22,744,-4703,23,-343,-163,126
707,-15072,-12,714,-4705,23,-350,-158,143
708,-15066,-16,774,-4698,23,-336,-158,144
709,-15164,4,720,-4704,23,-336,-166,144
710,-15216,-88,782,-4701,23,-348,-166,136
711,-15054,-36,764,-4706,23,-343,-163,132
712,-15098,4,696,-4702,23,-348,-149,129
713,-15206,-20,658,-4693,23,-363,-150,122
714,-15092,24,730,-4704,23,-345,-174,136
715,-15194,-38,670,-4698,23,-339,-153,138
716,-15198,-12,852,-4704,23,-360,-169,149
717,-15112,54,722,-4699,23,-360,-164,132
718,-15162,-16,690,-4703,23,-355,-158,124
719,-15198,20,760,-4692,23,-354,-170,165
720,-15156,-48,752,-4705,23,-341,-168,159
721,-15154,-40,744,-4687,23,-352,-153,150
722,-15162,14,712,-4703,23,-341,-150,129
723,-15130,-48,722,-4696,23,-346,-167,130
724,-15178,-28,698,-4688,23,-365,-161,142
725,-15106,-68,730,-4712,23,-338,-141,147
726,-15144,-36,712,-4693,23,-342,-154,132
727,-15226,34,826,-4686,23,-342,-154,138
728,-15130,-68,782,-4697,23,-347,-159,133
729,-15130,-36,694,-4699,23,-341,-143,137
730,-15174,-44,852,-4705,23,-336,-151,138
731,-15160,-18,734,-4692,23,-346,-153,139
732,-15192,-14,670,-4707,23,-358,-144,125
733,-15112,-40,838,-4691,23,-331,-134,129
734,-15236,20,724,-4700,23,-338,-150,151
735,-15042,2,716,-4715,23,-342,-152,137
736,-15140,48,852,-4703,23,-342,-153,141
737,-15110,-64,672,-4704,23,-353,-160,120
738,-15086,4,790,-4705,23,-343,-156,155
739,-15162,-94,782,-4701,23,-359,-178,128
740,-15146,-28,718,-4713,23,-338,-151,139
741,-15068,-52,810,-4692,23,-353,-137,136
742,-15108,-74,786,-4698,23,-348,-159,141
743,-15048,-58,626,-4691,23,-345,-163,134
744,-15132,2,670,-4709,23,-339,-148,133
745,-15104,16,676,-4710,23,-348,-156,155
746,-15120,-58,756,-4704,23,-356,-148,142
747,-15278,-106,670,-4698,23,-344,-157,139
748,-15166,-104,732,-4704,23,-352,-170,148
749,-15156,-10,738,-4702,23,-341,-150,151
750,-15102,-2,784,-4686,23,-336,-153,141
751,-15108,24,772,-4703,23,-348,-169,139
752,-15150,-20,786,-4690,23,-331,-164,158
753,-15142,42,738,-4702,23,-324,-145,130
754,-15186,44,740,-4701,23,-329,-166,149
755,-15114,44,718,-4716,23,-362,-137,141
756,-15166,12,776,-4701,23,-346,-153,155
757,-15204,-132,766,-4697,23,-350,-142,130
758,-15210,0,804,-4701,23,-357,-125,139
759,-15090,-14,850,-4694,23,-356,-154,134
760,-15086,26,838,-4688,23,-345,-154,127
761,-15134,4,788,-4699,23,-333,-156,137
762,-15096,-24,810,-4685,23,-342,-152,148
763,-15178,-24,700,-4700,23,-348,-134,159
764,-15182,-40,824,-4683,23,-360,-153,140
765,-15100,6,662,-4693,23,-352,-159,135
766,-15162,-78,770,-4700,23,-354,-164,139
767,-15152,24,718,-4700,23,-342,-153,155
768,-15202,2,630,-4699,23,-330,-153,152
769,-15116,-58,740,-4701,23,-344,-151,145
770,-15156,-16,750,-4694,23,-356,-152,125
771,-15208,-26,642,-4691,23,-337,-145,123
772,-15198,-20,730,-4698,23,-343,-148,138
773,-15108,-36,640,-4697,23,-351,-150,140
774,-15112,2,806,-4702,23,-330,-161,124
775,-15170,-98,608,-4704,23,-341,-170,151
776,-15142,80,648,-4701,23,-324,-153,133
777,-15178,28,730,-4708,23,-355,-155,144
778,-15194,18,670,-4721,23,-338,-146,140
779,-15126,-4,764,-4721,23,-340,-150,122
780,-15190,-56,794,-4707,23,-356,-177,155
781,-15220,10,690,-4700,23,-357,-145,135
782,-15144,-10,738,-4707,23,-348,-168,142
783,-15056,6,782,-4698,23,-350,-161,132
784,-15156,-62,624,-4699,23,-337,-169,141
785,-15136,-2,722,-4678,23,-343,-160,142
786,-15126,22,784,-4707,23,-347,-133,152
787,-15178,-60,702,-4692,23,-343,-148,138
788,-15180,-30,698,-4701,23,-356,-145,138
789,-15174,-34,710,-4698,23,-338,-152,126
790,-15144,-104,692,-4711,23,-338,-177,134
791,-15218,-4,744,-4688,23,-345,-148,151
792,-15148,-16,812,-4697,23,-330,-146,128
793,-15084,18,686,-4715,23,-332,-141,146
794,-15128,-42,756,-4698,23,-319,-134,136
795,-15136,-112,736,-4694,23,-363,-177,151
796,-15188,-40,660,-4705,23,-348,-159,163
797,-15144,-34,740,-4696,23,-338,-149,147
798,-15226,-18,820,-4695,23,-356,-151,147
799,-15158,-46,772,-4706,23,-349,-147,137
800,-15150,-56,758,-4695,23,-327,-140,146
801,-15214,52,684,-4701,23,-342,-153,136
802,-15068,0,734,-4680,23,-347,-151,145
803,-15142,38,878,-4701,23,-352,-146,150
804,-15096,-10,714,-4704,23,-331,-176,139
805,-15112,-54,656,-4693,23,-345,-154,129
806,-15044,54,828,-4696,23,-348,-156,138
807,-15128,-30,774,-4708,23,-362,-141,138
808,-15096,-26,702,-4708,23,-356,-144,131
809,-15134,18,720,-4683,23,-343,-150,139
810,-15064,-20,624,-4707,23,-355,-161,147
811,-15118,2,698,-4705,23,-342,-153,143
812,-15222,-44,724,-4697,23,-334,-167,132
813,-15144,-16,760,-4691,23,-342,-159,139
814,-15134,10,720,-4699,23,-349,-126,130
815,-15256,112,800,-4689,23,-368,-151,135
816,-15154,16,660,-4692,23,-337,-130,149
817,-15170,-2,756,-4709,23,-355,-154,127
818,-15148,-48,772,-4705,23,-346,-157,140
819,-15172,64,676,-4706,23,-359,-141,144
820,-15068,68,788,-4701,23,-329,-162,153
821,-15246,-62,796,-4691,23,-348,-138,153
822,-15120,-20,694,-4698,23,-342,-123,140
823,-15174,14,760,-4698,23,-344,-147,125
824,-15174,34,646,-4695,23,-355,-165,150
825,-15208,-44,688,-4700,23,-349,-137,126
826,-15148,26,740,-4692,23,-325,-147,153
827,-15162,46,748,-4693,23,-345,-149,147
828,-15166,-22,650,-4706,23,-342,-151,137
829,-15218,20,744,-4698,23,-366,-136,138
830,-15054,-68,724,-4689,23,-331,-154,136
831,-15182,-58,768,-4706,23,-334,-161,139
832,-15140,-18,658,-4704,23,-343,-167,113
833,-15142,-44,776,-4716,23,-349,-148,138
834,-15158,-28,674,-4693,23,-356,-150,156
835,-15232,-12,790,-4687,23,-332,-145,139
836,-15150,-2,646,-4689,23,-332,-157,133
837,-15086,-4,656,-4689,23,-338,-150,142
838,-15198,-10,738,-4698,23,-349,-152,165
839,-15122,34,712,-4701,23,-340,-152,141
840,-15238,96,818,-4696,23,-346,-165,147
841,-15174,-32,808,-4697,23,-351,-167,117
842,-15176,48,652,-4692,23,-346,-160,138
843,-15220,84,712,-4702,23,-338,-152,140
844,-15132,-48,672,-4694,23,-353,-168,141
845,-15216,-48,760,-4695,23,-343,-163,160
846,-15250,-10,704,-4695,23,-342,-139,138
847,-15174,-58,712,-4701,23,-339,-159,136
848,-15152,-34,708,-4708,23,-342,-161,149
849,-15116,-82,742,-4699,23,-330,-152,133
850,-15236,-50,858,-4710,23,-356,-169,133
851,-15172,26,860,-4692,23,-356,-144,136
852,-15194,-34,616,-4694,23,-354,-146,151
853,-15166,-18,608,-4691,23,-352,-152,137
854,-15160,-14,656,-4699,23,-334,-146,147
855,-15146,-20,826,-4684,23,-348,-142,141
856,-15164,-10,824,-4706,23,-343,-153,134
857,-15212,-4,808,-4698,23,-352,-140,153
858,-15194,-24,712,-4696,23,-346,-153,146
859,-15190,0,656,-4691,23,-352,-152,145
860,-15116,-94,588,-4709,23,-351,-164,131
861,-15116,22,778,-4697,23,-338,-168,144
862,-15140,38,686,-4690,23,-338,-145,135
863,-15090,60,676,-4699,23,-333,-155,142
864,-15184,-100,792,-4701,23,-330,-155,146
865,-15090,-84,768,-4701,23,-344,-151,131
866,-15138,-78,830,-4696,23,-337,-162,127
867,-15140,-90,808,-4692,23,-339,-158,154
868,-15210,-50,766,-4697,23,-329,-158,143
869,-15186,30,718,-4701,23,-339,-152,127
870,-15110,-20,772,-4696,23,-346,-157,149
871,-15150,-108,694,-4696,23,-334,-182,147
872,-15176,-12,794,-4693,23,-351,-160,131
873,-15122,-20,718,-4692,23,-351,-161,143
874,-15168,-40,756,-4688,23,-364,-148,148
875,-15174,20,780,-4705,23,-360,-141,149
876,-15220,50,802,-4696,23,-325,-157,127
877,-15156,10,862,-4699,23,-340,-151,137
878,-15108,-14,768,-4695,23,-354,-171,145
879,-15190,34,648,-4708,23,-340,-176,137
880,-15172,40,700,-4695,23,-338,-133,154
881,-15166,14,774,-4698,23,-360,-155,143
882,-15094,-28,776,-4690,23,-342,-145,136
883,-15154,110,680,-4709,23,-340,-157,149
884,-15040,8,772,-4691,23,-341,-133,146
885,-15154,-20,870,-4685,23,-352,-161,137
886,-15152,-42,728,-4705,23,-351,-145,133
887,-15208,-38,774,-4709,23,-334,-152,135
888,-15168,-16,646,-4703,23,-338,-156,135
889,-15198,74,726,-4694,23,-344,-135,136
890,-15134,-48,652,-4699,23,-341,-162,145
891,-15112,4,752,-4696,23,-345,-154,136
892,-15158,-62,802,-4694,23,-339,-164,127
893,-15118,-46,718,-4701,23,-338,-177,130
894,-15124,-44,640,-4704,23,-327,-169,134
895,-15162,-100,768,-4701,23,-355,-142,141
896,-15098,-68,740,-4693,23,-326,-158,135
897,-15168,-6,814,-4709,23,-343,-145,149
898,-15170,-8,792,-4713,23,-343,-143,142
899,-15102,-30,738,-4703,23,-337,-148,138
900,-15236,-74,768,-4710,23,-335,-163,130
901,-15178,4,736,-4694,23,-349,-149,143
902,-15184,-96,690,-4710,23,-342,-129,150
903,-15148,14,664,-4708,23,-346,-155,150
904,-15164,102,760,-4710,23,-351,-136,144
905,-15166,-28,752,-4708,23,-346,-162,146
906,-15132,22,710,-4692,23,-341,-155,147
907,-15174,8,728,-4705,23,-346,-151,156
908,-15202,-10,788,-4688,23,-330,-153,145
909,-15122,4,736,-4697,23,-344,-133,148
910,-15130,-32,780,-4710,23,-352,-154,139
911,-15150,32,762,-4695,23,-365,-165,134
912,-15208,36,748,-4701,23,-338,-151,144
913,-15172,-66,786,-4707,23,-347,-151,131
914,-15214,-24,724,-4694,23,-349,-139,151
915,-15106,28,634,-4702,23,-347,-148,137
916,-15164,-24,618,-4695,23,-336,-155,138
917,-15144,34,884,-4695,23,-340,-188,151
918,-15148,-32,796,-4693,23,-341,-149,143
919,-15174,-52,630,-4712,23,-328,-145,142
920,-15168,-76,710,-4719,23,-329,-146,148
921,-15136,-6,692,-4704,23,-350,-176,142
922,-15130,-12,768,-4700,23,-364,-127,125
923,-15186,56,732,-4692,23,-342,-157,142
924,-15184,-6,804,-4698,23,-351,-150,139
925,-15162,-32,746,-4704,23,-341,-156,148
926,-15216,126,804,-4699,23,-346,-147,131
927,-15116,0,802,-4703,23,-353,-164,121
928,-15200,-16,672,-4710,23,-343,-169,134
929,-15182,18,768,-4700,23,-353,-162,140
930,-15162,-74,850,-4697,23,-321,-165,141
931,-15110,-66,726,-4698,23,-356,-159,126
932,-15106,-44,802,-4693,23,-340,-154,144
933,-15102,-22,746,-4691,23,-356,-166,144
934,-15076,-26,758,-4694,23,-353,-145,125
935,-15190,-4,682,-4689,23,-350,-138,145
936,-15126,-22,784,-4686,23,-353,-149,145
937,-15168,-26,758,-4692,23,-352,-185,138
938,-15238,-14,776,-4701,23,-350,-160,128
939,-15236,-56,760,-4681,23,-349,-157,140
940,-15198,-44,806,-4701,23,-330,-164,142
941,-15106,-36,722,-4704,23,-333,-169,144
942,-15170,-30,656,-4691,23,-352,-143,125
943,-15154,-70,766,-4700,23,-339,-150,131
944,-15104,32,740,-4688,23,-337,-135,137
945,-15160,14,910,-4700,23,-341,-142,144
946,-15136,-12,710,-4705,23,-346,-160,125
947,-15228,-8,734,-4696,23,-340,-142,148
948,-15240,4,764,-4694,23,-349,-159,127
949,-15128,-46,676,-4709,23,-327,-140,140
950,-15040,0,784,-4694,23,-329,-157,135
951,-15074,4,600,-4702,23,-333,-147,133
952,-15234,16,716,-4699,23,-356,-146,138
953,-15124,-14,670,-4704,23,-330,-161,143
954,-15220,48,762,-4703,23,-331,-168,138
955,-15114,8,712,-4707,23,-369,-141,129
956,-15062,-28,670,-4702,23,-344,-158,149
957,-15150,-30,634,-4698,23,-365,-151,145
958,-15142,-30,656,-4690,23,-359,-138,143
959,-15190,4,796,-4705,23,-355,-143,135
960,-15104,-98,758,-4685,23,-354,-148,124
961,-15190,-10,782,-4703,23,-342,-153,143
962,-15248,28,780,-4698,23,-367,-151,140
963,-15164,-8,740,-4688,23,-343,-153,135
964,-15182,40,838,-4700,23,-354,-148,126
965,-15170,26,814,-4714,23,-336,-152,137
966,-15180,-38,780,-4698,23,-324,-176,144
967,-15176,22,740,-4697,23,-339,-147,151
968,-15190,-24,778,-4698,23,-349,-157,133
969,-15246,-2,800,-4702,23,-355,-168,130
970,-15260,56,796,-4705,23,-349,-147,150
971,-15176,16,846,-4691,23,-345,-141,146
972,-15184,94,660,-4684,23,-348,-158,146
973,-15132,4,776,-4698,23,-357,-164,142
974,-15214,-92,676,-4704,23,-365,-140,147
975,-15174,-56,762,-4692,23,-354,-154,137
976,-15202,-68,828,-4702,23,-340,-140,147
977,-15204,8,692,-4713,23,-329,-159,125
978,-15152,-26,722,-4711,23,-335,-142,152
979,-15202,12,794,-4695,23,-330,-163,138
980,-15170,4,738,-4702,23,-340,-152,128
981,-15184,42,790,-4695,23,-337,-155,133
982,-15214,-26,720,-4704,23,-351,-153,130
983,-15148,-62,678,-4697,23,-342,-148,148
984,-15134,-80,808,-4693,23,-331,-148,150
985,-15226,-32,678,-4707,23,-361,-160,131
986,-15166,-38,766,-4697,23,-352,-121,139
987,-15102,-34,844,-4687,23,-354,-163,128
988,-15156,-34,814,-4693,23,-350,-162,127
989,-15180,-10,658,-4696,23,-334,-136,130
990,-15176,-80,796,-4689,23,-343,-170,126
991,-15146,-42,626,-4695,23,-340,-158,143
992,-15166,20,772,-4721,23,-340,-153,146
993,-15098,56,794,-4698,23,-351,-175,166
994,-15164,-48,714,-4705,23,-336,-164,138
995,-15174,-36,792,-4700,23,-347,-155,140
996,-15154,-60,770,-4697,23,-362,-158,122
997,-15192,-100,778,-4699,23,-335,-150,133
998,-15154,6,782,-4713,23,-329,-154,158
