,acc_X,acc_Y,acc_Z,temp,tempC,gyr_X,gyr_Y,gyr_Z
0,-7572,-8,389,-4688,23,-348,-151,136
1,-7562,-12,383,-4686,23,-346,-148,132
2,-7572,-4,386,-4689,23,-344,-150,138
3,-7567,-13,381,-4687,23,-346,-156,140
4,-7577,-10,351,-4688,23,-350,-147,139
5,-7586,-8,365,-4689,23,-345,-148,140
6,-7577,-28,352,-4682,23,-345,-153,134
7,-7584,-13,375,-4686,23,-352,-155,136
8,-7582,-9,374,-4689,23,-349,-159,138
9,-7577,-3,383,-4689,23,-343,-155,143
10,-7583,-10,360,-4685,23,-344,-149,135
11,-7584,-6,371,-4687,23,-343,-159,134
12,-7566,-6,396,-4685,23,-348,-146,130
13,-7576,-6,382,-4690,23,-347,-148,129
14,-7583,-11,401,-4688,23,-341,-152,132
15,-7572,-12,381,-4686,23,-345,-152,138
16,-7581,-15,366,-4684,23,-342,-150,132
17,-7601,-15,393,-4684,23,-348,-159,141
18,-7599,-5,367,-4684,23,-346,-153,135
19,-7590,-4,371,-4684,23,-343,-151,129
20,-7577,-4,357,-4682,23,-337,-147,133
21,-7576,-10,373,-4688,23,-339,-154,139
22,-7576,-6,366,-4693,23,-343,-150,137
23,-7571,-19,359,-4690,23,-351,-152,131
24,-7582,-12,363,-4684,23,-347,-156,132
25,-7589,-16,365,-4684,23,-344,-156,136
26,-7589,-17,386,-4679,23,-344,-153,141
27,-7580,-19,385,-4686,23,-346,-147,139
28,-7592,-6,378,-4683,23,-345,-151,138
29,-7576,1,369,-4685,23,-340,-155,143
30,-7572,-8,378,-4683,23,-346,-154,139
31,-7577,-14,380,-4689,23,-345,-154,140
32,-7592,-10,376,-4688,23,-344,-157,139
33,-7584,2,370,-4686,23,-343,-157,142
34,-7564,-11,368,-4686,23,-345,-158,140
35,-7558,1,381,-4685,23,-347,-155,135
36,-7574,3,394,-4682,23,-353,-150,137
37,-7585,3,375,-4689,23,-345,-152,137
38,-7582,-1,393,-4680,23,-337,-151,142
39,-7592,-4,380,-4687,23,-347,-153,137
40,-7587,-4,365,-4685,23,-349,-149,132
41,-7581,-1,384,-4683,23,-344,-151,135
42,-7578,-14,375,-4683,23,-345,-150,134
43,-7588,-5,405,-4683,23,-351,-158,137
44,-7576,3,403,-4683,23,-349,-157,140
45,-7562,5,407,-4684,23,-350,-151,138
46,-7576,3,385,-4683,23,-348,-143,144
47,-7566,15,381,-4687,23,-351,-151,140
48,-7563,0,378,-4691,23,-350,-147,138
49,-7577,2,381,-4686,23,-353,-151,138
50,-7580,-11,375,-4686,23,-351,-150,140
51,-7594,-16,384,-4681,23,-351,-154,142
52,-7577,-10,391,-4683,23,-347,-147,143
53,-7586,-15,411,-4685,23,-352,-152,142
54,-7594,-5,407,-4688,23,-344,-148,146
55,-7590,-5,388,-4689,23,-347,-155,135
56,-7592,3,392,-4690,23,-348,-151,140
57,-7585,-21,389,-4691,23,-351,-150,140
58,-7588,-2,393,-4690,23,-339,-150,139
59,-7586,-2,369,-4685,23,-343,-147,138
60,-7573,0,383,-4687,23,-341,-153,145
61,-7593,-8,362,-4685,23,-342,-152,139
62,-7580,18,391,-4688,23,-350,-154,139
63,-7574,-3,366,-4685,23,-353,-160,140
64,-7589,-7,390,-4683,23,-343,-154,147
65,-7569,5,381,-4685,23,-352,-152,140
66,-7591,4,378,-4685,23,-350,-152,139
67,-7589,3,372,-4688,23,-352,-152,143
68,-7586,-5,365,-4690,23,-347,-155,143
69,-7578,7,379,-4681,23,-351,-157,136
70,-7567,-10,373,-4683,23,-352,-156,145
71,-7582,-6,397,-4687,23,-355,-158,145
72,-7601,6,384,-4684,23,-350,-154,138
73,-7606,-8,392,-4686,23,-352,-152,147
74,-7596,3,380,-4689,23,-341,-144,145
75,-7578,-7,385,-4684,23,-344,-148,146
76,-7560,-20,357,-4681,23,-342,-151,140
77,-7571,-7,368,-4676,23,-344,-154,137
78,-7580,-2,370,-4678,23,-352,-152,138
79,-7592,1,364,-4681,23,-337,-148,141
80,-7576,-4,387,-4682,23,-339,-151,139
81,-7587,-6,380,-4684,23,-348,-153,133
82,-7584,2,369,-4687,23,-344,-147,135
83,-7575,3,349,-4687,23,-347,-154,136
84,-7586,-13,367,-4678,23,-345,-155,138
85,-7579,-2,357,-4677,23,-345,-161,133
86,-7582,-7,367,-4683,23,-344,-153,134
87,-7585,-8,372,-4683,23,-345,-153,139
88,-7587,-3,378,-4683,23,-345,-153,136
89,-7591,-2,361,-4684,23,-339,-166,138
90,-7578,-5,373,-4685,23,-343,-157,138
91,-7581,4,393,-4684,23,-346,-155,141
92,-7576,-1,376,-4688,23,-345,-153,134
93,-7573,7,399,-4682,23,-345,-151,136
94,-7579,-9,393,-4677,23,-345,-158,132
95,-7583,-11,386,-4681,23,-346,-162,133
96,-7582,9,379,-4683,23,-347,-164,132
97,-7591,-9,360,-4679,23,-354,-160,140
98,-7585,4,364,-4675,23,-345,-156,135
99,-7590,-7,379,-4683,23,-347,-158,141
100,-7572,-11,379,-4681,23,-346,-153,138
101,-7565,-14,372,-4685,23,-350,-149,136
102,-7565,-10,382,-4686,23,-351,-152,135
103,-7561,-5,391,-4686,23,-352,-157,138
104,-7573,5,375,-4688,23,-345,-146,139
105,-7576,-14,356,-4681,23,-348,-154,136
106,-7587,-7,356,-4679,23,-348,-153,138
107,-7576,-23,359,-4686,23,-348,-148,137
108,-7581,-15,349,-4689,23,-347,-155,144
109,-7573,-10,359,-4684,23,-347,-151,143
110,-7571,-30,394,-4688,23,-349,-156,140
111,-7581,-20,369,-4685,23,-343,-152,135
112,-7598,-12,389,-4685,23,-340,-146,136
113,-7590,-16,394,-4684,23,-342,-157,144
114,-7570,-4,376,-4685,23,-349,-155,141
115,-7576,-13,351,-4681,23,-352,-154,142
116,-7570,7,366,-4679,23,-347,-154,146
117,-7578,-5,375,-4683,23,-350,-154,141
118,-7576,-9,368,-4682,23,-351,-158,139
119,-7586,-3,373,-4682,23,-355,-155,139
120,-7587,-8,389,-4684,23,-350,-151,143
121,-7588,-9,375,-4684,23,-354,-154,141
122,-7587,-13,367,-4685,23,-352,-153,138
123,-7589,-8,360,-4685,23,-348,-147,133
124,-7572,-4,386,-4683,23,-347,-152,141
125,-7574,-4,398,-4681,23,-348,-152,138
126,-7573,-11,396,-4681,23,-351,-152,136
127,-7557,-2,376,-4681,23,-349,-149,138
128,-7577,-3,377,-4683,23,-341,-150,142
129,-7574,-7,381,-4682,23,-346,-154,137
130,-7578,-8,360,-4680,23,-351,-158,137
131,-7586,0,376,-4684,23,-346,-152,140
132,-7570,-10,364,-4677,23,-351,-159,141
133,-7576,-16,374,-4682,23,-353,-162,137
134,-7586,-16,365,-4680,23,-351,-157,138
135,-7589,8,375,-4686,23,-348,-158,140
136,-7571,14,405,-4677,23,-348,-158,141
137,-7582,4,384,-4680,23,-343,-152,135
138,-7575,0,355,-4679,23,-348,-145,136
139,-7582,5,383,-4681,23,-346,-149,139
140,-7583,-9,387,-4684,23,-346,-151,138
141,-7571,-20,369,-4682,23,-342,-147,135
142,-7575,-8,376,-4681,23,-344,-155,131
143,-7561,-9,377,-4682,23,-340,-156,134
144,-7563,-8,394,-4683,23,-350,-150,133
145,-7563,-7,382,-4683,23,-358,-161,135
146,-7573,-16,382,-4681,23,-358,-155,138
147,-7581,-6,357,-4682,23,-356,-151,141
148,-7590,-11,386,-4679,23,-351,-153,138
149,-7596,-3,373,-4679,23,-348,-150,139
150,-7569,-7,376,-4679,23,-345,-154,146
151,-7571,-10,370,-4684,23,-345,-157,143
152,-7566,-8,366,-4684,23,-344,-152,147
153,-7562,-9,375,-4680,23,-345,-148,144
154,-7571,-13,371,-4679,23,-348,-152,141
155,-7573,1,366,-4680,23,-343,-152,142
156,-7579,1,397,-4676,23,-342,-155,141
157,-7574,8,370,-4679,23,-343,-151,138
158,-7579,-6,398,-4683,23,-346,-149,141
159,-7584,-10,378,-4681,23,-345,-151,144
160,-7573,-19,387,-4680,23,-342,-151,140
161,-7567,-10,385,-4680,23,-340,-156,144
162,-7563,-7,363,-4684,23,-343,-145,143
163,-7580,-18,387,-4685,23,-349,-151,142
164,-7583,2,387,-4684,23,-345,-144,137
165,-7594,-10,370,-4686,23,-348,-153,141
166,-7587,-1,371,-4683,23,-346,-155,147
167,-7579,1,335,-4679,23,-341,-152,141
168,-7582,-9,349,-4677,23,-345,-150,141
169,-7582,-19,347,-4679,23,-349,-158,140
170,-7595,-6,382,-4679,23,-338,-153,136
171,-7589,-16,363,-4679,23,-346,-151,144
172,-7574,1,369,-4679,23,-347,-152,141
173,-7572,-7,393,-4678,23,-351,-154,146
174,-7568,-3,378,-4684,23,-346,-162,139
175,-7571,-5,359,-4683,23,-343,-152,142
176,-7578,-4,352,-4680,23,-349,-151,135
177,-7567,-1,384,-4680,23,-348,-150,137
178,-7572,-15,390,-4684,23,-350,-149,137
179,-7570,-20,382,-4689,23,-350,-155,137
180,-7587,3,372,-4681,23,-348,-161,137
181,-7593,-4,365,-4681,23,-348,-147,136
182,-7572,-5,361,-4679,23,-346,-146,143
183,-7570,-4,385,-4674,23,-348,-156,146
184,-7554,3,397,-4680,23,-346,-149,143
185,-7566,-7,387,-4682,23,-345,-146,146
186,-7569,-7,380,-4679,23,-348,-154,145
187,-7576,-6,380,-4681,23,-346,-160,139
188,-7573,-7,388,-4682,23,-342,-154,137
189,-7579,-19,384,-4684,23,-341,-154,135
190,-7588,-8,379,-4675,23,-350,-154,137
191,-7592,-8,364,-4682,23,-343,-152,138
192,-7587,-3,356,-4680,23,-344,-147,143
193,-7579,-10,360,-4676,23,-351,-151,143
194,-7597,-5,388,-4682,23,-343,-144,141
195,-7586,-9,391,-4677,23,-342,-148,136
196,-7578,-2,382,-4678,23,-341,-149,139
197,-7581,-13,363,-4675,23,-348,-154,142
198,-7575,0,380,-4672,23,-347,-158,140
199,-7590,-5,373,-4669,23,-344,-149,144
200,-7588,-7,382,-4677,23,-345,-159,137
201,-7569,-6,394,-4682,23,-344,-157,136
202,-7575,-4,392,-4683,23,-345,-153,138
203,-7589,-10,391,-4675,23,-347,-155,146
204,-7583,-10,386,-4677,23,-349,-156,143
205,-7597,-6,401,-4681,23,-347,-148,139
206,-7598,-13,381,-4684,23,-351,-150,138
207,-7583,-15,384,-4682,23,-351,-148,142
208,-7573,-7,378,-4680,23,-351,-156,146
209,-7574,-6,375,-4683,23,-344,-153,140
210,-7564,-13,377,-4678,23,-346,-158,139
211,-7578,-17,366,-4681,23,-344,-151,140
212,-7577,-11,390,-4681,23,-348,-152,136
213,-7578,-13,368,-4676,23,-341,-147,143
214,-7576,-23,363,-4673,23,-350,-161,133
215,-7580,-9,371,-4679,23,-350,-159,143
216,-7575,-7,364,-4678,23,-354,-150,143
217,-7582,-7,401,-4679,23,-350,-149,142
218,-7589,-2,393,-4684,23,-347,-150,138
219,-7587,-6,379,-4686,23,-344,-147,140
220,-7585,-2,360,-4679,23,-349,-151,141
221,-7581,-8,364,-4686,23,-359,-147,141
222,-7572,3,383,-4683,23,-356,-153,141
223,-7590,0,370,-4678,23,-355,-143,133
224,-7573,-14,370,-4676,23,-347,-147,138
225,-7576,-24,354,-4678,23,-350,-156,142
226,-7566,-3,361,-4681,23,-349,-149,140
227,-7576,3,394,-4675,23,-346,-148,139
228,-7578,-13,389,-4676,23,-350,-151,133
229,-7580,-14,374,-4678,23,-350,-148,140
230,-7578,-11,371,-4680,23,-348,-157,135
231,-7584,5,377,-4680,23,-339,-151,139
232,-7592,11,382,-4679,23,-347,-148,135
233,-7585,-5,382,-4678,23,-344,-151,138
234,-7590,-15,380,-4682,23,-347,-147,137
235,-7581,-14,371,-4680,23,-344,-150,137
236,-7563,-15,382,-4682,23,-346,-150,141
237,-7579,-9,371,-4685,23,-339,-154,145
238,-7578,-14,348,-4681,23,-340,-151,135
239,-7587,-5,364,-4682,23,-343,-151,138
240,-7581,-1,381,-4676,23,-345,-155,140
241,-7581,-27,359,-4673,23,-349,-150,144
242,-7583,0,374,-4679,23,-338,-152,141
243,-7596,-20,376,-4681,23,-344,-148,138
244,-7581,-15,394,-4684,23,-345,-152,141
245,-7569,-17,380,-4679,23,-349,-163,136
246,-7569,-11,378,-4679,23,-354,-154,136
247,-7585,-10,375,-4682,23,-351,-160,139
248,-7575,-7,362,-4680,23,-348,-160,137
249,-7568,-23,367,-4680,23,-347,-155,141
250,-7561,-5,361,-4683,23,-349,-164,145
251,-7565,-7,379,-4679,23,-335,-162,137
252,-7580,-15,387,-4678,23,-343,-151,136
253,-7562,-13,373,-4679,23,-349,-150,138
254,-7570,6,375,-4681,23,-354,-152,143
255,-7581,16,369,-4679,23,-346,-146,142
256,-7564,5,362,-4674,23,-345,-152,139
257,-7583,7,387,-4673,23,-347,-151,141
258,-7586,-10,374,-4677,23,-338,-152,147
259,-7576,-16,378,-4678,23,-343,-154,148
260,-7587,-3,362,-4684,23,-343,-153,144
261,-7588,-7,362,-4684,23,-349,-147,145
262,-7574,-14,367,-4684,23,-348,-155,141
263,-7579,-26,374,-4680,23,-345,-149,135
264,-7588,-8,366,-4677,23,-351,-153,136
265,-7581,-13,363,-4673,23,-349,-152,136
266,-7594,-20,368,-4670,23,-349,-147,142
267,-7575,-2,368,-4674,23,-346,-150,145
268,-7561,-14,358,-4677,23,-343,-155,145
269,-7584,-3,371,-4676,23,-340,-157,136
270,-7574,5,373,-4669,23,-342,-151,138
271,-7590,-3,387,-4675,23,-342,-143,137
272,-7593,-2,374,-4673,23,-344,-146,137
273,-7585,-2,361,-4675,23,-344,-151,141
274,-7574,1,368,-4674,23,-341,-155,136
275,-7590,-19,367,-4680,23,-349,-157,138
276,-7582,2,375,-4681,23,-345,-152,136
277,-7583,8,366,-4678,23,-346,-159,143
278,-7585,-1,345,-4682,23,-350,-153,137
279,-7589,-4,355,-4679,23,-350,-150,144
280,-7589,-23,372,-4677,23,-350,-154,141
281,-7566,-27,381,-4671,23,-347,-154,147
282,-7581,-14,415,-4676,23,-345,-152,140
283,-7577,-5,393,-4674,23,-343,-155,137
284,-7586,14,388,-4676,23,-341,-154,137
285,-7582,-3,384,-4673,23,-348,-145,136
286,-7567,-19,356,-4675,23,-352,-153,145
287,-7568,-13,349,-4677,23,-347,-152,145
288,-7571,-9,350,-4679,23,-352,-150,147
289,-7568,-4,367,-4678,23,-351,-153,145
290,-7580,-6,371,-4676,23,-351,-152,146
291,-7582,-9,382,-4676,23,-353,-153,144
292,-7561,-13,360,-4678,23,-346,-150,145
293,-7570,-4,361,-4679,23,-341,-148,134
294,-7584,-8,377,-4676,23,-343,-158,138
295,-7570,-15,367,-4677,23,-351,-146,139
296,-7580,-13,363,-4680,23,-344,-149,140
297,-7577,-16,372,-4678,23,-351,-147,136
298,-7571,-11,374,-4676,23,-351,-151,134
299,-7573,-22,394,-4675,23,-344,-155,136
300,-7580,2,390,-4675,23,-341,-157,135
301,-7568,-7,386,-4674,23,-346,-154,139
302,-7576,6,367,-4670,23,-348,-149,138
303,-7585,-15,372,-4674,23,-338,-148,136
304,-7584,-9,398,-4677,23,-345,-147,139
305,-7573,0,403,-4676,23,-341,-148,138
306,-7560,-9,396,-4676,23,-340,-154,140
307,-7574,-16,380,-4674,23,-345,-154,141
308,-7559,-19,358,-4675,23,-349,-151,139
309,-7568,-13,374,-4675,23,-356,-152,137
310,-7571,8,355,-4670,23,-354,-150,137
311,-7570,-1,360,-4673,23,-351,-149,137
312,-7573,-12,365,-4679,23,-347,-154,136
313,-7563,7,355,-4683,23,-347,-154,139
314,-7566,-20,369,-4678,23,-344,-150,143
315,-7580,-12,375,-4675,23,-344,-147,142
316,-7581,-8,381,-4676,23,-345,-153,141
317,-7572,-21,410,-4680,23,-347,-154,148
318,-7572,-22,394,-4677,23,-350,-152,143
319,-7568,-21,377,-4677,23,-340,-152,151
320,-7569,-17,368,-4676,23,-343,-151,148
321,-7575,2,362,-4681,23,-346,-156,142
322,-7563,7,372,-4673,23,-345,-161,138
323,-7575,6,363,-4682,23,-347,-159,137
324,-7573,4,375,-4680,23,-347,-154,138
325,-7569,8,389,-4673,23,-340,-153,137
326,-7560,0,369,-4674,23,-349,-154,135
327,-7567,17,366,-4670,23,-345,-151,143
328,-7570,2,370,-4669,23,-343,-157,137
329,-7577,7,377,-4669,23,-344,-156,139
330,-7582,-18,383,-4672,23,-348,-153,141
331,-7570,-12,394,-4679,23,-350,-161,139
332,-7570,-12,360,-4682,23,-348,-155,141
333,-7570,4,375,-4677,23,-348,-150,138
334,-7583,-3,393,-4683,23,-350,-148,139
335,-7595,-10,381,-4676,23,-347,-148,136
336,-7586,-10,376,-4677,23,-347,-149,139
337,-7572,5,370,-4678,23,-346,-151,141
338,-7572,7,382,-4680,23,-350,-150,136
339,-7579,-4,368,-4675,23,-354,-146,137
340,-7582,-2,392,-4674,23,-353,-149,141
341,-7581,13,398,-4675,23,-352,-151,137
342,-7576,0,390,-4678,23,-350,-148,139
343,-7585,-16,388,-4678,23,-346,-149,137
344,-7581,-19,387,-4678,23,-346,-153,138
345,-7582,-16,379,-4680,23,-343,-149,148
346,-7580,4,377,-4678,23,-342,-147,143
347,-7573,4,385,-4678,23,-346,-151,139
348,-7586,-3,381,-4674,23,-343,-154,137
349,-7579,-4,363,-4678,23,-347,-150,135
350,-7567,2,368,-4677,23,-344,-145,144
351,-7566,7,361,-4674,23,-346,-147,141
352,-7571,-9,378,-4675,23,-342,-150,143
353,-7563,-16,383,-4677,23,-340,-157,137
354,-7581,-14,389,-4681,23,-343,-160,134
355,-7576,-15,394,-4675,23,-346,-158,139
356,-7584,-5,382,-4676,23,-344,-151,137
357,-7580,-3,373,-4679,23,-349,-153,144
358,-7571,-22,408,-4675,23,-349,-158,144
359,-7575,-6,405,-4672,23,-339,-154,137
360,-7571,-5,364,-4675,23,-345,-153,138
361,-7584,2,353,-4672,23,-346,-158,135
362,-7579,9,369,-4672,23,-338,-156,141
363,-7577,8,350,-4675,23,-345,-163,138
364,-7581,-4,369,-4669,23,-342,-159,146
365,-7567,7,361,-4673,23,-344,-153,146
366,-7574,22,349,-4676,23,-346,-154,146
367,-7572,-3,341,-4673,23,-347,-155,140
368,-7583,9,372,-4673,23,-347,-156,140
369,-7577,-1,367,-4671,23,-348,-156,148
370,-7582,-15,362,-4674,23,-346,-155,141
371,-7592,-10,364,-4673,23,-341,-155,143
372,-7577,1,363,-4676,23,-344,-148,136
373,-7586,-10,385,-4671,23,-345,-153,143
374,-7575,-7,395,-4677,23,-344,-155,145
375,-7584,-9,368,-4670,23,-348,-153,139
376,-7572,-5,371,-4672,23,-354,-150,137
377,-7579,-2,391,-4679,23,-348,-149,135
378,-7567,-7,389,-4677,23,-348,-149,136
379,-7582,-1,402,-4678,23,-353,-160,142
380,-7582,-7,377,-4678,23,-347,-155,138
381,-7585,0,355,-4674,23,-345,-156,141
382,-7573,-16,379,-4675,23,-344,-159,144
383,-7580,-10,376,-4675,23,-349,-154,143
384,-7573,-17,380,-4678,23,-349,-155,142
385,-7565,-24,403,-4677,23,-344,-155,139
386,-7572,-12,392,-4677,23,-345,-156,137
387,-7589,-7,378,-4674,23,-345,-151,144
388,-7582,-10,369,-4678,23,-350,-154,141
389,-7573,-2,372,-4681,23,-348,-154,133
390,-7580,-15,375,-4679,23,-349,-147,132
391,-7580,-5,384,-4673,23,-351,-149,131
392,-7586,-12,365,-4672,23,-350,-149,135
393,-7591,-5,378,-4669,23,-348,-152,141
394,-7595,5,392,-4671,23,-347,-155,134
395,-7580,-10,406,-4669,23,-345,-151,139
396,-7583,-20,376,-4668,23,-346,-158,141
397,-7576,5,343,-4672,23,-341,-152,139
398,-7580,-9,384,-4675,23,-350,-154,140
399,-7576,-26,368,-4673,23,-346,-154,135
400,-7577,-6,352,-4677,23,-346,-153,137
401,-7569,-1,362,-4672,23,-347,-149,138
402,-7578,-19,349,-4669,23,-347,-150,137
403,-7576,-19,369,-4671,23,-344,-155,137
404,-7576,-20,375,-4672,23,-341,-148,146
405,-7590,-15,383,-4674,23,-343,-157,147
406,-7588,-9,383,-4672,23,-349,-155,144
407,-7567,-8,361,-4678,23,-349,-150,141
408,-7558,-7,384,-4672,23,-347,-160,141
409,-7559,0,360,-4675,23,-348,-154,134
410,-7587,-1,351,-4683,23,-352,-150,141
411,-7574,-8,366,-4676,23,-344,-154,142
412,-7577,-16,365,-4680,23,-346,-155,138
413,-7581,-4,371,-4672,23,-353,-156,136
414,-7586,-10,372,-4676,23,-343,-151,132
415,-7581,-6,365,-4675,23,-345,-154,131
416,-7574,-4,373,-4671,23,-349,-147,135
417,-7575,5,388,-4671,23,-350,-153,137
418,-7580,8,362,-4673,23,-346,-154,138
419,-7583,-13,383,-4669,23,-352,-157,145
420,-7583,-23,378,-4669,23,-351,-155,136
421,-7571,8,394,-4670,23,-345,-152,136
422,-7566,2,372,-4673,23,-348,-155,136
423,-7565,-7,351,-4677,23,-348,-151,142
424,-7573,10,378,-4673,23,-349,-151,143
425,-7580,-19,366,-4669,23,-349,-157,148
426,-7587,-1,336,-4675,23,-345,-157,138
427,-7588,-11,347,-4667,23,-349,-158,133
428,-7596,-10,361,-4668,23,-348,-155,130
429,-7587,-16,385,-4669,23,-347,-150,130
430,-7575,-7,373,-4675,23,-349,-149,139
431,-7580,-21,375,-4675,23,-340,-151,141
432,-7586,-10,374,-4679,23,-348,-153,133
433,-7582,-6,373,-4677,23,-346,-152,139
434,-7580,-21,354,-4678,23,-351,-150,143
435,-7583,-25,353,-4677,23,-347,-157,140
436,-7576,-7,387,-4674,23,-352,-157,143
437,-7578,-11,392,-4673,23,-352,-151,145
438,-7572,-4,389,-4672,23,-355,-150,139
439,-7573,-7,376,-4674,23,-354,-150,138
440,-7567,-3,376,-4678,23,-351,-149,134
441,-7559,-12,369,-4670,23,-344,-155,132
442,-7576,-1,376,-4670,23,-348,-147,139
443,-7568,-15,362,-4677,23,-351,-150,141
444,-7585,-13,382,-4675,23,-354,-150,137
445,-7572,-8,373,-4675,23,-350,-153,134
446,-7586,-15,348,-4676,23,-345,-149,136
447,-7599,-4,391,-4671,23,-348,-153,135
448,-7590,-19,369,-4673,23,-343,-145,132
449,-7590,-13,354,-4674,23,-346,-152,135
450,-7585,3,371,-4673,23,-351,-158,137
451,-7567,-13,386,-4674,23,-345,-161,138
452,-7573,-21,384,-4674,23,-349,-162,143
453,-7591,-23,378,-4673,23,-343,-162,141
454,-7575,3,378,-4677,23,-343,-160,138
455,-7579,-6,392,-4674,23,-340,-151,142
456,-7575,-19,381,-4680,23,-350,-148,139
457,-7571,6,378,-4675,23,-348,-152,139
458,-7572,-10,381,-4675,23,-353,-154,144
459,-7573,8,367,-4678,23,-346,-158,144
460,-7580,-2,366,-4680,23,-347,-156,142
461,-7580,-3,381,-4677,23,-345,-151,137
462,-7575,-5,374,-4674,23,-342,-161,138
463,-7577,-2,377,-4677,23,-344,-151,141
464,-7588,-12,368,-4679,23,-348,-149,140
465,-7568,-23,373,-4674,23,-340,-163,138
466,-7580,-26,374,-4670,23,-348,-165,139
467,-7576,-9,398,-4673,23,-350,-153,144
468,-7581,5,369,-4672,23,-356,-154,140
469,-7587,8,363,-4672,23,-352,-149,136
470,-7596,-6,371,-4676,23,-346,-151,135
471,-7591,-5,383,-4675,23,-346,-148,140
472,-7589,-9,373,-4672,23,-356,-154,143
473,-7579,-13,360,-4674,23,-353,-162,146
474,-7578,-17,354,-4670,23,-350,-150,140
475,-7586,-4,373,-4669,23,-336,-153,138
476,-7586,-19,354,-4671,23,-348,-152,135
477,-7590,-31,394,-4675,23,-347,-153,135
478,-7586,-9,393,-4678,23,-355,-156,139
479,-7588,-10,371,-4673,23,-351,-154,135
480,-7583,2,364,-4674,23,-347,-147,134
481,-7587,13,381,-4675,23,-349,-147,135
482,-7584,0,397,-4676,23,-343,-151,136
483,-7578,-2,353,-4668,23,-343,-150,143
484,-7564,-4,370,-4670,23,-345,-152,141
485,-7577,-5,357,-4672,23,-348,-151,142
486,-7578,5,387,-4668,23,-352,-155,144
487,-7589,3,374,-4669,23,-345,-156,139
488,-7575,0,382,-4666,23,-354,-153,142
489,-7598,-14,394,-4672,23,-348,-152,147
490,-7583,-8,385,-4678,23,-350,-156,143
491,-7585,3,374,-4669,23,-351,-155,147
492,-7582,8,362,-4674,23,-349,-151,139
493,-7579,-8,383,-4675,23,-350,-153,137
494,-7571,-2,365,-4674,23,-347,-152,141
495,-7582,-6,376,-4669,23,-350,-156,142
496,-7578,-6,374,-4667,23,-341,-153,141
497,-7573,-12,374,-4671,23,-342,-151,141
498,-7570,-4,389,-4673,23,-340,-143,140
499,-7576,-2,385,-4675,23,-342,-149,135
500,-7575,-12,390,-4674,23,-342,-151,136
501,-7577,-6,383,-4674,23,-345,-146,141
502,-7587,-6,388,-4674,23,-351,-145,140
503,-7562,3,371,-4674,23,-354,-151,144
504,-7571,-21,375,-4670,23,-352,-148,134
505,-7579,-1,354,-4677,23,-351,-150,142
506,-7568,-3,374,-4669,23,-349,-148,140
507,-7579,-5,364,-4677,23,-348,-151,141
508,-7563,-10,381,-4672,23,-351,-151,140
509,-7575,3,396,-4673,23,-352,-145,147
510,-7576,12,370,-4678,23,-349,-147,140
511,-7580,8,345,-4671,23,-343,-157,143
512,-7579,0,371,-4673,23,-343,-158,141
513,-7578,18,380,-4679,23,-340,-153,143
514,-7579,9,393,-4676,23,-347,-150,137
515,-7577,2,377,-4676,23,-340,-154,134
516,-7581,18,379,-4672,23,-344,-156,134
517,-7576,6,364,-4670,23,-341,-153,138
518,-7584,-16,399,-4672,23,-338,-155,142
519,-7578,-13,389,-4676,23,-346,-160,140
520,-7582,2,385,-4677,23,-349,-156,136
521,-7580,8,396,-4677,23,-344,-156,136
522,-7570,-18,373,-4679,23,-345,-151,142
523,-7581,0,391,-4675,23,-349,-151,138
524,-7580,-12,378,-4673,23,-344,-161,139
525,-7578,-7,378,-4677,23,-339,-151,134
526,-7579,-25,379,-4681,23,-345,-149,140
527,-7574,-5,369,-4678,23,-349,-152,144
528,-7578,-8,366,-4674,23,-350,-148,146
529,-7589,-31,347,-4674,23,-339,-147,140
530,-7580,-16,382,-4677,23,-349,-146,138
531,-7576,-14,392,-4677,23,-343,-154,143
532,-7591,-7,383,-4674,23,-349,-154,141
533,-7585,9,403,-4670,23,-345,-150,140
534,-7592,-2,385,-4667,23,-351,-155,140
535,-7582,-4,365,-4668,23,-348,-154,138
536,-7586,-5,372,-4671,23,-346,-153,136
537,-7585,-1,365,-4673,23,-344,-151,136
538,-7571,9,390,-4667,23,-339,-153,134
539,-7574,5,393,-4672,23,-348,-154,137
540,-7571,-9,377,-4671,23,-339,-151,140
541,-7580,-12,371,-4669,23,-345,-155,138
542,-7566,-6,384,-4669,23,-341,-156,142
543,-7574,-3,359,-4670,23,-342,-160,140
544,-7581,-13,368,-4676,23,-342,-152,141
545,-7576,-1,389,-4673,23,-347,-149,141
546,-7578,-3,391,-4677,23,-348,-150,146
547,-7578,-19,378,-4677,23,-354,-158,147
548,-7597,-16,396,-4673,23,-349,-157,145
549,-7570,-7,403,-4672,23,-346,-157,140
550,-7572,-3,376,-4670,23,-347,-149,142
551,-7595,-5,362,-4673,23,-347,-154,137
552,-7589,-3,343,-4669,23,-346,-151,140
553,-7581,-3,351,-4676,23,-348,-149,134
554,-7576,2,380,-4673,23,-351,-146,135
555,-7571,16,370,-4680,23,-355,-155,136
556,-7563,5,392,-4676,23,-344,-153,137
557,-7567,-5,374,-4677,23,-347,-150,131
558,-7572,-7,354,-4673,23,-337,-147,136
559,-7571,-25,367,-4677,23,-345,-148,137
560,-7571,-17,400,-4673,23,-343,-146,136
561,-7575,-14,385,-4676,23,-343,-153,139
562,-7592,-6,396,-4675,23,-349,-160,137
563,-7582,3,375,-4680,23,-345,-162,136
564,-7568,-13,366,-4677,23,-347,-150,137
565,-7582,-10,361,-4676,23,-342,-140,138
566,-7583,-12,375,-4668,23,-349,-148,134
567,-7582,-1,386,-4668,23,-347,-155,136
568,-7580,-1,367,-4677,23,-347,-158,141
569,-7577,-11,387,-4673,23,-344,-149,145
570,-7593,-32,381,-4677,23,-345,-152,149
571,-7576,-25,387,-4675,23,-348,-153,141
572,-7579,-17,374,-4675,23,-335,-147,126
573,-7566,-6,376,-4674,23,-346,-154,128
574,-7577,-12,385,-4677,23,-351,-154,137
575,-7574,-15,376,-4674,23,-351,-161,139
576,-7573,-8,353,-4671,23,-345,-152,139
577,-7573,-1,381,-4675,23,-346,-157,141
578,-7572,-2,389,-4670,23,-342,-155,138
579,-7585,1,370,-4675,23,-347,-159,144
580,-7575,-9,367,-4677,23,-348,-151,144
581,-7584,-9,368,-4677,23,-346,-159,147
582,-7563,1,369,-4669,23,-349,-164,144
583,-7575,-8,374,-4674,23,-348,-158,139
584,-7567,10,368,-4675,23,-351,-156,138
585,-7570,-2,387,-4670,23,-351,-157,144
586,-7584,10,374,-4673,23,-353,-159,138
587,-7588,4,370,-4669,23,-357,-158,141
588,-7588,10,375,-4671,23,-352,-161,139
589,-7580,-3,381,-4671,23,-352,-156,139
590,-7571,-2,375,-4672,23,-351,-148,138
591,-7560,0,379,-4669,23,-349,-147,140
592,-7570,3,394,-4671,23,-347,-146,141
593,-7588,6,367,-4671,23,-342,-146,144
594,-7580,-12,354,-4673,23,-346,-149,137
595,-7576,-19,388,-4668,23,-345,-150,140
596,-7578,-25,381,-4666,23,-344,-157,144
597,-7577,-17,379,-4667,23,-347,-151,139
598,-7587,3,377,-4665,23,-349,-148,141
599,-7602,-1,405,-4669,23,-351,-148,140
600,-7590,3,387,-4671,23,-354,-156,145
601,-7578,-6,390,-4666,23,-340,-159,145
602,-7564,-11,397,-4665,23,-344,-148,136
603,-7568,-6,383,-4661,23,-346,-149,138
604,-7580,2,377,-4664,23,-351,-154,136
605,-7581,1,372,-4665,23,-349,-156,145
606,-7576,8,384,-4664,23,-342,-157,138
607,-7578,-5,403,-4667,23,-342,-161,134
608,-7581,-4,355,-4667,23,-345,-161,134
609,-7581,-1,354,-4667,23,-352,-154,136
610,-7572,-3,361,-4668,23,-344,-158,143
611,-7580,-17,365,-4672,23,-347,-154,146
612,-7580,-10,387,-4670,23,-346,-152,145
613,-7584,5,377,-4673,23,-347,-160,142
614,-7589,2,369,-4676,23,-348,-155,138
615,-7569,-1,354,-4685,23,-344,-152,139
616,-7574,0,381,-4682,23,-350,-149,139
617,-7581,-2,382,-4678,23,-349,-152,138
618,-7588,4,384,-4672,23,-350,-156,133
619,-7571,2,365,-4670,23,-345,-154,138
620,-7575,14,390,-4678,23,-348,-157,137
621,-7576,12,398,-4677,23,-352,-152,145
622,-7568,10,393,-4670,23,-350,-155,143
623,-7580,-9,369,-4669,23,-350,-151,138
624,-7572,-5,364,-4674,23,-343,-156,135
625,-7573,-7,371,-4670,23,-345,-148,131
626,-7575,-7,358,-4670,23,-342,-156,139
627,-7573,-3,361,-4672,23,-343,-156,141
628,-7563,-13,378,-4680,23,-344,-158,138
629,-7576,4,391,-4674,23,-342,-159,138
630,-7560,-14,381,-4676,23,-350,-154,136
631,-7587,-16,388,-4670,23,-349,-153,135
632,-7589,-12,362,-4670,23,-348,-148,141
633,-7595,-4,386,-4673,23,-350,-154,140
634,-7583,-22,381,-4672,23,-352,-154,139
635,-7569,-23,362,-4676,23,-349,-155,137
636,-7581,-17,379,-4673,23,-349,-158,138
637,-7580,-10,373,-4671,23,-351,-151,134
638,-7573,-10,363,-4676,23,-353,-157,139
639,-7576,-2,347,-4674,23,-354,-154,137
640,-7583,3,347,-4672,23,-355,-155,137
641,-7573,1,354,-4671,23,-356,-153,136
642,-7574,-1,377,-4672,23,-349,-157,136
643,-7569,-6,365,-4669,23,-345,-151,139
644,-7572,-16,361,-4666,23,-344,-145,136
645,-7570,-14,374,-4664,23,-346,-155,143
646,-7579,-12,369,-4669,23,-347,-158,132
647,-7575,-15,374,-4666,23,-350,-160,139
648,-7579,-14,384,-4675,23,-350,-155,132
649,-7589,-16,398,-4680,23,-354,-153,143
650,-7573,0,362,-4679,23,-348,-160,140
651,-7581,2,367,-4672,23,-345,-156,136
652,-7571,-6,403,-4667,23,-345,-159,144
653,-7590,-9,373,-4668,23,-340,-152,139
654,-7569,-26,392,-4670,23,-345,-155,141
655,-7568,-28,390,-4669,23,-343,-151,140
656,-7578,-19,382,-4670,23,-347,-153,141
657,-7583,-1,400,-4667,23,-351,-150,143
658,-7605,18,372,-4668,23,-353,-158,139
659,-7580,-5,388,-4672,23,-349,-151,138
660,-7588,-8,371,-4667,23,-344,-151,139
661,-7579,-1,365,-4664,23,-344,-156,143
662,-7579,-2,363,-4667,23,-352,-153,148
663,-7572,-5,353,-4672,23,-348,-154,137
664,-7579,-17,368,-4671,23,-346,-150,142
665,-7579,-7,350,-4672,23,-343,-149,147
666,-7586,-12,345,-4671,23,-348,-149,140
667,-7586,15,358,-4674,23,-350,-147,142
668,-7590,3,371,-4670,23,-345,-144,138
669,-7581,8,376,-4667,23,-346,-154,137
670,-7570,6,368,-4664,23,-347,-146,136
671,-7568,-8,376,-4670,23,-349,-144,139
672,-7574,0,390,-4675,23,-348,-147,136
673,-7574,4,398,-4670,23,-351,-148,142
674,-7567,0,402,-4668,23,-353,-153,142
675,-7571,-12,363,-4670,23,-351,-150,137
676,-7568,-23,352,-4669,23,-344,-145,135
677,-7563,-22,373,-4670,23,-346,-152,139
678,-7562,-15,372,-4661,23,-352,-148,143
679,-7570,-19,373,-4666,23,-351,-155,147
680,-7579,-22,369,-4671,23,-341,-155,140
681,-7590,0,378,-4667,23,-344,-153,143
682,-7584,-4,358,-4670,23,-340,-159,143
683,-7573,2,375,-4669,23,-350,-161,141
684,-7581,-11,372,-4674,23,-348,-160,139
685,-7597,-2,386,-4670,23,-344,-147,140
686,-7594,-1,389,-4669,23,-344,-147,138
687,-7579,-2,374,-4666,23,-349,-144,135
688,-7587,-9,398,-4671,23,-346,-155,136
689,-7589,6,394,-4674,23,-348,-149,134
690,-7571,2,370,-4665,23,-343,-149,136
691,-7585,-6,384,-4666,23,-343,-151,137
692,-7588,0,391,-4671,23,-345,-153,144
693,-7591,-11,393,-4667,23,-345,-149,142
694,-7573,-18,371,-4669,23,-346,-151,139
695,-7582,-19,395,-4672,23,-352,-150,145
696,-7588,-14,392,-4666,23,-353,-145,143
697,-7592,-7,409,-4667,23,-347,-152,136
698,-7579,-2,403,-4663,23,-350,-148,133
699,-7571,-4,409,-4666,23,-353,-153,133
700,-7573,-4,390,-4668,23,-349,-139,140
701,-7577,-1,379,-4667,23,-345,-147,143
702,-7574,3,388,-4663,23,-348,-155,138
703,-7564,5,399,-4663,23,-349,-158,141
704,-7575,9,375,-4669,23,-345,-158,141
705,-7576,-13,356,-4671,23,-349,-160,142
706,-7584,-13,361,-4675,23,-345,-160,147
707,-7568,-2,357,-4668,23,-351,-157,140
708,-7565,0,373,-4664,23,-342,-154,150
709,-7564,-17,380,-4665,23,-348,-155,148
710,-7577,-8,377,-4669,23,-352,-151,140
711,-7575,-13,368,-4669,23,-355,-150,139
712,-7576,-6,376,-4674,23,-352,-151,143
713,-7583,1,374,-4670,23,-347,-156,141
714,-7579,-8,382,-4669,23,-346,-151,141
715,-7586,-7,373,-4669,23,-347,-151,142
716,-7576,-7,371,-4670,23,-348,-149,143
717,-7579,-13,365,-4667,23,-349,-154,139
718,-7577,-9,359,-4664,23,-348,-150,138
719,-7568,1,376,-4666,23,-349,-148,139
720,-7567,7,362,-4670,23,-349,-156,141
721,-7584,-4,369,-4668,23,-346,-152,140
722,-7587,7,364,-4671,23,-340,-151,140
723,-7580,-2,378,-4670,23,-347,-150,143
724,-7585,6,381,-4675,23,-350,-150,138
725,-7584,-1,379,-4672,23,-348,-155,141
726,-7582,-9,367,-4674,23,-351,-157,140
727,-7585,-6,376,-4673,23,-349,-157,141
728,-7578,5,375,-4672,23,-353,-157,144
729,-7583,3,380,-4673,23,-349,-154,144
730,-7587,-2,380,-4667,23,-348,-155,141
731,-7584,-12,370,-4670,23,-348,-153,142
732,-7591,-16,359,-4674,23,-349,-153,147
733,-7580,-12,377,-4671,23,-346,-150,142
734,-7580,2,376,-4667,23,-349,-145,143
735,-7585,1,378,-4665,23,-348,-153,140
736,-7597,5,355,-4663,23,-349,-155,137
737,-7583,-9,359,-4667,23,-344,-154,138
738,-7566,-9,380,-4669,23,-349,-153,136
739,-7576,8,389,-4672,23,-345,-157,134
740,-7567,5,385,-4668,23,-347,-152,136
741,-7562,13,389,-4672,23,-345,-153,137
742,-7573,1,378,-4668,23,-344,-153,137
743,-7582,-5,378,-4664,23,-340,-149,140
744,-7571,-5,355,-4666,23,-348,-152,141
745,-7564,-6,363,-4669,23,-347,-150,147
746,-7563,-2,394,-4669,23,-347,-155,139
747,-7572,-10,373,-4668,23,-354,-148,136
748,-7571,-14,379,-4667,23,-347,-150,144
749,-7564,-3,374,-4671,23,-343,-154,138
750,-7558,3,388,-4666,23,-344,-153,136
751,-7557,-1,383,-4666,23,-351,-149,136
752,-7563,7,395,-4667,23,-352,-152,136
753,-7579,-6,384,-4666,23,-350,-162,132
754,-7583,-7,373,-4670,23,-350,-149,138
755,-7574,-3,368,-4665,23,-352,-144,139
756,-7578,-16,372,-4668,23,-345,-145,142
757,-7570,-3,375,-4664,23,-342,-139,143
758,-7574,-4,396,-4668,23,-345,-150,132
759,-7582,-4,377,-4667,23,-347,-150,141
760,-7580,-24,391,-4664,23,-345,-146,143
761,-7579,-4,370,-4672,23,-350,-149,139
762,-7584,-12,375,-4676,23,-355,-155,141
763,-7576,-9,358,-4670,23,-352,-151,151
764,-7573,-12,381,-4667,23,-349,-155,143
765,-7578,-5,357,-4664,23,-349,-152,141
766,-7580,-4,376,-4668,23,-352,-154,141
767,-7574,4,351,-4668,23,-351,-155,143
768,-7569,13,359,-4665,23,-349,-151,145
769,-7565,4,375,-4662,23,-346,-150,143
770,-7571,-1,345,-4660,23,-351,-148,142
771,-7578,14,375,-4662,23,-347,-151,141
772,-7596,-2,385,-4663,23,-346,-147,146
773,-7593,-3,377,-4666,23,-349,-153,144
774,-7589,3,390,-4668,23,-347,-154,142
775,-7576,11,402,-4670,23,-340,-155,149
776,-7594,9,387,-4671,23,-347,-151,143
777,-7581,2,361,-4668,23,-355,-147,141
778,-7574,-13,370,-4667,23,-355,-152,144
779,-7577,-7,361,-4668,23,-351,-153,142
780,-7584,-12,367,-4664,23,-350,-152,138
781,-7573,-11,385,-4665,23,-349,-153,138
782,-7595,-3,362,-4665,23,-353,-154,141
783,-7577,-7,382,-4660,23,-358,-149,132
784,-7567,-20,385,-4664,23,-354,-146,139
785,-7575,-10,419,-4670,23,-349,-145,145
786,-7575,4,384,-4672,23,-348,-149,135
787,-7583,-12,364,-4666,23,-352,-153,138
788,-7581,4,359,-4666,23,-349,-158,142
789,-7577,10,370,-4671,23,-343,-158,143
790,-7573,-5,376,-4668,23,-352,-159,136
791,-7577,2,404,-4666,23,-351,-151,136
792,-7590,5,394,-4662,23,-347,-149,136
793,-7600,7,375,-4663,23,-351,-154,134
794,-7601,5,372,-4666,23,-347,-163,137
795,-7586,2,360,-4665,23,-344,-151,144
796,-7585,-2,365,-4669,23,-344,-157,133
797,-7577,-6,398,-4661,23,-351,-158,137
798,-7574,-7,388,-4666,23,-341,-151,136
799,-7576,-12,374,-4662,23,-340,-155,136
800,-7565,-7,375,-4659,23,-342,-149,131
801,-7569,0,357,-4664,23,-346,-147,133
802,-7584,3,356,-4663,23,-357,-144,129
803,-7582,4,382,-4666,23,-351,-147,133
804,-7577,3,386,-4665,23,-350,-151,134
805,-7552,-7,372,-4667,23,-343,-152,136
806,-7570,-3,377,-4666,23,-346,-154,136
807,-7574,-12,377,-4661,23,-341,-152,144
808,-7583,-4,373,-4667,23,-345,-148,149
809,-7581,-2,369,-4666,23,-343,-149,148
810,-7582,-4,373,-4662,23,-350,-147,145
811,-7575,-3,376,-4670,23,-351,-145,146
812,-7570,-8,385,-4666,23,-351,-144,141
813,-7573,-5,362,-4664,23,-350,-143,146
814,-7565,-8,374,-4664,23,-350,-148,147
815,-7564,-10,361,-4665,23,-354,-156,142
816,-7559,2,371,-4666,23,-351,-158,140
817,-7575,-13,386,-4664,23,-351,-149,142
818,-7571,-15,379,-4663,23,-349,-152,136
819,-7580,-18,376,-4665,23,-352,-148,138
820,-7579,-5,362,-4663,23,-357,-157,142
821,-7576,7,355,-4665,23,-351,-150,137
822,-7586,-2,345,-4661,23,-348,-153,140
823,-7591,16,357,-4669,23,-346,-150,142
824,-7581,0,367,-4664,23,-342,-149,144
825,-7586,-7,388,-4661,23,-350,-153,138
826,-7573,-9,373,-4668,23,-340,-148,133
827,-7578,-13,376,-4663,23,-343,-154,140
828,-7584,-5,395,-4661,23,-341,-154,143
829,-7572,-16,373,-4662,23,-348,-151,146
830,-7569,-12,391,-4663,23,-341,-150,141
831,-7575,9,384,-4660,23,-343,-153,139
832,-7583,-2,365,-4664,23,-347,-156,140
833,-7573,-19,378,-4665,23,-346,-152,141
834,-7579,-5,394,-4668,23,-344,-149,140
835,-7575,-3,395,-4665,23,-344,-151,136
836,-7590,-4,385,-4664,23,-347,-150,138
837,-7580,-10,382,-4662,23,-346,-146,137
838,-7570,-9,374,-4665,23,-343,-153,140
839,-7577,-1,377,-4660,23,-349,-152,136
840,-7575,-12,377,-4666,23,-339,-152,137
841,-7568,-8,396,-4668,23,-348,-148,129
842,-7570,1,378,-4673,23,-344,-149,139
843,-7562,1,357,-4671,23,-353,-153,140
844,-7575,6,375,-4668,23,-345,-155,142
845,-7564,-11,399,-4665,23,-345,-166,143
846,-7574,-14,383,-4662,23,-338,-153,138
847,-7591,-8,385,-4666,23,-342,-152,145
848,-7597,-6,367,-4663,23,-346,-151,136
849,-7594,-3,366,-4665,23,-343,-146,140
850,-7586,3,380,-4669,23,-348,-149,140
851,-7581,-13,362,-4668,23,-352,-157,141
852,-7574,-7,390,-4671,23,-348,-160,143
853,-7587,7,375,-4671,23,-345,-151,147
854,-7584,9,370,-4669,23,-340,-152,142
855,-7582,5,402,-4668,23,-342,-155,136
856,-7577,-1,383,-4669,23,-345,-157,140
857,-7571,-13,384,-4670,23,-344,-159,140
858,-7569,-16,384,-4669,23,-344,-161,130
859,-7566,0,390,-4667,23,-347,-154,138
860,-7568,7,366,-4666,23,-352,-154,140
861,-7573,2,377,-4667,23,-343,-154,135
862,-7577,-10,380,-4666,23,-344,-149,146
863,-7585,-7,379,-4666,23,-345,-155,143
864,-7591,-8,369,-4667,23,-347,-161,139
865,-7576,-4,384,-4663,23,-338,-149,141
866,-7581,-10,376,-4662,23,-348,-150,144
867,-7579,-2,376,-4666,23,-355,-149,145
868,-7577,-6,398,-4670,23,-350,-153,133
869,-7586,-13,398,-4665,23,-347,-144,135
870,-7577,-19,375,-4663,23,-342,-143,139
871,-7585,-13,374,-4666,23,-349,-152,144
872,-7590,-14,368,-4670,23,-349,-160,138
873,-7572,-14,391,-4667,23,-352,-148,140
874,-7560,-4,372,-4665,23,-354,-148,140
875,-7578,-5,379,-4663,23,-351,-144,142
876,-7581,6,383,-4668,23,-344,-150,145
877,-7577,-2,356,-4663,23,-343,-154,147
878,-7579,-5,341,-4667,23,-348,-152,136
879,-7583,-27,344,-4663,23,-345,-155,139
880,-7577,6,382,-4670,23,-346,-148,136
881,-7566,-7,396,-4669,23,-342,-160,136
882,-7570,-9,387,-4668,23,-349,-158,138
883,-7561,-13,361,-4673,23,-343,-154,138
884,-7566,-10,372,-4669,23,-343,-154,137
885,-7558,-7,401,-4669,23,-343,-154,142
886,-7559,-7,372,-4670,23,-351,-151,133
887,-7591,1,406,-4673,23,-354,-153,137
888,-7586,-18,403,-4669,23,-345,-154,132
889,-7566,-27,393,-4668,23,-352,-158,142
890,-7569,-11,372,-4671,23,-353,-154,141
891,-7567,-11,354,-4670,23,-345,-157,141
892,-7582,-7,382,-4668,23,-350,-162,146
893,-7589,-16,395,-4668,23,-353,-156,142
894,-7596,-5,379,-4664,23,-351,-158,147
895,-7572,1,373,-4667,23,-345,-156,143
896,-7578,-10,400,-4671,23,-343,-155,138
897,-7576,2,384,-4668,23,-346,-148,138
898,-7580,-12,375,-4664,23,-346,-152,137
899,-7584,-2,355,-4664,23,-345,-144,136
900,-7588,6,370,-4671,23,-352,-150,140
901,-7607,0,369,-4669,23,-346,-156,140
902,-7588,-3,382,-4667,23,-343,-156,143
903,-7588,-8,385,-4666,23,-342,-156,143
904,-7584,-10,387,-4671,23,-350,-146,134
905,-7570,6,369,-4666,23,-348,-151,141
906,-7581,-12,368,-4666,23,-347,-164,135
907,-7574,-11,380,-4662,23,-351,-160,134
908,-7576,-7,390,-4669,23,-352,-156,141
909,-7589,-15,386,-4671,23,-346,-152,146
910,-7593,-24,378,-4670,23,-346,-158,142
911,-7586,-13,384,-4666,23,-344,-158,138
912,-7573,0,374,-4667,23,-352,-158,139
913,-7572,-11,358,-4666,23,-348,-149,143
914,-7565,-9,383,-4664,23,-346,-147,140
915,-7563,-15,365,-4668,23,-342,-148,139
916,-7566,-1,371,-4668,23,-346,-154,146
917,-7579,7,360,-4667,23,-341,-145,145
918,-7563,-10,375,-4667,23,-340,-157,142
919,-7565,-5,383,-4666,23,-346,-155,136
920,-7584,9,376,-4663,23,-344,-150,143
921,-7578,-8,377,-4667,23,-343,-154,141
922,-7569,-7,391,-4668,23,-348,-164,141
923,-7558,-5,367,-4663,23,-343,-161,146
924,-7568,-7,382,-4663,23,-341,-158,143
925,-7568,-23,367,-4664,23,-356,-162,138
926,-7570,-22,368,-4665,23,-348,-153,141
927,-7574,-1,377,-4671,23,-354,-149,139
928,-7568,-1,382,-4665,23,-354,-156,148
929,-7573,-4,385,-4667,23,-341,-151,140
930,-7584,-3,383,-4665,23,-347,-147,142
931,-7585,-3,386,-4670,23,-346,-149,146
932,-7570,-7,380,-4666,23,-349,-152,138
933,-7560,-9,392,-4664,23,-341,-149,138
934,-7581,-13,369,-4665,23,-350,-145,148
935,-7565,-25,382,-4666,23,-348,-155,138
936,-7581,-14,377,-4663,23,-350,-155,142
937,-7586,-17,374,-4663,23,-339,-155,142
938,-7568,-8,387,-4665,23,-345,-154,143
939,-7577,-7,367,-4661,23,-350,-152,135
940,-7576,-4,361,-4664,23,-349,-153,142
941,-7578,-10,364,-4664,23,-349,-146,137
942,-7586,-25,382,-4663,23,-351,-156,140
943,-7583,-8,379,-4665,23,-352,-153,143
944,-7593,-18,351,-4669,23,-349,-156,149
945,-7592,-3,355,-4668,23,-351,-153,142
946,-7566,-19,387,-4665,23,-347,-146,140
947,-7581,-13,382,-4664,23,-352,-151,144
948,-7576,-15,358,-4669,23,-348,-155,133
949,-7577,-1,356,-4671,23,-349,-151,138
950,-7572,3,366,-4668,23,-350,-155,135
951,-7585,-8,381,-4668,23,-347,-152,139
952,-7577,-6,375,-4669,23,-362,-153,141
953,-7568,2,392,-4664,23,-347,-163,147
954,-7567,8,369,-4668,23,-348,-164,142
955,-7577,6,376,-4673,23,-353,-156,136
956,-7566,-2,370,-4668,23,-357,-149,138
957,-7569,-12,379,-4668,23,-352,-145,135
958,-7561,-4,382,-4668,23,-343,-156,137
959,-7573,-1,399,-4670,23,-351,-148,139
960,-7583,-16,408,-4668,23,-348,-155,142
961,-7590,-9,397,-4668,23,-344,-153,137
962,-7586,-14,362,-4673,23,-345,-154,142
963,-7575,-1,360,-4667,23,-346,-155,142
964,-7578,1,366,-4671,23,-349,-149,138
965,-7584,-6,369,-4668,23,-350,-157,139
966,-7572,-13,378,-4669,23,-348,-158,137
967,-7576,-15,369,-4664,23,-351,-153,137
968,-7571,-3,363,-4668,23,-352,-154,131
969,-7571,-2,380,-4668,23,-347,-150,135
970,-7569,8,385,-4667,23,-345,-149,143
971,-7572,-1,379,-4669,23,-350,-149,138
972,-7567,1,415,-4663,23,-347,-156,140
973,-7572,5,396,-4665,23,-342,-150,141
974,-7557,-5,380,-4666,23,-343,-149,145
975,-7560,2,377,-4666,23,-340,-156,141
976,-7581,-13,384,-4665,23,-342,-152,142
977,-7588,-9,374,-4667,23,-347,-155,142
978,-7590,-23,396,-4670,23,-346,-159,135
979,-7587,-7,367,-4664,23,-347,-159,138
980,-7580,1,381,-4660,23,-346,-150,135
981,-7580,4,355,-4664,23,-348,-157,142
982,-7583,-2,378,-4663,23,-348,-157,139
983,-7582,-10,368,-4665,23,-351,-154,137
984,-7580,-5,355,-4662,23,-349,-155,139
985,-7584,14,381,-4667,23,-345,-152,141
986,-7579,9,360,-4668,23,-348,-147,132
987,-7574,1,353,-4668,23,-349,-150,130
988,-7580,-4,358,-4668,23,-345,-155,139
989,-7585,-2,369,-4666,23,-347,-149,139
990,-7589,-1,393,-4666,23,-342,-152,143
991,-7580,-15,371,-4665,23,-343,-157,142
992,-7580,-12,363,-4666,23,-343,-157,140
993,-7583,2,377,-4665,23,-347,-152,140
994,-7579,-8,385,-4667,23,-344,-152,138
995,-7580,4,381,-4669,23,-343,-148,144
996,-7555,-7,390,-4672,23,-342,-153,139
997,-7575,-1,366,-4666,23,-346,-153,147
998,-7572,3,357,-4665,23,-352,-158,144
