,acc_X,acc_Y,acc_Z,temp,tempC,gyr_X,gyr_Y,gyr_Z
0,-3786,-4,187,-4775,22,-174,-76,69
1,-3785,-2,188,-4774,22,-174,-77,69
2,-3786,-1,186,-4773,22,-173,-77,69
3,-3785,-1,189,-4772,22,-173,-78,68
4,-3786,0,188,-4771,22,-175,-77,68
5,-3787,-3,185,-4772,22,-174,-77,68
6,-3790,-5,182,-4773,22,-174,-78,69
7,-3790,-6,185,-4773,22,-174,-77,70
8,-3788,-6,184,-4772,22,-174,-78,70
9,-3787,-5,186,-4773,22,-174,-79,70
10,-3785,-7,188,-4774,22,-174,-79,69
11,-3787,-6,188,-4772,22,-174,-79,69
12,-3786,-5,185,-4771,22,-175,-79,69
13,-3786,-4,186,-4769,22,-174,-79,70
14,-3785,-5,186,-4769,22,-174,-80,69
15,-3785,-3,187,-4769,22,-174,-79,69
16,-3786,-2,186,-4771,22,-173,-79,68
17,-3785,-1,188,-4771,22,-174,-78,68
18,-3786,-2,189,-4771,22,-175,-78,69
19,-3785,-3,192,-4772,22,-174,-77,69
20,-3786,-2,190,-4771,22,-174,-76,68
21,-3786,-3,189,-4770,22,-175,-77,69
22,-3787,-3,189,-4772,22,-173,-78,69
23,-3786,-3,189,-4772,22,-173,-78,70
24,-3789,-3,186,-4773,22,-174,-77,69
25,-3788,-4,184,-4774,22,-173,-76,70
26,-3789,-6,186,-4774,22,-173,-76,70
27,-3788,-4,187,-4774,22,-173,-76,70
28,-3788,-3,187,-4774,22,-174,-77,69
29,-3787,-2,187,-4775,22,-173,-77,70
30,-3788,-3,191,-4774,22,-173,-77,68
31,-3786,0,191,-4775,22,-173,-77,69
32,-3787,-2,189,-4775,22,-174,-78,69
33,-3785,-1,188,-4774,22,-174,-78,69
34,-3785,-2,191,-4772,22,-174,-77,68
35,-3784,-2,182,-4773,22,-174,-76,68
36,-3786,-2,182,-4773,22,-174,-76,68
37,-3789,-1,184,-4771,22,-173,-77,69
38,-3787,0,186,-4771,22,-173,-78,70
39,-3787,0,186,-4771,22,-174,-78,70
40,-3788,-2,184,-4772,22,-174,-77,70
41,-3789,-3,185,-4772,22,-174,-77,70
42,-3787,-3,185,-4770,22,-174,-77,70
43,-3787,-2,187,-4769,22,-174,-77,69
44,-3787,-2,187,-4770,22,-173,-77,68
45,-3786,0,191,-4768,22,-174,-77,69
46,-3789,-2,188,-4768,22,-174,-78,68
47,-3788,-4,190,-4770,22,-174,-78,69
48,-3789,-4,190,-4768,22,-174,-79,69
49,-3790,-8,187,-4769,22,-174,-78,69
50,-3790,-8,184,-4770,22,-174,-78,68
51,-3791,-6,184,-4771,22,-175,-78,68
52,-3790,-4,185,-4771,22,-175,-79,69
53,-3789,-3,184,-4772,22,-175,-79,70
54,-3789,-4,186,-4770,22,-175,-79,69
55,-3789,-3,187,-4770,22,-175,-79,68
56,-3791,-3,187,-4770,22,-175,-79,68
57,-3789,-7,186,-4768,22,-175,-79,68
58,-3788,-5,186,-4770,22,-175,-79,68
59,-3788,-2,187,-4772,22,-175,-78,68
60,-3786,-1,183,-4772,22,-175,-76,69
61,-3786,-4,184,-4771,22,-174,-76,69
62,-3784,-6,183,-4772,22,-173,-76,69
63,-3785,-6,183,-4772,22,-173,-76,71
64,-3785,-7,181,-4771,22,-173,-75,69
65,-3787,-7,182,-4770,22,-175,-75,70
66,-3789,-7,183,-4771,22,-174,-75,69
67,-3789,-7,184,-4773,22,-175,-75,69
68,-3787,-5,185,-4772,22,-174,-76,69
69,-3786,-7,184,-4771,22,-174,-76,68
70,-3789,-6,186,-4772,22,-174,-76,69
71,-3790,-7,187,-4772,22,-174,-77,69
72,-3790,-8,188,-4773,22,-174,-76,68
73,-3787,-6,189,-4771,22,-174,-77,69
74,-3785,-6,189,-4772,22,-174,-77,69
75,-3787,-3,190,-4769,22,-175,-76,69
76,-3787,-3,190,-4770,22,-175,-76,69
77,-3786,-3,186,-4770,22,-175,-76,68
78,-3786,-3,187,-4770,22,-174,-78,70
79,-3789,-4,185,-4771,22,-175,-77,69
80,-3789,-2,183,-4771,22,-175,-77,69
81,-3789,-1,185,-4773,22,-175,-77,70
82,-3790,-3,187,-4774,22,-174,-77,69
83,-3788,-3,183,-4772,22,-174,-78,69
84,-3787,-2,183,-4771,22,-173,-77,70
85,-3786,-2,189,-4770,22,-174,-78,69
86,-3787,-1,189,-4769,22,-174,-77,69
87,-3788,-2,187,-4769,22,-173,-78,71
88,-3787,-1,183,-4770,22,-173,-78,70
89,-3787,-4,178,-4769,22,-172,-79,70
90,-3786,-7,181,-4770,22,-173,-78,70
91,-3788,-6,180,-4769,22,-173,-77,70
92,-3789,-5,183,-4768,22,-173,-77,69
93,-3788,-4,183,-4769,22,-173,-78,68
94,-3788,-7,185,-4770,22,-174,-79,69
95,-3789,-8,185,-4771,22,-174,-79,68
96,-3788,-7,187,-4772,22,-174,-78,69
97,-3788,-8,185,-4772,22,-173,-78,70
98,-3788,-7,185,-4772,22,-173,-77,69
99,-3784,-8,188,-4773,22,-172,-77,69
100,-3785,-8,193,-4772,22,-172,-77,70
101,-3786,-6,192,-4771,22,-172,-76,69
102,-3785,-5,191,-4771,22,-173,-76,69
103,-3785,-5,192,-4771,22,-173,-76,70
104,-3786,-4,190,-4772,22,-174,-76,69
105,-3785,-4,191,-4771,22,-174,-76,68
106,-3786,-4,193,-4771,22,-174,-77,69
107,-3787,-2,192,-4772,22,-174,-77,68
108,-3787,-2,191,-4772,22,-175,-78,69
109,-3786,-4,189,-4771,22,-174,-77,70
110,-3788,-4,190,-4769,22,-175,-77,69
111,-3790,-3,190,-4769,22,-174,-77,69
112,-3788,-4,194,-4768,22,-174,-77,69
113,-3787,-7,193,-4770,22,-175,-76,69
114,-3786,-5,192,-4771,22,-173,-76,69
115,-3789,-7,187,-4771,22,-173,-77,69
116,-3787,-7,187,-4770,22,-173,-77,69
117,-3784,-8,187,-4768,22,-173,-77,69
118,-3784,-9,187,-4770,22,-173,-76,69
119,-3786,-7,186,-4771,22,-175,-78,68
120,-3787,-7,187,-4770,22,-174,-77,69
121,-3787,-3,185,-4771,22,-174,-77,69
122,-3789,-4,187,-4771,22,-175,-77,70
123,-3790,-5,191,-4770,22,-175,-77,69
124,-3790,-5,189,-4770,22,-175,-77,69
125,-3789,-5,187,-4771,22,-174,-77,68
126,-3789,-6,184,-4772,22,-174,-76,67
127,-3787,-9,183,-4772,22,-174,-77,67
128,-3787,-9,185,-4771,22,-173,-76,68
129,-3787,-7,189,-4772,22,-175,-75,69
130,-3788,-7,188,-4770,22,-176,-76,69
131,-3790,-4,187,-4770,22,-175,-76,70
132,-3789,-5,191,-4770,22,-174,-77,71
133,-3789,-6,191,-4771,22,-174,-76,70
134,-3790,-6,190,-4771,22,-174,-77,69
135,-3789,-6,189,-4770,22,-174,-76,68
136,-3790,-6,189,-4770,22,-175,-77,69
137,-3790,-5,191,-4768,22,-175,-76,68
138,-3792,-6,190,-4770,22,-175,-76,67
139,-3792,-7,189,-4770,22,-175,-77,68
140,-3792,-6,184,-4771,22,-175,-77,68
141,-3793,-4,183,-4772,22,-176,-79,68
142,-3793,-6,185,-4771,22,-176,-79,68
143,-3792,-7,186,-4771,22,-175,-79,69
144,-3789,-5,185,-4770,22,-174,-78,70
145,-3790,-5,188,-4770,22,-175,-78,69
146,-3789,-6,189,-4770,22,-174,-78,68
147,-3791,-3,191,-4768,22,-173,-78,67
148,-3787,-3,186,-4769,22,-174,-78,68
149,-3788,-5,187,-4769,22,-174,-78,67
150,-3789,-4,186,-4769,22,-174,-77,68
151,-3790,-6,182,-4770,22,-175,-77,69
152,-3791,-7,181,-4772,22,-174,-77,69
153,-3792,-7,179,-4772,22,-174,-75,69
154,-3791,-8,180,-4771,22,-174,-76,69
155,-3790,-8,182,-4771,22,-174,-75,69
156,-3789,-9,183,-4770,22,-174,-76,69
157,-3785,-9,188,-4772,22,-173,-76,70
158,-3785,-9,187,-4771,22,-173,-76,69
159,-3785,-7,188,-4770,22,-172,-77,69
160,-3786,-6,186,-4770,22,-173,-77,68
161,-3786,-6,188,-4771,22,-174,-77,68
162,-3786,-3,189,-4773,22,-174,-76,69
163,-3785,-2,189,-4774,22,-174,-75,69
164,-3787,-2,188,-4774,22,-174,-76,70
165,-3790,-3,189,-4773,22,-174,-75,69
166,-3791,-4,191,-4774,22,-173,-77,69
167,-3789,-5,193,-4774,22,-174,-77,67
168,-3788,-6,192,-4773,22,-174,-77,68
169,-3789,-5,191,-4772,22,-173,-77,67
170,-3791,-6,187,-4774,22,-173,-78,68
171,-3790,-5,184,-4772,22,-172,-77,69
172,-3791,-5,187,-4772,22,-172,-78,69
173,-3791,-5,188,-4773,22,-173,-77,70
174,-3790,-6,186,-4773,22,-172,-78,70
175,-3789,-3,188,-4773,22,-172,-76,68
176,-3791,-5,185,-4773,22,-172,-76,69
177,-3792,-4,185,-4774,22,-173,-77,70
178,-3792,-5,184,-4774,22,-173,-78,70
179,-3789,-4,182,-4774,22,-173,-77,69
180,-3787,-4,182,-4774,22,-174,-78,69
181,-3788,-3,184,-4774,22,-173,-79,70
182,-3786,-3,186,-4775,22,-174,-78,69
183,-3787,-4,185,-4774,22,-174,-78,69
184,-3786,-3,189,-4773,22,-174,-78,68
185,-3787,-1,190,-4772,22,-174,-78,69
186,-3787,0,190,-4770,22,-173,-76,70
187,-3788,0,190,-4769,22,-173,-77,70
188,-3788,-1,186,-4773,22,-174,-77,71
189,-3791,-4,184,-4773,22,-173,-79,70
190,-3792,-3,187,-4774,22,-173,-78,71
191,-3791,-6,191,-4771,22,-174,-77,70
192,-3789,-5,192,-4771,22,-175,-78,70
193,-3786,-4,192,-4770,22,-174,-77,70
194,-3787,-3,189,-4771,22,-174,-77,70
195,-3786,-5,185,-4771,22,-174,-76,70
196,-3788,-5,185,-4770,22,-173,-75,71
197,-3787,-7,184,-4770,22,-174,-76,71
198,-3788,-7,185,-4771,22,-173,-76,71
199,-3790,-7,187,-4772,22,-173,-76,70
200,-3789,-5,185,-4772,22,-174,-77,70
201,-3789,-6,183,-4772,22,-174,-76,69
202,-3793,-6,185,-4773,22,-175,-77,70
203,-3791,-4,188,-4774,22,-174,-75,70
204,-3792,-4,188,-4773,22,-174,-74,69
205,-3791,-5,184,-4771,22,-175,-75,69
206,-3790,-2,183,-4772,22,-174,-75,70
207,-3791,-3,183,-4773,22,-176,-76,70
208,-3791,-1,184,-4772,22,-176,-76,69
209,-3791,0,179,-4772,22,-175,-76,69
210,-3790,-3,182,-4771,22,-175,-76,69
211,-3792,-3,182,-4769,22,-174,-77,69
212,-3792,-3,181,-4769,22,-174,-77,69
213,-3792,-3,183,-4769,22,-173,-76,68
214,-3791,-3,182,-4769,22,-174,-76,68
215,-3790,-3,183,-4770,22,-174,-76,68
216,-3790,-3,184,-4772,22,-175,-76,69
217,-3790,-4,183,-4772,22,-174,-77,68
218,-3789,-5,184,-4772,22,-173,-77,68
219,-3789,-6,183,-4773,22,-173,-76,68
220,-3789,-5,181,-4772,22,-173,-75,68
221,-3787,-5,182,-4773,22,-172,-74,69
222,-3788,-3,183,-4773,22,-172,-75,69
223,-3787,-3,183,-4772,22,-173,-76,69
224,-3789,-3,186,-4772,22,-173,-75,69
225,-3787,-4,190,-4772,22,-173,-75,69
226,-3787,-6,190,-4771,22,-172,-76,69
227,-3788,-6,187,-4773,22,-173,-76,70
228,-3788,-5,185,-4772,22,-173,-78,70
229,-3789,-4,184,-4772,22,-174,-78,69
230,-3787,-6,181,-4772,22,-174,-78,69
231,-3787,-5,180,-4771,22,-173,-78,69
232,-3788,-4,181,-4772,22,-173,-77,68
233,-3790,-4,179,-4770,22,-173,-76,68
234,-3787,-4,182,-4772,22,-174,-77,68
235,-3788,-5,186,-4772,22,-174,-76,67
236,-3789,-4,186,-4772,22,-174,-76,68
237,-3786,-6,186,-4771,22,-173,-77,68
238,-3787,-4,186,-4771,22,-174,-77,69
239,-3788,-3,185,-4770,22,-173,-77,69
240,-3787,-4,184,-4770,22,-171,-77,70
241,-3788,-2,184,-4769,22,-173,-78,69
242,-3789,-2,187,-4769,22,-173,-79,69
243,-3788,-1,187,-4770,22,-173,-79,70
244,-3789,-1,192,-4771,22,-172,-80,68
245,-3787,-2,189,-4771,22,-173,-80,68
246,-3787,-2,190,-4771,22,-174,-80,69
247,-3788,-4,190,-4770,22,-172,-80,70
248,-3788,-4,189,-4770,22,-171,-80,71
249,-3789,-2,188,-4772,22,-172,-80,70
250,-3790,-2,193,-4770,22,-173,-79,70
251,-3790,-4,192,-4769,22,-173,-79,69
252,-3790,-3,191,-4771,22,-173,-79,69
253,-3790,-5,187,-4771,22,-173,-78,69
254,-3789,-5,184,-4770,22,-173,-78,68
255,-3789,-5,184,-4769,22,-172,-77,68
256,-3790,-5,182,-4768,22,-172,-78,69
257,-3790,-4,184,-4767,22,-173,-77,69
258,-3791,-5,184,-4768,22,-173,-77,71
259,-3794,-8,184,-4768,22,-173,-77,72
260,-3794,-8,186,-4767,22,-174,-77,71
261,-3793,-7,186,-4766,22,-175,-76,71
262,-3790,-5,184,-4768,22,-174,-77,69
263,-3789,-3,184,-4767,22,-173,-77,70
264,-3788,-4,184,-4768,22,-174,-78,70
265,-3790,-2,184,-4768,22,-173,-77,70
266,-3790,-3,183,-4768,22,-174,-78,71
267,-3791,-4,186,-4769,22,-173,-78,71
268,-3788,-5,183,-4767,22,-173,-79,71
269,-3789,-1,185,-4767,22,-173,-78,70
270,-3788,-3,189,-4768,22,-171,-78,70
271,-3788,-2,186,-4769,22,-173,-78,70
272,-3786,-2,185,-4768,22,-173,-79,69
273,-3785,0,185,-4767,22,-174,-78,69
274,-3784,-2,186,-4767,22,-173,-79,70
275,-3787,0,187,-4769,22,-173,-78,68
276,-3788,-1,188,-4767,22,-174,-79,68
277,-3791,-4,183,-4769,22,-174,-79,68
278,-3791,-1,185,-4767,22,-173,-78,67
279,-3792,-2,187,-4767,22,-173,-78,68
280,-3790,-2,188,-4767,22,-173,-78,68
281,-3792,-4,188,-4768,22,-173,-78,67
282,-3792,-5,182,-4768,22,-173,-77,67
283,-3790,-7,186,-4767,22,-173,-78,68
284,-3790,-8,189,-4769,22,-173,-77,67
285,-3789,-7,189,-4770,22,-173,-78,67
286,-3786,-8,185,-4770,22,-174,-78,69
287,-3783,-8,183,-4770,22,-175,-77,68
288,-3785,-5,183,-4769,22,-175,-77,69
289,-3786,-6,182,-4770,22,-175,-78,70
290,-3786,-4,186,-4770,22,-176,-77,69
291,-3787,-1,187,-4768,22,-176,-76,69
292,-3787,-1,190,-4770,22,-175,-77,68
293,-3788,0,191,-4770,22,-175,-77,68
294,-3789,-2,194,-4771,22,-174,-76,68
295,-3790,-2,195,-4772,22,-176,-77,68
296,-3793,-3,196,-4772,22,-176,-77,68
297,-3790,-4,192,-4773,22,-174,-76,69
298,-3790,-3,188,-4770,22,-174,-75,69
299,-3791,-2,185,-4770,22,-174,-77,69
300,-3788,-3,185,-4769,22,-175,-77,70
301,-3787,-2,184,-4771,22,-174,-78,69
302,-3787,-2,180,-4769,22,-175,-78,70
303,-3786,-5,182,-4768,22,-174,-77,70
304,-3788,-5,183,-4769,22,-174,-79,70
305,-3787,-5,184,-4769,22,-173,-79,68
306,-3785,-7,188,-4770,22,-175,-79,69
307,-3784,-6,188,-4770,22,-174,-78,68
308,-3785,-4,186,-4769,22,-174,-78,68
309,-3787,-6,181,-4769,22,-175,-78,69
310,-3788,-7,182,-4768,22,-175,-78,68
311,-3787,-7,184,-4768,22,-174,-78,68
312,-3788,-6,185,-4767,22,-174,-78,68
313,-3790,-9,185,-4767,22,-174,-77,70
314,-3788,-7,183,-4767,22,-174,-76,70
315,-3787,-4,184,-4766,22,-173,-77,69
316,-3790,-3,184,-4767,22,-173,-77,69
317,-3792,-4,181,-4767,22,-174,-77,70
318,-3793,-4,182,-4766,22,-175,-77,69
319,-3793,-3,182,-4767,22,-174,-77,70
320,-3792,-4,182,-4765,22,-173,-76,70
321,-3791,-4,183,-4765,22,-173,-76,69
322,-3793,-3,184,-4765,22,-173,-75,68
323,-3793,-2,182,-4765,22,-173,-75,68
324,-3792,1,180,-4769,22,-174,-75,68
325,-3791,0,179,-4769,22,-173,-76,69
326,-3791,-1,183,-4768,22,-174,-76,68
327,-3792,0,184,-4769,22,-173,-75,68
328,-3791,1,187,-4769,22,-172,-75,67
329,-3791,-1,190,-4770,22,-174,-76,69
330,-3792,-4,189,-4770,22,-173,-76,69
331,-3792,-3,189,-4770,22,-174,-77,69
332,-3791,-2,188,-4770,22,-174,-78,67
333,-3793,0,186,-4769,22,-175,-78,68
334,-3792,-3,187,-4767,22,-175,-78,69
335,-3791,-3,185,-4768,22,-175,-78,69
336,-3789,-4,187,-4769,22,-175,-78,69
337,-3789,-5,187,-4770,22,-176,-79,69
338,-3790,-5,184,-4770,22,-176,-80,69
339,-3789,-6,183,-4770,22,-175,-79,69
340,-3791,-3,183,-4769,22,-174,-79,68
341,-3792,-4,182,-4769,22,-174,-78,69
342,-3789,-4,183,-4769,22,-175,-78,69
343,-3789,-3,185,-4769,22,-175,-77,68
344,-3786,-3,186,-4771,22,-175,-77,69
345,-3786,-5,185,-4772,22,-174,-77,69
346,-3787,-3,187,-4772,22,-174,-76,70
347,-3786,-4,189,-4775,22,-174,-76,70
348,-3786,-7,192,-4774,22,-174,-75,69
349,-3787,-8,195,-4773,22,-174,-74,69
350,-3788,-8,190,-4771,22,-176,-75,69
351,-3786,-5,189,-4771,22,-176,-75,69
352,-3785,-4,189,-4771,22,-175,-75,69
353,-3784,-5,189,-4771,22,-174,-76,69
354,-3782,-6,187,-4774,22,-174,-77,69
355,-3785,-4,189,-4773,22,-175,-76,68
356,-3786,-5,187,-4771,22,-175,-77,68
357,-3786,-6,184,-4771,22,-175,-77,68
358,-3786,-4,183,-4771,22,-175,-77,68
359,-3789,-4,186,-4770,22,-175,-76,69
360,-3788,-5,187,-4769,22,-173,-75,69
361,-3789,-4,187,-4769,22,-175,-75,68
362,-3790,-4,183,-4768,22,-175,-76,68
363,-3790,-6,184,-4768,22,-175,-76,68
364,-3789,-7,183,-4768,22,-175,-76,69
365,-3787,-6,181,-4769,22,-173,-75,70
366,-3789,-4,180,-4769,22,-173,-76,69
367,-3789,-4,185,-4770,22,-172,-76,70
368,-3789,-4,181,-4770,22,-172,-76,68
369,-3788,-2,181,-4770,22,-171,-76,68
370,-3787,-4,184,-4770,22,-171,-75,67
371,-3788,-4,185,-4769,22,-171,-76,68
372,-3786,-4,190,-4769,22,-172,-76,68
373,-3783,-7,187,-4769,22,-172,-76,68
374,-3784,-7,190,-4770,22,-173,-76,68
375,-3784,-6,191,-4770,22,-174,-76,68
376,-3786,-6,189,-4769,22,-174,-75,68
377,-3786,-5,191,-4769,22,-175,-75,68
378,-3786,-5,189,-4770,22,-174,-75,68
379,-3785,-3,190,-4770,22,-175,-75,67
380,-3786,-2,190,-4771,22,-176,-75,67
381,-3785,-1,191,-4771,22,-176,-75,68
382,-3788,0,189,-4771,22,-176,-76,67
383,-3789,1,188,-4772,22,-177,-77,68
384,-3786,-2,186,-4772,22,-175,-76,69
385,-3785,-3,184,-4772,22,-174,-75,70
386,-3786,-2,184,-4772,22,-174,-76,70
387,-3788,-3,184,-4772,22,-173,-76,70
388,-3788,-2,183,-4772,22,-173,-76,69
389,-3790,-1,184,-4771,22,-173,-76,68
390,-3788,-2,186,-4770,22,-173,-76,69
391,-3787,-2,186,-4769,22,-173,-77,69
392,-3787,-2,187,-4768,22,-174,-77,69
393,-3788,-1,191,-4768,22,-174,-75,69
394,-3787,-2,188,-4765,22,-173,-76,69
395,-3785,-2,183,-4766,22,-174,-77,70
396,-3785,-2,183,-4766,22,-175,-78,70
397,-3785,-3,185,-4767,22,-176,-79,70
398,-3787,-3,188,-4768,22,-175,-78,70
399,-3789,-4,192,-4766,22,-176,-79,70
400,-3787,-4,193,-4769,22,-176,-79,70
401,-3787,-5,193,-4769,22,-175,-79,70
402,-3788,-3,191,-4771,22,-175,-79,71
403,-3789,-1,189,-4772,22,-174,-78,70
404,-3787,-5,188,-4768,22,-173,-78,71
405,-3785,-6,192,-4768,22,-173,-78,70
406,-3786,-5,192,-4769,22,-172,-78,70
407,-3789,-5,192,-4771,22,-173,-77,69
408,-3788,-7,190,-4773,22,-173,-78,69
409,-3786,-4,188,-4772,22,-172,-77,69
410,-3788,-4,187,-4774,22,-173,-78,71
411,-3786,-4,190,-4773,22,-173,-78,71
412,-3784,-2,187,-4772,22,-173,-79,71
413,-3784,-2,187,-4773,22,-174,-79,71
414,-3786,0,190,-4772,22,-174,-79,71
415,-3785,0,191,-4771,22,-174,-80,69
416,-3785,-1,191,-4772,22,-174,-78,69
417,-3785,-1,192,-4773,22,-173,-77,69
418,-3786,-4,195,-4771,22,-173,-76,68
419,-3787,-4,192,-4771,22,-172,-77,68
420,-3789,-3,192,-4769,22,-172,-77,68
421,-3789,-3,191,-4771,22,-174,-77,68
422,-3788,-4,190,-4771,22,-175,-77,68
423,-3787,-3,189,-4771,22,-175,-75,69
424,-3786,-3,188,-4770,22,-174,-76,70
425,-3785,-3,189,-4768,22,-175,-74,69
426,-3782,-2,192,-4768,22,-174,-75,69
427,-3782,-2,194,-4767,22,-173,-77,68
428,-3783,-1,192,-4768,22,-173,-76,70
429,-3784,1,193,-4770,22,-173,-75,69
430,-3786,2,191,-4771,22,-173,-76,70
431,-3788,1,189,-4770,22,-174,-77,70
432,-3791,1,191,-4770,22,-174,-76,68
433,-3790,-2,191,-4770,22,-174,-76,68
434,-3789,-2,191,-4769,22,-174,-76,68
435,-3791,-4,186,-4770,22,-173,-77,68
436,-3792,-4,183,-4771,22,-175,-77,68
437,-3791,-6,184,-4770,22,-175,-77,67
438,-3790,-4,184,-4769,22,-175,-77,67
439,-3791,-6,183,-4767,22,-175,-78,67
440,-3791,-5,184,-4768,22,-176,-77,68
441,-3789,-3,186,-4769,22,-175,-78,68
442,-3789,-5,190,-4771,22,-176,-78,69
443,-3788,-5,191,-4770,22,-177,-78,69
444,-3789,-3,188,-4767,22,-176,-77,68
445,-3790,-3,188,-4767,22,-177,-76,68
446,-3791,-6,188,-4767,22,-176,-76,69
447,-3789,-6,192,-4767,22,-176,-76,69
448,-3788,-7,190,-4767,22,-176,-76,69
449,-3787,-5,189,-4767,22,-176,-77,69
450,-3789,-6,187,-4767,22,-175,-76,69
451,-3789,-6,188,-4768,22,-175,-76,69
452,-3788,-6,189,-4768,22,-174,-77,70
453,-3789,-5,190,-4768,22,-174,-77,70
454,-3788,-4,182,-4767,22,-173,-76,69
455,-3785,-3,183,-4768,22,-174,-76,70
456,-3784,-1,183,-4768,22,-173,-76,71
457,-3785,-1,182,-4769,22,-173,-77,70
458,-3786,-3,181,-4769,22,-173,-77,69
459,-3785,-4,183,-4768,22,-173,-76,69
460,-3786,-4,187,-4768,22,-173,-77,70
461,-3789,-4,188,-4767,22,-174,-78,71
462,-3788,-3,186,-4766,22,-173,-78,70
463,-3788,-2,186,-4768,22,-173,-78,69
464,-3789,-5,186,-4769,22,-174,-78,70
465,-3787,-4,189,-4769,22,-173,-78,70
466,-3787,0,190,-4770,22,-173,-77,69
467,-3789,0,187,-4771,22,-174,-78,68
468,-3790,-2,186,-4771,22,-174,-77,69
469,-3791,-4,184,-4771,22,-174,-77,69
470,-3791,-4,186,-4770,22,-173,-77,69
471,-3789,-5,185,-4768,22,-173,-78,69
472,-3787,-5,189,-4769,22,-175,-76,69
473,-3785,-2,187,-4770,22,-175,-76,69
474,-3784,-3,187,-4770,22,-174,-76,69
475,-3789,-5,187,-4769,22,-174,-76,69
476,-3791,-6,188,-4769,22,-173,-76,68
477,-3789,-5,188,-4767,22,-173,-76,68
478,-3788,-7,189,-4765,22,-173,-76,69
479,-3787,-5,184,-4765,22,-174,-77,69
480,-3791,-6,185,-4765,22,-174,-76,67
481,-3792,-6,185,-4764,22,-174,-76,68
482,-3793,-7,185,-4765,22,-174,-75,68
483,-3790,-6,182,-4765,22,-174,-75,68
484,-3787,-7,187,-4765,22,-174,-76,68
485,-3788,-6,185,-4765,22,-174,-76,68
486,-3790,-4,184,-4765,22,-174,-77,68
487,-3790,-4,183,-4767,22,-174,-76,68
488,-3789,-5,185,-4767,22,-173,-76,68
489,-3788,-4,182,-4767,22,-173,-77,69
490,-3789,-4,182,-4768,22,-174,-76,68
491,-3788,-5,184,-4768,22,-173,-77,68
492,-3788,-4,187,-4768,22,-173,-76,70
493,-3790,-4,187,-4769,22,-173,-75,70
494,-3791,-4,187,-4769,22,-175,-76,70
495,-3790,-5,182,-4767,22,-173,-77,71
496,-3789,-7,186,-4768,22,-173,-76,71
497,-3790,-6,185,-4768,22,-174,-76,71
498,-3790,-8,188,-4768,22,-174,-76,72
499,-3787,-9,187,-4768,22,-173,-76,72
500,-3786,-9,185,-4768,22,-173,-76,71
501,-3790,-9,187,-4766,22,-173,-77,71
502,-3791,-8,185,-4767,22,-174,-76,70
503,-3792,-4,183,-4767,22,-174,-77,69
504,-3790,-6,183,-4766,22,-175,-77,69
505,-3792,-4,185,-4767,22,-175,-77,69
506,-3793,-4,186,-4766,22,-175,-78,69
507,-3792,-6,187,-4767,22,-174,-76,69
508,-3793,-7,188,-4768,22,-175,-76,69
509,-3791,-5,187,-4766,22,-174,-75,69
510,-3793,-6,186,-4764,22,-173,-75,68
511,-3791,-7,188,-4766,22,-172,-76,69
512,-3791,-9,184,-4766,22,-173,-77,69
513,-3790,-8,186,-4766,22,-174,-76,69
514,-3788,-6,183,-4767,22,-174,-77,68
515,-3787,-6,185,-4765,22,-173,-77,68
516,-3788,-5,188,-4766,22,-173,-76,67
517,-3788,-4,187,-4765,22,-173,-78,68
518,-3786,-1,183,-4765,22,-171,-76,68
519,-3785,-2,184,-4764,22,-172,-76,69
520,-3785,0,181,-4764,22,-173,-77,70
521,-3786,1,184,-4765,22,-173,-78,70
522,-3786,0,183,-4765,22,-173,-78,69
523,-3787,-2,185,-4762,22,-173,-78,70
524,-3787,-1,184,-4763,22,-174,-79,68
525,-3787,-2,184,-4762,22,-173,-78,68
526,-3786,-3,186,-4762,22,-174,-78,68
527,-3786,-5,188,-4763,22,-174,-78,68
528,-3789,-4,190,-4763,22,-174,-77,69
529,-3787,-4,191,-4762,22,-173,-77,68
530,-3786,-5,187,-4763,22,-173,-77,69
531,-3786,-7,187,-4764,22,-175,-77,69
532,-3786,-7,186,-4764,22,-175,-76,68
533,-3786,-5,188,-4765,22,-175,-75,69
534,-3787,-5,188,-4765,22,-175,-76,69
535,-3788,-3,186,-4765,22,-175,-76,69
536,-3790,-3,190,-4765,22,-174,-76,70
537,-3791,-5,188,-4764,22,-174,-76,69
538,-3792,-2,187,-4766,22,-174,-76,70
539,-3793,-2,185,-4767,22,-174,-77,69
540,-3789,-2,187,-4768,22,-174,-77,68
541,-3789,-2,186,-4765,22,-175,-77,68
542,-3789,0,187,-4764,22,-175,-77,69
543,-3788,0,186,-4766,22,-175,-78,68
544,-3789,-1,188,-4766,22,-174,-80,68
545,-3789,1,186,-4766,22,-174,-80,68
546,-3789,0,185,-4766,22,-174,-80,68
547,-3789,-3,182,-4766,22,-174,-81,68
548,-3788,-3,180,-4765,22,-175,-80,68
549,-3788,-5,182,-4765,22,-175,-79,68
550,-3787,-5,183,-4766,22,-174,-79,68
551,-3790,-4,186,-4768,22,-175,-80,68
552,-3791,-4,187,-4767,22,-175,-80,68
553,-3791,-5,185,-4767,22,-175,-81,69
554,-3790,-5,189,-4766,22,-175,-80,69
555,-3789,-6,182,-4764,22,-175,-80,68
556,-3792,-6,183,-4765,22,-175,-80,67
557,-3789,-5,182,-4765,22,-175,-79,67
558,-3788,-3,182,-4766,22,-175,-78,69
559,-3788,-1,182,-4765,22,-175,-77,68
560,-3787,-4,183,-4766,22,-175,-78,69
561,-3788,-3,182,-4767,22,-176,-77,68
562,-3790,-5,183,-4769,22,-176,-77,68
563,-3788,-6,183,-4770,22,-175,-76,68
564,-3786,-7,187,-4768,22,-176,-77,69
565,-3786,-8,188,-4767,22,-175,-77,68
566,-3787,-7,189,-4765,22,-174,-78,69
567,-3788,-8,186,-4763,22,-175,-78,69
568,-3784,-8,186,-4767,22,-174,-78,70
569,-3783,-6,188,-4767,22,-174,-78,70
570,-3787,-6,186,-4767,22,-173,-77,69
571,-3787,-5,184,-4767,22,-173,-79,70
572,-3787,-5,183,-4764,22,-174,-78,69
573,-3789,-5,185,-4765,22,-173,-77,69
574,-3788,-6,186,-4766,22,-174,-77,69
575,-3788,-7,186,-4766,22,-173,-76,69
576,-3788,-6,188,-4764,22,-173,-77,70
577,-3789,-5,187,-4764,22,-173,-77,69
578,-3789,-4,189,-4764,22,-173,-77,69
579,-3792,-2,186,-4763,22,-172,-78,69
580,-3793,-1,185,-4765,22,-173,-77,69
581,-3794,-1,185,-4764,22,-173,-77,69
582,-3794,-2,188,-4763,22,-172,-78,69
583,-3793,-2,188,-4762,22,-174,-78,71
584,-3790,-4,189,-4759,23,-173,-78,70
585,-3788,-5,188,-4760,22,-174,-77,68
586,-3788,-5,192,-4761,22,-175,-77,69
587,-3788,-6,193,-4762,22,-175,-77,69
588,-3787,-5,192,-4762,22,-175,-76,70
589,-3788,-4,189,-4763,22,-175,-76,69
590,-3786,-3,185,-4764,22,-174,-76,71
591,-3786,-4,184,-4764,22,-174,-76,70
592,-3786,-3,185,-4764,22,-174,-76,70
593,-3788,-4,182,-4762,22,-173,-77,70
594,-3788,-4,187,-4762,22,-174,-76,70
595,-3788,-4,187,-4761,22,-174,-75,70
596,-3789,-2,187,-4761,22,-173,-76,69
597,-3790,-3,188,-4762,22,-174,-76,69
598,-3790,-5,182,-4761,22,-174,-77,70
599,-3790,-4,185,-4761,22,-175,-77,70
600,-3792,-3,188,-4762,22,-173,-76,70
601,-3791,-4,187,-4764,22,-174,-75,71
602,-3789,-4,185,-4764,22,-175,-75,71
603,-3790,-4,185,-4766,22,-175,-75,70
604,-3787,-2,185,-4766,22,-174,-75,70
605,-3788,-4,182,-4767,22,-175,-76,70
606,-3788,-7,188,-4768,22,-175,-77,70
607,-3787,-7,189,-4767,22,-175,-77,68
608,-3789,-7,186,-4766,22,-175,-77,69
609,-3788,-6,186,-4765,22,-176,-77,69
610,-3788,-6,184,-4766,22,-176,-76,70
611,-3789,-3,183,-4768,22,-175,-77,71
612,-3788,-5,179,-4767,22,-175,-77,71
613,-3788,-4,181,-4766,22,-174,-77,70
614,-3788,-3,183,-4765,22,-174,-77,70
615,-3787,-5,187,-4764,22,-173,-77,69
616,-3787,-6,188,-4764,22,-173,-78,70
617,-3787,-10,189,-4764,22,-173,-78,70
618,-3787,-8,189,-4762,22,-173,-79,70
619,-3787,-7,189,-4760,22,-173,-78,69
620,-3787,-9,192,-4759,23,-173,-79,69
621,-3789,-6,187,-4763,22,-173,-78,67
622,-3789,-6,190,-4763,22,-172,-78,68
623,-3788,-7,188,-4763,22,-173,-78,69
624,-3789,-5,185,-4763,22,-172,-78,69
625,-3787,-6,191,-4764,22,-173,-78,70
626,-3788,-6,187,-4763,22,-173,-78,69
627,-3788,-7,187,-4762,22,-174,-78,70
628,-3790,-4,185,-4763,22,-174,-78,69
629,-3790,-3,188,-4763,22,-173,-77,69
630,-3790,-5,186,-4763,22,-173,-76,70
631,-3791,-3,185,-4763,22,-172,-75,71
632,-3790,-4,188,-4764,22,-173,-75,71
633,-3787,-6,189,-4764,22,-173,-74,71
634,-3787,-6,188,-4765,22,-173,-75,72
635,-3787,-7,186,-4764,22,-173,-76,70
636,-3787,-5,185,-4764,22,-174,-76,69
637,-3788,-4,184,-4764,22,-175,-77,69
638,-3788,-5,186,-4765,22,-175,-79,69
639,-3788,-8,189,-4765,22,-177,-78,69
640,-3786,-7,188,-4765,22,-176,-77,68
641,-3784,-8,189,-4766,22,-176,-78,68
642,-3786,-6,190,-4766,22,-176,-78,68
643,-3788,-5,189,-4765,22,-175,-78,68
644,-3786,-6,184,-4763,22,-175,-77,69
645,-3787,-2,183,-4762,22,-175,-77,69
646,-3787,-2,184,-4761,22,-176,-77,68
647,-3788,-4,184,-4762,22,-175,-76,69
648,-3786,-5,184,-4761,22,-175,-75,69
649,-3783,-7,186,-4760,22,-174,-74,68
650,-3785,-4,183,-4760,22,-174,-75,68
651,-3785,-5,186,-4762,22,-174,-75,68
652,-3785,-5,190,-4763,22,-174,-75,68
653,-3787,-5,189,-4763,22,-174,-76,68
654,-3788,-5,186,-4763,22,-173,-77,69
655,-3790,-4,186,-4763,22,-172,-77,69
656,-3790,-7,186,-4766,22,-174,-78,69
657,-3788,-5,186,-4767,22,-175,-78,69
658,-3788,-5,184,-4766,22,-174,-77,70
659,-3789,-4,183,-4764,22,-174,-78,70
660,-3789,-2,182,-4764,22,-174,-78,70
661,-3788,-4,182,-4763,22,-173,-76,69
662,-3789,-5,185,-4764,22,-173,-75,70
663,-3787,-5,184,-4764,22,-174,-76,69
664,-3785,-3,185,-4765,22,-173,-76,69
665,-3791,-2,183,-4764,22,-173,-77,70
666,-3790,-2,188,-4764,22,-175,-76,70
667,-3789,-2,188,-4766,22,-174,-75,70
668,-3787,-3,189,-4768,22,-174,-75,70
669,-3791,-3,193,-4769,22,-173,-74,71
670,-3790,-2,193,-4767,22,-173,-75,70
671,-3789,-2,193,-4767,22,-172,-75,70
672,-3787,-3,193,-4766,22,-173,-75,71
673,-3786,-5,192,-4765,22,-173,-76,70
674,-3785,-4,191,-4765,22,-174,-76,71
675,-3784,-3,188,-4764,22,-174,-78,71
676,-3785,-3,185,-4762,22,-173,-77,69
677,-3786,-3,186,-4764,22,-174,-76,69
678,-3789,-2,182,-4766,22,-173,-75,69
679,-3787,-3,183,-4766,22,-174,-75,70
680,-3788,-4,185,-4767,22,-175,-77,70
681,-3789,-2,186,-4767,22,-175,-76,70
682,-3787,-3,183,-4765,22,-174,-77,70
683,-3789,-3,185,-4764,22,-175,-77,70
684,-3791,-6,182,-4766,22,-176,-77,69
685,-3789,-7,182,-4766,22,-176,-76,70
686,-3788,-7,179,-4765,22,-175,-77,70
687,-3787,-6,179,-4766,22,-174,-77,71
688,-3786,-5,178,-4766,22,-174,-78,69
689,-3786,-5,178,-4767,22,-174,-78,69
690,-3788,-7,180,-4767,22,-173,-76,68
691,-3787,-6,183,-4768,22,-173,-77,68
692,-3785,-5,182,-4767,22,-173,-76,68
693,-3785,-4,182,-4767,22,-175,-76,68
694,-3786,-4,183,-4766,22,-175,-75,68
695,-3788,-4,185,-4767,22,-175,-74,68
696,-3788,-3,186,-4768,22,-175,-75,68
697,-3789,-10,184,-4767,22,-175,-75,67
698,-3790,-8,188,-4767,22,-174,-76,68
699,-3790,-9,189,-4766,22,-174,-76,68
700,-3787,-9,191,-4765,22,-174,-77,69
701,-3787,-9,187,-4764,22,-174,-77,69
702,-3787,-8,184,-4765,22,-175,-77,70
703,-3787,-7,184,-4763,22,-175,-78,69
704,-3787,-6,187,-4762,22,-174,-77,69
705,-3786,-8,185,-4763,22,-174,-78,69
706,-3790,-9,184,-4765,22,-174,-78,69
707,-3789,-6,184,-4765,22,-174,-76,68
708,-3789,-5,186,-4766,22,-174,-76,69
709,-3789,-5,187,-4766,22,-175,-76,68
710,-3790,-5,184,-4767,22,-174,-76,68
711,-3793,-3,184,-4767,22,-173,-76,68
712,-3789,-4,187,-4767,22,-173,-75,69
713,-3787,-6,186,-4766,22,-173,-77,68
714,-3787,-6,186,-4765,22,-173,-77,68
715,-3788,-5,186,-4766,22,-174,-79,67
716,-3787,-6,186,-4766,22,-173,-79,68
717,-3787,-5,187,-4766,22,-174,-77,67
718,-3788,-5,185,-4765,22,-174,-77,67
719,-3789,-7,186,-4765,22,-173,-77,68
720,-3788,-8,184,-4766,22,-174,-76,69
721,-3791,-8,185,-4766,22,-173,-76,68
722,-3789,-6,185,-4766,22,-173,-76,68
723,-3785,-4,186,-4766,22,-174,-75,68
724,-3784,-5,185,-4765,22,-173,-77,68
725,-3785,-3,188,-4765,22,-173,-77,68
726,-3785,-4,188,-4767,22,-173,-78,69
727,-3786,-4,186,-4767,22,-174,-77,69
728,-3787,-1,188,-4768,22,-175,-76,70
729,-3786,-1,189,-4768,22,-173,-76,69
730,-3788,-1,187,-4766,22,-174,-76,68
731,-3787,-3,188,-4766,22,-174,-76,68
732,-3787,-4,187,-4767,22,-174,-75,68
733,-3789,-7,185,-4767,22,-173,-76,69
734,-3788,-6,184,-4766,22,-173,-76,70
735,-3788,-6,191,-4767,22,-173,-76,71
736,-3789,-7,192,-4767,22,-175,-76,70
737,-3789,-7,188,-4768,22,-174,-76,70
738,-3787,-6,187,-4768,22,-174,-76,70
739,-3788,-7,188,-4765,22,-175,-76,69
740,-3788,-1,188,-4762,22,-175,-77,69
741,-3787,0,188,-4763,22,-175,-77,70
742,-3789,1,188,-4763,22,-175,-77,70
743,-3785,3,184,-4765,22,-174,-76,70
744,-3786,0,186,-4764,22,-174,-77,69
745,-3787,-2,189,-4763,22,-174,-78,69
746,-3786,-1,192,-4762,22,-173,-78,69
747,-3786,-1,190,-4761,22,-174,-78,70
748,-3785,-2,190,-4763,22,-173,-76,70
749,-3786,-2,186,-4765,22,-173,-76,70
750,-3786,-1,185,-4766,22,-173,-77,71
751,-3786,-2,185,-4766,22,-174,-77,70
752,-3785,-2,183,-4767,22,-174,-76,70
753,-3787,-4,180,-4768,22,-174,-76,70
754,-3784,-3,185,-4768,22,-175,-76,69
755,-3783,-7,186,-4770,22,-175,-76,69
756,-3786,-6,188,-4768,22,-175,-75,70
757,-3785,-6,183,-4769,22,-175,-75,69
758,-3784,-3,185,-4768,22,-174,-77,70
759,-3784,-2,184,-4767,22,-173,-76,70
760,-3785,-1,187,-4768,22,-173,-76,69
761,-3787,-3,188,-4767,22,-174,-77,68
762,-3789,-5,187,-4767,22,-174,-77,68
763,-3787,-4,187,-4767,22,-174,-77,68
764,-3785,-5,188,-4768,22,-175,-78,68
765,-3786,-4,184,-4767,22,-175,-77,69
766,-3788,-5,185,-4767,22,-175,-76,69
767,-3788,-5,187,-4766,22,-175,-75,70
768,-3791,-5,185,-4767,22,-175,-76,70
769,-3790,-5,188,-4769,22,-173,-75,70
770,-3789,-5,189,-4770,22,-173,-75,70
771,-3789,-5,188,-4769,22,-173,-76,71
772,-3791,-7,184,-4769,22,-173,-76,71
773,-3791,-5,186,-4768,22,-173,-75,70
774,-3792,-5,184,-4767,22,-174,-74,69
775,-3790,-5,186,-4769,22,-174,-75,69
776,-3791,-2,184,-4768,22,-173,-75,69
777,-3792,-3,184,-4767,22,-173,-76,69
778,-3789,-3,185,-4767,22,-173,-76,69
779,-3789,-3,187,-4764,22,-174,-77,69
780,-3790,-3,186,-4763,22,-173,-77,69
781,-3786,-3,184,-4764,22,-173,-75,69
782,-3787,-2,184,-4764,22,-174,-77,70
783,-3788,0,186,-4766,22,-174,-78,69
784,-3787,-2,185,-4765,22,-175,-78,68
785,-3788,-3,185,-4765,22,-175,-79,69
786,-3788,-4,184,-4765,22,-176,-78,70
787,-3788,-6,185,-4765,22,-176,-78,70
788,-3787,-5,183,-4765,22,-176,-76,70
789,-3785,-4,180,-4765,22,-176,-75,71
790,-3790,-4,179,-4766,22,-175,-75,71
791,-3790,-5,180,-4765,22,-175,-76,71
792,-3788,-5,179,-4765,22,-174,-77,71
793,-3791,-3,181,-4767,22,-175,-78,71
794,-3790,-4,178,-4766,22,-175,-78,69
795,-3790,-2,179,-4766,22,-175,-77,68
796,-3789,-2,179,-4766,22,-174,-78,68
797,-3788,-4,181,-4767,22,-175,-77,68
798,-3788,-5,177,-4766,22,-173,-76,68
799,-3789,-6,177,-4766,22,-172,-77,68
800,-3789,-4,177,-4766,22,-173,-76,68
801,-3790,-5,178,-4767,22,-173,-75,69
802,-3792,-4,181,-4766,22,-173,-74,70
803,-3791,-5,182,-4766,22,-173,-75,69
804,-3789,-4,181,-4766,22,-173,-75,70
805,-3788,-3,184,-4767,22,-173,-76,69
806,-3788,-4,177,-4767,22,-174,-76,68
807,-3787,-3,177,-4766,22,-174,-74,68
808,-3787,-5,181,-4766,22,-174,-74,68
809,-3788,-3,182,-4765,22,-175,-74,68
810,-3786,-4,186,-4765,22,-175,-74,68
811,-3787,-2,188,-4764,22,-175,-74,69
812,-3788,-3,190,-4764,22,-175,-76,69
813,-3789,-1,187,-4766,22,-175,-76,69
814,-3789,-3,187,-4766,22,-175,-76,69
815,-3789,-7,188,-4768,22,-175,-76,69
816,-3789,-6,187,-4768,22,-175,-77,67
817,-3790,-7,186,-4767,22,-174,-77,68
818,-3790,-6,188,-4765,22,-174,-77,68
819,-3790,-4,188,-4765,22,-174,-77,68
820,-3790,-1,188,-4765,22,-174,-76,67
821,-3791,-1,189,-4766,22,-174,-77,68
822,-3791,-4,189,-4765,22,-174,-76,68
823,-3791,-6,189,-4766,22,-174,-76,69
824,-3788,-6,189,-4767,22,-173,-74,69
825,-3789,-8,188,-4766,22,-174,-74,70
826,-3790,-6,191,-4766,22,-174,-74,70
827,-3790,-5,193,-4767,22,-173,-75,70
828,-3789,-4,189,-4768,22,-174,-75,69
829,-3787,-5,187,-4768,22,-175,-76,69
830,-3789,-4,187,-4766,22,-175,-77,70
831,-3788,-6,190,-4765,22,-175,-77,69
832,-3790,-4,189,-4764,22,-176,-77,69
833,-3787,-3,189,-4763,22,-176,-78,69
834,-3786,-5,185,-4765,22,-174,-79,69
835,-3787,-6,182,-4766,22,-174,-79,68
836,-3787,-6,184,-4766,22,-174,-79,68
837,-3788,-8,185,-4766,22,-174,-79,68
838,-3789,-6,188,-4763,22,-174,-78,69
839,-3791,-7,187,-4764,22,-173,-78,69
840,-3791,-6,192,-4765,22,-173,-77,69
841,-3787,-6,187,-4764,22,-173,-79,69
842,-3788,-6,189,-4764,22,-174,-78,68
843,-3789,-5,186,-4765,22,-174,-78,68
844,-3790,-6,188,-4766,22,-173,-77,69
845,-3789,-9,187,-4765,22,-173,-77,69
846,-3790,-7,186,-4764,22,-174,-77,68
847,-3790,-7,187,-4765,22,-174,-76,69
848,-3790,-6,189,-4765,22,-173,-76,69
849,-3788,-8,190,-4764,22,-173,-77,69
850,-3786,-6,192,-4765,22,-173,-77,69
851,-3785,-7,185,-4765,22,-173,-77,69
852,-3787,-8,186,-4765,22,-174,-78,69
853,-3787,-7,187,-4766,22,-175,-78,69
854,-3787,-6,189,-4766,22,-175,-78,70
855,-3786,-6,186,-4765,22,-174,-77,69
856,-3788,-5,185,-4766,22,-175,-78,69
857,-3785,-2,188,-4765,22,-174,-78,68
858,-3786,-3,187,-4766,22,-174,-77,68
859,-3789,-3,188,-4765,22,-174,-75,69
860,-3791,-2,191,-4764,22,-174,-77,69
861,-3790,-2,192,-4765,22,-175,-78,69
862,-3789,-2,193,-4764,22,-175,-76,69
863,-3790,-1,192,-4763,22,-174,-77,68
864,-3789,-2,186,-4761,22,-174,-77,68
865,-3786,-6,188,-4764,22,-174,-76,68
866,-3786,-7,187,-4764,22,-175,-77,68
867,-3784,-5,189,-4764,22,-175,-78,68
868,-3787,-4,192,-4764,22,-175,-78,69
869,-3789,-2,190,-4764,22,-174,-79,69
870,-3789,-4,191,-4764,22,-175,-78,69
871,-3787,-4,188,-4765,22,-175,-77,69
872,-3787,-2,190,-4765,22,-173,-77,69
873,-3788,-2,187,-4763,22,-174,-78,69
874,-3787,0,189,-4764,22,-174,-78,68
875,-3790,-2,189,-4763,22,-173,-78,68
876,-3790,-3,188,-4763,22,-173,-78,68
877,-3792,-6,185,-4764,22,-175,-77,69
878,-3793,-7,186,-4763,22,-175,-77,69
879,-3789,-4,186,-4763,22,-173,-76,69
880,-3789,-4,183,-4762,22,-174,-76,68
881,-3790,-4,186,-4763,22,-173,-76,69
882,-3791,-5,187,-4762,22,-173,-75,68
883,-3791,-4,186,-4762,22,-172,-75,68
884,-3791,-5,183,-4763,22,-173,-74,69
885,-3790,-3,184,-4761,22,-173,-74,69
886,-3789,-6,186,-4761,22,-173,-74,70
887,-3789,-7,186,-4762,22,-173,-73,69
888,-3789,-9,187,-4761,22,-173,-74,69
889,-3789,-6,186,-4763,22,-174,-74,68
890,-3788,-3,185,-4761,22,-175,-74,69
891,-3788,-1,185,-4762,22,-173,-74,70
892,-3789,-1,187,-4762,22,-172,-75,69
893,-3789,-4,188,-4759,23,-173,-75,69
894,-3790,-3,187,-4761,22,-173,-76,70
895,-3788,-4,183,-4762,22,-173,-74,70
896,-3789,-2,183,-4762,22,-173,-76,69
897,-3790,-4,184,-4763,22,-173,-75,69
898,-3789,-6,188,-4763,22,-173,-75,69
899,-3790,-5,187,-4764,22,-173,-74,70
900,-3789,-6,183,-4761,22,-174,-75,69
901,-3788,-5,185,-4761,22,-174,-76,68
902,-3789,-3,184,-4763,22,-174,-77,69
903,-3788,-3,182,-4763,22,-174,-77,69
904,-3789,-3,184,-4764,22,-173,-75,70
905,-3790,-1,182,-4764,22,-172,-76,69
906,-3790,-2,182,-4765,22,-172,-76,70
907,-3791,0,186,-4764,22,-172,-76,69
908,-3790,-2,187,-4762,22,-173,-75,70
909,-3791,-1,186,-4762,22,-174,-77,70
910,-3788,-2,187,-4763,22,-173,-78,68
911,-3787,-2,189,-4760,22,-174,-77,69
912,-3788,-4,188,-4762,22,-175,-78,68
913,-3790,-4,186,-4764,22,-174,-77,69
914,-3789,-4,187,-4764,22,-173,-77,68
915,-3789,-4,183,-4763,22,-174,-76,69
916,-3789,-6,182,-4763,22,-173,-77,69
917,-3789,-5,183,-4764,22,-174,-77,68
918,-3787,-6,183,-4764,22,-175,-77,68
919,-3786,-8,183,-4763,22,-175,-77,67
920,-3787,-7,182,-4762,22,-175,-77,67
921,-3782,-7,188,-4761,22,-176,-77,67
922,-3783,-7,191,-4763,22,-176,-77,68
923,-3782,-5,190,-4765,22,-175,-77,69
924,-3783,-2,185,-4764,22,-175,-77,70
925,-3782,-4,186,-4764,22,-174,-77,70
926,-3786,-5,186,-4764,22,-173,-77,70
927,-3787,-4,185,-4762,22,-174,-76,70
928,-3788,-4,186,-4763,22,-174,-76,71
929,-3788,-4,186,-4763,22,-174,-77,71
930,-3789,-3,187,-4763,22,-176,-77,70
931,-3791,-3,185,-4765,22,-176,-77,70
932,-3790,-3,186,-4764,22,-175,-76,70
933,-3790,-6,186,-4763,22,-175,-76,70
934,-3792,-3,188,-4764,22,-175,-77,70
935,-3791,-3,189,-4763,22,-174,-77,70
936,-3787,-4,188,-4764,22,-175,-75,69
937,-3787,-4,187,-4765,22,-174,-75,70
938,-3789,-4,185,-4766,22,-174,-75,70
939,-3789,-5,187,-4765,22,-173,-74,69
940,-3788,-6,187,-4764,22,-173,-76,69
941,-3790,-4,186,-4764,22,-173,-75,69
942,-3789,-3,183,-4762,22,-174,-76,69
943,-3789,-2,183,-4760,22,-173,-76,69
944,-3787,-4,184,-4760,22,-173,-77,68
945,-3789,-3,186,-4758,23,-174,-76,69
946,-3793,-1,184,-4760,22,-174,-74,70
947,-3793,-2,185,-4760,22,-174,-76,70
948,-3793,-3,190,-4760,22,-173,-76,69
949,-3792,-2,191,-4758,23,-174,-75,68
950,-3791,-1,186,-4757,23,-173,-75,68
951,-3792,-4,186,-4755,23,-173,-76,68
952,-3793,-4,185,-4758,23,-173,-75,68
953,-3792,-6,187,-4758,23,-173,-76,69
954,-3792,-3,183,-4759,23,-173,-76,69
955,-3790,-2,186,-4757,23,-172,-75,69
956,-3791,-1,186,-4757,23,-172,-76,69
957,-3791,-1,185,-4758,23,-173,-76,69
958,-3789,-3,181,-4760,22,-172,-77,69
959,-3789,-5,183,-4761,22,-174,-78,69
960,-3789,-6,181,-4761,22,-175,-78,68
961,-3789,-4,185,-4762,22,-174,-77,68
962,-3790,-7,186,-4760,22,-174,-78,69
963,-3790,-8,187,-4760,22,-173,-78,69
964,-3788,-7,188,-4761,22,-173,-76,69
965,-3787,-8,188,-4759,23,-174,-76,69
966,-3789,-6,188,-4760,22,-174,-76,69
967,-3791,-5,187,-4760,22,-174,-76,68
968,-3789,-6,182,-4758,23,-174,-76,69
969,-3789,-6,181,-4759,23,-174,-75,68
970,-3790,-4,184,-4758,23,-174,-76,69
971,-3790,-3,185,-4759,23,-174,-76,67
972,-3789,-5,186,-4760,22,-174,-76,68
973,-3788,-4,187,-4758,23,-173,-77,68
974,-3789,-6,187,-4758,23,-173,-77,68
975,-3789,-6,191,-4760,22,-174,-77,66
976,-3791,-6,189,-4761,22,-174,-78,66
977,-3790,-1,191,-4760,22,-174,-78,67
978,-3790,-2,190,-4758,23,-174,-77,67
979,-3792,-5,189,-4759,23,-174,-78,68
980,-3788,-6,185,-4760,22,-174,-78,69
981,-3789,-6,186,-4760,22,-174,-78,69
982,-3790,-3,187,-4762,22,-174,-78,69
983,-3789,-4,190,-4760,22,-174,-78,69
984,-3786,-6,188,-4760,22,-172,-78,68
985,-3788,-5,185,-4760,22,-174,-79,69
986,-3789,-5,186,-4760,22,-173,-79,69
987,-3789,-5,188,-4760,22,-173,-78,69
988,-3788,-7,185,-4760,22,-173,-78,69
989,-3789,-7,179,-4761,22,-173,-78,69
990,-3789,-6,181,-4763,22,-174,-78,69
991,-3788,-7,183,-4763,22,-173,-77,69
992,-3788,-8,187,-4762,22,-172,-77,69
993,-3789,-9,190,-4763,22,-172,-77,69
994,-3785,-8,188,-4763,22,-172,-77,69
995,-3785,-8,188,-4764,22,-172,-76,69
996,-3787,-9,184,-4764,22,-173,-76,69
997,-3789,-6,184,-4764,22,-173,-76,69
998,-3789,-4,182,-4764,22,-172,-77,69
