,acc_X,acc_Y,acc_Z,temp,tempC,gyr_X,gyr_Y,gyr_Z
0,-3789,-5,183,-4627,23,-173,-78,70
1,-3793,-2,193,-4626,23,-173,-78,68
2,-3790,1,193,-4627,23,-173,-77,68
3,-3790,-5,189,-4626,23,-174,-75,70
4,-3787,-4,192,-4625,23,-173,-76,69
5,-3786,-1,184,-4626,23,-173,-78,71
6,-3785,-4,179,-4624,23,-175,-76,71
7,-3779,-2,184,-4623,23,-174,-77,72
8,-3783,-5,187,-4626,23,-174,-77,70
9,-3784,-4,189,-4626,23,-174,-76,70
10,-3785,-1,190,-4624,23,-175,-76,69
11,-3788,0,191,-4625,23,-174,-77,69
12,-3794,0,195,-4625,23,-175,-78,69
13,-3791,-5,185,-4628,23,-173,-80,70
14,-3786,-5,193,-4628,23,-176,-79,68
15,-3785,-4,192,-4628,23,-176,-77,68
16,-3786,-3,193,-4626,23,-174,-75,68
17,-3787,-3,197,-4631,23,-175,-78,69
18,-3792,0,191,-4632,23,-174,-76,70
19,-3788,1,189,-4629,23,-174,-77,68
20,-3793,1,192,-4631,23,-172,-77,68
21,-3792,0,187,-4628,23,-175,-76,67
22,-3793,0,189,-4631,23,-175,-77,69
23,-3786,7,188,-4626,23,-175,-78,69
24,-3783,3,187,-4627,23,-176,-77,71
25,-3784,3,184,-4629,23,-174,-78,71
26,-3788,-1,185,-4628,23,-173,-75,72
27,-3788,-2,188,-4629,23,-174,-76,72
28,-3790,-1,180,-4628,23,-173,-75,71
29,-3792,-3,179,-4628,23,-174,-76,70
30,-3791,0,179,-4625,23,-175,-76,72
31,-3789,1,181,-4628,23,-174,-75,70
32,-3787,-1,186,-4626,23,-173,-73,72
33,-3789,-1,184,-4626,23,-174,-75,71
34,-3788,0,191,-4629,23,-175,-75,71
35,-3790,2,194,-4630,23,-174,-74,72
36,-3789,0,184,-4630,23,-174,-75,71
37,-3788,0,183,-4632,23,-174,-75,71
38,-3793,2,181,-4632,23,-174,-75,72
39,-3789,-7,177,-4630,23,-173,-76,71
40,-3792,-8,182,-4629,23,-173,-76,70
41,-3795,-5,184,-4627,23,-174,-75,71
42,-3794,-6,189,-4629,23,-174,-75,71
43,-3791,-1,193,-4628,23,-175,-75,71
44,-3789,2,199,-4626,23,-177,-78,69
45,-3787,-3,201,-4629,23,-178,-77,67
46,-3784,-6,196,-4630,23,-175,-75,69
47,-3783,-2,188,-4628,23,-176,-75,69
48,-3788,-4,181,-4627,23,-177,-74,70
49,-3785,-1,184,-4627,23,-176,-74,70
50,-3787,-2,188,-4630,23,-175,-73,66
51,-3789,-1,183,-4627,23,-173,-73,67
52,-3785,-2,191,-4626,23,-174,-75,67
53,-3786,-2,191,-4629,23,-173,-74,67
54,-3785,-2,195,-4628,23,-173,-76,69
55,-3785,0,192,-4627,23,-175,-77,70
56,-3788,0,192,-4628,23,-174,-77,70
57,-3790,-3,186,-4626,23,-172,-76,71
58,-3793,-4,187,-4628,23,-174,-77,69
59,-3790,-6,198,-4630,23,-175,-75,69
60,-3793,-10,195,-4630,23,-175,-75,69
61,-3790,-5,197,-4628,23,-174,-76,69
62,-3790,-4,194,-4630,23,-174,-75,70
63,-3792,-2,195,-4626,23,-174,-75,70
64,-3790,-3,191,-4626,23,-175,-73,71
65,-3790,-3,192,-4627,23,-175,-76,69
66,-3788,-6,196,-4626,23,-175,-76,69
67,-3788,-7,194,-4627,23,-175,-78,68
68,-3792,-7,186,-4629,23,-175,-76,69
69,-3792,-8,180,-4629,23,-176,-76,68
70,-3789,-5,181,-4629,23,-175,-75,71
71,-3790,-2,186,-4628,23,-174,-76,71
72,-3789,0,185,-4631,23,-172,-75,70
73,-3794,-4,188,-4630,23,-173,-76,71
74,-3791,-4,188,-4630,23,-175,-76,69
75,-3793,-4,183,-4627,23,-176,-78,70
76,-3794,-9,189,-4627,23,-172,-76,70
77,-3791,-5,187,-4628,23,-172,-76,71
78,-3788,-1,189,-4627,23,-175,-76,70
79,-3789,-3,186,-4627,23,-174,-76,70
80,-3791,0,188,-4629,23,-173,-76,71
81,-3789,1,186,-4632,23,-175,-75,70
82,-3784,1,190,-4631,23,-175,-76,70
83,-3786,-5,190,-4630,23,-175,-76,70
84,-3786,-8,195,-4627,23,-173,-75,70
85,-3787,-7,201,-4629,23,-172,-74,72
86,-3789,-5,191,-4631,23,-174,-78,71
87,-3783,-7,196,-4633,23,-176,-78,71
88,-3787,-4,192,-4628,23,-174,-79,69
89,-3784,-5,194,-4627,23,-175,-78,71
90,-3784,-4,199,-4628,23,-174,-75,70
91,-3785,-2,190,-4625,23,-175,-76,71
92,-3785,-2,190,-4628,23,-176,-76,69
93,-3789,0,189,-4627,23,-175,-76,71
94,-3787,-1,186,-4627,23,-173,-76,69
95,-3789,-2,189,-4627,23,-174,-78,69
96,-3787,-5,189,-4629,23,-174,-76,69
97,-3787,-6,191,-4630,23,-174,-78,71
98,-3791,-6,186,-4628,23,-176,-78,71
99,-3793,-8,188,-4629,23,-175,-77,70
100,-3791,-8,189,-4632,23,-176,-79,70
101,-3787,-2,187,-4633,23,-174,-79,70
102,-3784,1,189,-4629,23,-175,-79,70
103,-3785,-1,190,-4625,23,-177,-79,70
104,-3788,-2,185,-4623,23,-177,-78,68
105,-3791,0,177,-4624,23,-177,-78,69
106,-3789,1,174,-4626,23,-177,-78,69
107,-3788,0,176,-4625,23,-175,-77,70
108,-3788,3,179,-4626,23,-173,-75,70
109,-3788,0,180,-4624,23,-177,-77,68
110,-3786,-2,192,-4623,23,-175,-80,68
111,-3790,-1,195,-4626,23,-176,-78,69
112,-3788,-1,190,-4627,23,-174,-78,70
113,-3792,-3,191,-4630,23,-175,-79,70
114,-3794,-6,198,-4628,23,-175,-79,69
115,-3792,-4,187,-4629,23,-175,-75,68
116,-3787,-1,190,-4629,23,-177,-74,70
117,-3790,-3,188,-4627,23,-176,-75,69
118,-3790,-6,194,-4626,23,-174,-75,70
119,-3788,-2,198,-4627,23,-176,-76,68
120,-3793,-4,191,-4628,23,-178,-78,69
121,-3793,-2,191,-4626,23,-176,-78,70
122,-3790,-1,189,-4625,23,-175,-78,69
123,-3793,-1,187,-4627,23,-173,-79,70
124,-3791,3,184,-4629,23,-175,-76,69
125,-3791,-3,187,-4626,23,-176,-75,69
126,-3790,0,193,-4625,23,-175,-75,69
127,-3792,2,192,-4624,23,-177,-76,69
128,-3796,-3,191,-4625,23,-177,-74,67
129,-3794,-1,187,-4625,23,-177,-76,68
130,-3792,2,187,-4628,23,-178,-78,70
131,-3791,-1,178,-4628,23,-177,-79,70
132,-3792,6,176,-4627,23,-175,-76,70
133,-3788,-1,179,-4627,23,-174,-79,71
134,-3788,-3,183,-4626,23,-175,-76,70
135,-3790,-5,182,-4626,23,-175,-75,70
136,-3792,-3,189,-4623,23,-173,-74,69
137,-3795,-5,195,-4624,23,-175,-76,69
138,-3793,-3,199,-4623,23,-173,-76,69
139,-3795,-3,191,-4626,23,-175,-78,69
140,-3793,-5,196,-4625,23,-177,-76,70
141,-3793,-3,196,-4629,23,-174,-75,69
142,-3789,-1,198,-4629,23,-174,-76,69
143,-3789,0,193,-4628,23,-174,-75,70
144,-3789,-1,188,-4627,23,-175,-76,71
145,-3789,-3,185,-4626,23,-175,-76,71
146,-3790,-5,187,-4625,23,-174,-75,70
147,-3791,0,189,-4627,23,-174,-77,69
148,-3790,-1,187,-4626,23,-174,-76,69
149,-3791,-2,187,-4629,23,-175,-74,70
150,-3789,0,194,-4630,23,-175,-74,71
151,-3791,0,185,-4625,23,-174,-74,71
152,-3789,-8,184,-4624,23,-175,-77,70
153,-3791,-6,187,-4628,23,-174,-77,68
154,-3793,-4,184,-4626,23,-176,-78,67
155,-3789,-8,184,-4627,23,-177,-77,68
156,-3786,-5,188,-4627,23,-176,-77,68
157,-3788,-3,194,-4628,23,-175,-78,69
158,-3788,-6,199,-4625,23,-173,-78,71
159,-3788,-6,193,-4624,23,-172,-78,71
160,-3789,-7,188,-4627,23,-174,-77,73
161,-3792,-8,196,-4624,23,-175,-78,71
162,-3786,-3,192,-4623,23,-174,-77,72
163,-3783,-2,196,-4627,23,-175,-79,70
164,-3791,-3,189,-4625,23,-179,-76,68
165,-3791,-4,187,-4626,23,-178,-77,69
166,-3790,-6,182,-4626,23,-176,-76,69
167,-3788,-5,181,-4623,23,-176,-79,70
168,-3791,-4,185,-4625,23,-176,-79,68
169,-3787,-5,191,-4624,23,-176,-78,67
170,-3789,-2,197,-4623,23,-174,-78,67
171,-3788,-8,193,-4622,23,-177,-79,69
172,-3783,-5,186,-4623,23,-174,-77,69
173,-3783,-4,191,-4622,23,-174,-76,69
174,-3785,-2,187,-4622,23,-176,-76,69
175,-3788,-7,192,-4623,23,-176,-77,69
176,-3786,-3,191,-4622,23,-177,-78,69
177,-3786,-3,186,-4619,23,-175,-76,69
178,-3789,-2,186,-4620,23,-176,-76,69
179,-3788,-5,183,-4621,23,-175,-75,69
180,-3789,-4,185,-4618,23,-176,-74,69
181,-3786,-8,185,-4621,23,-174,-75,69
182,-3787,-7,184,-4621,23,-174,-75,70
183,-3780,-11,185,-4620,23,-175,-76,70
184,-3782,-9,189,-4623,23,-174,-78,71
185,-3785,-8,189,-4623,23,-172,-78,71
186,-3788,-8,189,-4622,23,-173,-76,72
187,-3790,-5,197,-4624,23,-174,-77,72
188,-3792,-3,190,-4626,23,-176,-78,72
189,-3793,1,190,-4623,23,-175,-78,71
190,-3788,1,190,-4623,23,-174,-79,70
191,-3793,2,190,-4625,23,-174,-79,70
192,-3791,3,194,-4628,23,-175,-77,69
193,-3788,3,189,-4629,23,-176,-79,67
194,-3789,3,187,-4624,23,-177,-77,67
195,-3790,2,183,-4625,23,-179,-76,67
196,-3790,5,183,-4622,23,-178,-76,69
197,-3789,-1,188,-4625,23,-177,-75,70
198,-3792,-1,180,-4625,23,-177,-75,71
199,-3791,0,185,-4627,23,-176,-75,71
200,-3790,2,191,-4628,23,-176,-76,73
201,-3790,-2,196,-4628,23,-174,-77,72
202,-3790,-7,193,-4627,23,-176,-78,71
203,-3789,-5,188,-4624,23,-175,-76,71
204,-3791,-6,191,-4624,23,-173,-75,70
205,-3793,-7,191,-4625,23,-176,-76,71
206,-3793,-2,186,-4627,23,-175,-76,70
207,-3793,0,188,-4628,23,-175,-77,70
208,-3788,-5,186,-4622,23,-175,-78,70
209,-3785,2,188,-4623,23,-177,-77,71
210,-3789,2,192,-4625,23,-175,-77,71
211,-3788,1,190,-4625,23,-174,-77,72
212,-3784,4,189,-4624,23,-175,-75,72
213,-3786,2,192,-4621,23,-175,-77,70
214,-3787,2,195,-4620,23,-175,-77,70
215,-3786,0,192,-4621,23,-174,-76,69
216,-3789,2,186,-4623,23,-174,-76,69
217,-3788,-3,188,-4623,23,-174,-76,70
218,-3790,-3,187,-4623,23,-174,-75,69
219,-3788,-3,193,-4626,23,-175,-76,71
220,-3795,-2,198,-4625,23,-176,-77,72
221,-3793,1,199,-4625,23,-178,-77,71
222,-3789,-1,192,-4626,23,-177,-77,68
223,-3791,-2,190,-4624,23,-176,-77,70
224,-3791,-1,191,-4620,23,-173,-75,70
225,-3795,0,194,-4621,23,-176,-77,70
226,-3790,-1,192,-4622,23,-177,-75,71
227,-3793,4,190,-4623,23,-176,-76,71
228,-3788,-1,194,-4625,23,-175,-76,67
229,-3789,4,193,-4626,23,-176,-76,69
230,-3788,-3,192,-4623,23,-177,-78,68
231,-3794,-8,187,-4623,23,-175,-78,71
232,-3795,-7,193,-4625,23,-175,-78,70
233,-3795,-9,190,-4627,23,-172,-77,70
234,-3793,-9,189,-4623,23,-174,-77,70
235,-3787,-9,187,-4622,23,-175,-76,69
236,-3788,-3,191,-4624,23,-175,-76,70
237,-3786,-6,188,-4623,23,-175,-78,69
238,-3790,-3,194,-4624,23,-174,-78,71
239,-3788,-5,188,-4624,23,-174,-76,71
240,-3791,-2,189,-4626,23,-173,-75,70
241,-3790,0,188,-4625,23,-174,-77,70
242,-3786,5,185,-4625,23,-175,-79,71
243,-3786,0,189,-4623,23,-174,-79,71
244,-3785,2,190,-4622,23,-176,-80,70
245,-3787,2,190,-4624,23,-176,-78,71
246,-3788,-1,191,-4624,23,-176,-78,72
247,-3786,-3,190,-4626,23,-175,-77,70
248,-3788,-6,193,-4627,23,-175,-76,71
249,-3786,-3,192,-4625,23,-174,-77,71
250,-3784,-4,183,-4625,23,-172,-76,72
251,-3787,-1,186,-4624,23,-174,-76,71
252,-3787,0,185,-4624,23,-175,-76,70
253,-3787,-2,185,-4624,23,-175,-78,71
254,-3790,-5,183,-4627,23,-174,-77,68
255,-3782,-2,183,-4628,23,-175,-76,70
256,-3787,-2,187,-4626,23,-175,-77,71
257,-3786,-2,191,-4627,23,-173,-78,70
258,-3787,-6,191,-4624,23,-176,-77,71
259,-3792,-4,193,-4622,23,-176,-79,69
260,-3785,-1,187,-4624,23,-175,-77,70
261,-3786,-2,190,-4626,23,-174,-77,71
262,-3791,-5,195,-4627,23,-176,-74,70
263,-3792,-1,190,-4624,23,-176,-74,71
264,-3787,-1,191,-4625,23,-174,-74,71
265,-3788,-1,188,-4624,23,-172,-73,71
266,-3791,-1,189,-4626,23,-174,-77,70
267,-3789,-4,193,-4627,23,-175,-77,71
268,-3788,-4,198,-4625,23,-176,-78,71
269,-3783,-4,195,-4625,23,-175,-78,70
270,-3782,-2,186,-4628,23,-176,-77,70
271,-3783,-1,184,-4627,23,-175,-76,70
272,-3785,-2,188,-4628,23,-175,-77,70
273,-3783,-4,190,-4628,23,-177,-78,71
274,-3783,-6,187,-4629,23,-175,-76,71
275,-3783,-7,186,-4624,23,-176,-75,72
276,-3786,-9,186,-4623,23,-175,-76,70
277,-3788,-5,189,-4624,23,-175,-78,69
278,-3788,-2,189,-4626,23,-175,-80,71
279,-3783,-4,187,-4625,23,-176,-77,69
280,-3786,-4,185,-4625,23,-175,-76,70
281,-3788,-3,183,-4625,23,-175,-75,71
282,-3784,1,186,-4627,23,-176,-77,72
283,-3788,-4,192,-4625,23,-176,-78,72
284,-3785,-3,192,-4623,23,-178,-77,71
285,-3786,-1,189,-4625,23,-175,-78,71
286,-3784,0,190,-4627,23,-175,-77,72
287,-3788,1,194,-4628,23,-174,-77,72
288,-3787,-3,195,-4625,23,-175,-79,70
289,-3787,-3,191,-4625,23,-177,-78,70
290,-3787,-1,189,-4625,23,-176,-78,69
291,-3785,-1,185,-4622,23,-175,-77,69
292,-3786,2,185,-4621,23,-175,-79,70
293,-3793,-1,184,-4621,23,-175,-77,71
294,-3788,3,188,-4620,23,-175,-77,70
295,-3791,5,192,-4621,23,-174,-76,70
296,-3793,3,188,-4624,23,-174,-78,70
297,-3790,2,193,-4623,23,-175,-76,70
298,-3785,0,195,-4624,23,-176,-78,71
299,-3781,-3,190,-4626,23,-175,-76,70
300,-3785,-4,191,-4627,23,-176,-78,69
301,-3784,-5,190,-4627,23,-176,-78,68
302,-3785,-3,185,-4624,23,-175,-77,69
303,-3786,-8,189,-4623,23,-173,-78,69
304,-3787,-1,185,-4619,23,-174,-78,70
305,-3790,2,188,-4623,23,-174,-79,72
306,-3788,0,186,-4623,23,-174,-79,72
307,-3785,2,188,-4624,23,-174,-79,70
308,-3785,-3,187,-4623,23,-175,-79,70
309,-3788,-7,187,-4623,23,-174,-79,71
310,-3790,-4,191,-4625,23,-175,-77,70
311,-3789,-2,191,-4624,23,-174,-78,67
312,-3789,-4,188,-4625,23,-175,-78,63
313,-3789,-1,184,-4624,23,-175,-78,67
314,-3786,-8,182,-4624,23,-173,-76,69
315,-3790,-7,189,-4623,23,-172,-77,70
316,-3788,-7,191,-4624,23,-175,-77,72
317,-3791,-3,191,-4624,23,-174,-78,72
318,-3791,-3,186,-4625,23,-176,-77,70
319,-3794,-2,191,-4622,23,-174,-75,71
320,-3791,1,190,-4620,23,-174,-76,70
321,-3790,1,184,-4621,23,-173,-76,71
322,-3789,3,186,-4623,23,-173,-78,72
323,-3788,0,184,-4624,23,-175,-78,70
324,-3788,-2,178,-4626,23,-175,-76,70
325,-3790,0,185,-4622,23,-176,-78,71
326,-3788,-4,186,-4626,23,-174,-77,69
327,-3791,-5,187,-4628,23,-177,-77,70
328,-3788,-1,190,-4628,23,-177,-78,72
329,-3788,-5,189,-4627,23,-177,-78,70
330,-3788,-5,191,-4628,23,-175,-76,71
331,-3787,0,193,-4626,23,-175,-74,71
332,-3786,0,194,-4626,23,-175,-74,70
333,-3787,1,190,-4625,23,-175,-77,68
334,-3790,-3,185,-4624,23,-177,-75,69
335,-3790,-1,183,-4626,23,-178,-77,72
336,-3789,-8,181,-4627,23,-177,-76,71
337,-3791,-6,183,-4625,23,-175,-76,68
338,-3789,-4,184,-4627,23,-176,-76,69
339,-3791,-3,182,-4623,23,-176,-77,69
340,-3789,-1,181,-4624,23,-176,-77,69
341,-3789,0,182,-4625,23,-174,-75,70
342,-3788,-1,193,-4627,23,-173,-76,69
343,-3789,-4,194,-4628,23,-174,-78,70
344,-3788,-9,191,-4629,23,-175,-77,70
345,-3789,-10,187,-4627,23,-175,-77,70
346,-3790,-10,191,-4625,23,-175,-76,71
347,-3786,-7,180,-4625,23,-175,-79,71
348,-3785,-8,180,-4625,23,-175,-75,69
349,-3792,-12,181,-4622,23,-175,-75,68
350,-3790,-8,189,-4628,23,-177,-75,69
351,-3795,-9,186,-4627,23,-176,-74,70
352,-3793,-7,182,-4627,23,-176,-73,71
353,-3788,-4,178,-4625,23,-176,-75,71
354,-3788,-5,188,-4629,23,-177,-76,70
355,-3792,-5,185,-4627,23,-175,-77,70
356,-3789,-7,185,-4624,23,-174,-75,72
357,-3788,-3,190,-4626,23,-172,-77,70
358,-3787,3,183,-4627,23,-172,-77,70
359,-3786,2,186,-4626,23,-174,-77,69
360,-3786,-1,187,-4626,23,-175,-78,70
361,-3790,-2,194,-4623,23,-173,-79,70
362,-3791,-4,191,-4623,23,-174,-78,70
363,-3787,-4,193,-4623,23,-176,-77,70
364,-3786,-10,186,-4623,23,-175,-76,70
365,-3788,-7,188,-4623,23,-175,-76,71
366,-3789,-5,182,-4623,23,-175,-76,70
367,-3789,-2,184,-4624,23,-174,-75,70
368,-3785,-5,185,-4623,23,-175,-76,69
369,-3785,-4,186,-4624,23,-176,-76,71
370,-3786,-5,192,-4624,23,-174,-78,72
371,-3785,-6,187,-4622,23,-174,-77,71
372,-3784,-6,185,-4624,23,-174,-76,70
373,-3787,-7,182,-4626,23,-175,-77,70
374,-3787,-4,186,-4625,23,-173,-76,70
375,-3785,-5,181,-4622,23,-174,-76,70
376,-3789,-1,187,-4620,23,-174,-74,69
377,-3790,-2,186,-4621,23,-175,-75,69
378,-3789,-5,182,-4623,23,-176,-75,70
379,-3788,-4,182,-4624,23,-175,-77,68
380,-3789,-1,182,-4620,23,-172,-75,68
381,-3789,-2,184,-4620,23,-175,-75,68
382,-3790,-4,189,-4620,23,-175,-74,69
383,-3790,-5,190,-4618,23,-177,-75,70
384,-3791,-4,180,-4617,23,-175,-76,68
385,-3788,-1,179,-4622,23,-174,-78,69
386,-3791,-1,179,-4623,23,-174,-78,72
387,-3790,-1,178,-4621,23,-173,-77,71
388,-3789,-4,181,-4623,23,-176,-75,73
389,-3788,-2,176,-4622,23,-173,-77,71
390,-3786,-2,181,-4617,23,-174,-75,69
391,-3785,-3,184,-4619,23,-174,-78,69
392,-3786,-2,181,-4619,23,-175,-77,67
393,-3787,1,186,-4620,23,-176,-76,68
394,-3787,0,195,-4621,23,-178,-77,67
395,-3790,-2,194,-4622,23,-177,-78,67
396,-3790,-1,192,-4621,23,-175,-77,66
397,-3789,-3,190,-4621,23,-176,-76,66
398,-3788,-3,193,-4622,23,-174,-77,68
399,-3788,-2,191,-4621,23,-175,-78,68
400,-3789,-5,193,-4622,23,-177,-77,69
401,-3789,-8,190,-4624,23,-178,-77,70
402,-3786,-3,191,-4622,23,-177,-76,68
403,-3784,2,190,-4621,23,-176,-76,70
404,-3787,0,187,-4620,23,-175,-77,70
405,-3788,0,183,-4618,23,-175,-78,69
406,-3785,3,184,-4619,23,-174,-76,70
407,-3789,4,185,-4620,23,-175,-76,71
408,-3789,-1,188,-4624,23,-176,-75,71
409,-3786,0,185,-4624,23,-176,-75,71
410,-3791,-3,186,-4626,23,-175,-75,69
411,-3791,-2,186,-4623,23,-175,-77,70
412,-3792,0,190,-4619,23,-174,-78,67
413,-3788,0,193,-4619,23,-173,-79,69
414,-3783,1,190,-4617,23,-174,-77,70
415,-3789,1,188,-4618,23,-175,-76,71
416,-3794,1,188,-4618,23,-175,-79,70
417,-3792,0,185,-4618,23,-176,-79,71
418,-3790,-5,183,-4621,23,-176,-77,70
419,-3790,-4,183,-4622,23,-174,-78,71
420,-3793,-6,188,-4623,23,-173,-79,70
421,-3789,-6,189,-4625,23,-173,-78,70
422,-3789,-1,186,-4624,23,-173,-77,70
423,-3789,-3,186,-4625,23,-174,-76,70
424,-3785,-4,191,-4625,23,-174,-76,70
425,-3786,-6,191,-4622,23,-175,-75,70
426,-3789,-5,188,-4623,23,-176,-74,71
427,-3793,-6,193,-4619,23,-176,-77,69
428,-3790,-10,190,-4619,23,-172,-76,69
429,-3797,-6,188,-4616,23,-174,-77,71
430,-3791,-5,185,-4618,23,-175,-78,70
431,-3788,-5,185,-4620,23,-176,-78,69
432,-3785,-1,190,-4620,23,-176,-78,71
433,-3785,1,182,-4620,23,-176,-76,70
434,-3788,0,184,-4620,23,-174,-77,69
435,-3784,-2,186,-4619,23,-173,-76,70
436,-3784,0,194,-4620,23,-174,-75,70
437,-3782,7,191,-4618,23,-176,-76,71
438,-3789,4,189,-4618,23,-175,-77,71
439,-3794,3,183,-4618,23,-175,-78,70
440,-3792,1,183,-4619,23,-177,-77,68
441,-3793,-2,192,-4620,23,-178,-75,69
442,-3789,-2,179,-4620,23,-176,-76,69
443,-3789,-5,188,-4619,23,-176,-75,69
444,-3787,-5,187,-4621,23,-176,-75,69
445,-3786,-4,195,-4622,23,-175,-78,68
446,-3784,-1,191,-4620,23,-174,-78,68
447,-3787,2,192,-4621,23,-175,-80,68
448,-3785,-1,189,-4619,23,-173,-78,66
449,-3791,-2,186,-4621,23,-175,-79,69
450,-3789,-5,184,-4618,23,-173,-78,70
451,-3785,-6,191,-4620,23,-174,-75,67
452,-3786,-4,193,-4618,23,-173,-77,69
453,-3788,-3,186,-4619,23,-173,-77,71
454,-3788,-5,184,-4621,23,-174,-77,70
455,-3783,-3,186,-4621,23,-176,-77,71
456,-3784,-3,187,-4619,23,-176,-76,69
457,-3781,0,182,-4620,23,-178,-77,71
458,-3783,-3,178,-4621,23,-177,-76,71
459,-3783,-4,175,-4622,23,-176,-76,70
460,-3788,-5,180,-4622,23,-175,-75,71
461,-3785,-6,181,-4623,23,-175,-75,71
462,-3782,-8,188,-4623,23,-174,-76,71
463,-3783,-8,195,-4621,23,-174,-76,71
464,-3784,-4,197,-4622,23,-174,-76,72
465,-3784,-6,192,-4620,23,-175,-76,71
466,-3787,-6,198,-4619,23,-174,-76,70
467,-3790,0,193,-4620,23,-174,-76,72
468,-3787,0,192,-4619,23,-175,-79,69
469,-3786,0,187,-4616,23,-176,-80,68
470,-3788,5,184,-4614,23,-176,-80,69
471,-3785,5,184,-4615,23,-174,-77,68
472,-3784,-1,187,-4619,23,-174,-77,68
473,-3787,-3,190,-4624,23,-172,-77,69
474,-3792,-5,191,-4623,23,-174,-77,70
475,-3788,-6,191,-4622,23,-173,-78,67
476,-3788,-4,188,-4625,23,-175,-79,69
477,-3785,-6,183,-4623,23,-176,-77,70
478,-3788,-5,188,-4622,23,-176,-75,72
479,-3796,-7,188,-4623,23,-177,-75,72
480,-3794,-6,194,-4620,23,-178,-76,70
481,-3792,-4,190,-4622,23,-178,-77,72
482,-3790,-6,191,-4623,23,-177,-77,71
483,-3790,-5,197,-4624,23,-177,-75,68
484,-3790,-6,191,-4624,23,-176,-77,67
485,-3791,-6,188,-4621,23,-174,-79,71
486,-3791,-7,191,-4622,23,-173,-80,70
487,-3789,-1,186,-4623,23,-173,-77,70
488,-3789,0,187,-4623,23,-174,-76,69
489,-3787,-2,188,-4621,23,-174,-78,69
490,-3791,0,195,-4623,23,-174,-76,70
491,-3795,1,195,-4625,23,-175,-75,71
492,-3792,1,194,-4625,23,-177,-76,70
493,-3789,-2,189,-4622,23,-175,-76,71
494,-3787,-1,188,-4620,23,-175,-74,70
495,-3788,-2,186,-4619,23,-175,-74,70
496,-3786,2,187,-4618,23,-173,-76,68
497,-3787,1,187,-4618,23,-174,-75,69
498,-3785,-4,180,-4618,23,-175,-76,71
499,-3785,-7,182,-4616,23,-176,-79,72
500,-3787,-6,184,-4622,23,-175,-78,72
501,-3786,-3,187,-4622,23,-174,-77,70
502,-3788,1,184,-4623,23,-175,-77,69
503,-3788,-2,192,-4620,23,-176,-75,70
504,-3787,-5,189,-4622,23,-174,-75,70
505,-3786,-6,186,-4624,23,-174,-77,69
506,-3788,-4,188,-4620,23,-175,-79,72
507,-3791,-4,196,-4617,23,-176,-78,70
508,-3790,-6,188,-4619,23,-176,-77,71
509,-3789,-10,185,-4621,23,-175,-75,71
510,-3790,-9,189,-4620,23,-176,-74,71
511,-3786,-6,191,-4620,23,-177,-78,71
512,-3787,-7,196,-4623,23,-177,-78,69
513,-3785,-5,192,-4624,23,-175,-76,70
514,-3785,-6,194,-4625,23,-172,-75,68
515,-3788,-6,193,-4623,23,-173,-74,68
516,-3789,-5,183,-4621,23,-173,-76,69
517,-3787,-4,183,-4618,23,-174,-77,70
518,-3789,-6,188,-4617,23,-175,-77,70
519,-3789,-2,186,-4620,23,-176,-80,71
520,-3792,-4,187,-4622,23,-175,-78,71
521,-3791,-3,187,-4619,23,-173,-80,71
522,-3790,-3,184,-4618,23,-175,-81,68
523,-3792,-3,187,-4618,23,-175,-81,70
524,-3794,-3,188,-4616,23,-174,-77,69
525,-3792,-2,187,-4619,23,-175,-78,69
526,-3787,-3,184,-4619,23,-174,-79,70
527,-3788,-2,185,-4618,23,-174,-78,71
528,-3787,2,186,-4620,23,-173,-78,70
529,-3787,-3,187,-4618,23,-177,-78,70
530,-3790,-1,184,-4620,23,-176,-78,69
531,-3789,-1,186,-4619,23,-176,-78,68
532,-3794,0,186,-4622,23,-175,-77,70
533,-3792,-2,184,-4620,23,-175,-77,69
534,-3790,-4,188,-4618,23,-176,-77,69
535,-3790,-4,189,-4617,23,-174,-77,70
536,-3786,-5,196,-4615,23,-175,-78,69
537,-3787,2,195,-4614,23,-172,-77,69
538,-3787,2,179,-4613,23,-173,-79,69
539,-3785,3,183,-4614,23,-175,-77,70
540,-3786,5,187,-4617,23,-175,-76,69
541,-3790,0,190,-4615,23,-174,-76,68
542,-3787,-1,195,-4615,23,-175,-77,69
543,-3791,-1,197,-4620,23,-173,-76,69
544,-3790,-1,195,-4619,23,-173,-76,71
545,-3793,-3,191,-4621,23,-175,-76,70
546,-3792,-6,192,-4621,23,-174,-79,71
547,-3791,-6,187,-4623,23,-172,-79,72
548,-3790,-8,191,-4619,23,-172,-76,70
549,-3787,-7,190,-4619,23,-172,-78,70
550,-3785,-2,190,-4619,23,-174,-80,67
551,-3783,0,188,-4617,23,-176,-79,69
552,-3782,-3,187,-4619,23,-175,-80,70
553,-3784,-2,187,-4619,23,-172,-77,70
554,-3788,-3,185,-4617,23,-171,-77,69
555,-3792,-3,191,-4616,23,-172,-78,68
556,-3792,-3,187,-4617,23,-171,-78,70
557,-3791,-4,186,-4616,23,-171,-78,72
558,-3793,-4,184,-4618,23,-174,-77,69
559,-3791,0,184,-4618,23,-173,-77,68
560,-3789,-4,178,-4618,23,-174,-75,70
561,-3790,-2,185,-4620,23,-175,-77,68
562,-3789,-7,186,-4620,23,-175,-78,69
563,-3792,-2,182,-4617,23,-174,-79,70
564,-3791,-1,184,-4620,23,-173,-76,69
565,-3789,-5,193,-4618,23,-174,-77,69
566,-3788,-5,188,-4619,23,-174,-76,69
567,-3785,-6,187,-4619,23,-172,-76,68
568,-3786,-2,190,-4619,23,-172,-78,68
569,-3789,-4,188,-4617,23,-172,-77,68
570,-3791,-7,185,-4619,23,-173,-76,68
571,-3786,-5,184,-4618,23,-175,-77,68
572,-3784,-3,190,-4615,23,-174,-74,68
573,-3781,-6,189,-4616,23,-173,-77,69
574,-3782,-5,186,-4621,23,-172,-79,69
575,-3782,-2,188,-4619,23,-174,-75,69
576,-3784,-5,191,-4618,23,-174,-75,68
577,-3785,-3,188,-4614,23,-176,-74,68
578,-3789,-5,188,-4614,23,-177,-75,70
579,-3794,-1,185,-4617,23,-177,-76,70
580,-3790,-4,186,-4617,23,-176,-77,70
581,-3790,1,195,-4618,23,-175,-78,68
582,-3789,0,199,-4619,23,-175,-78,68
583,-3790,-1,191,-4616,23,-174,-75,69
584,-3789,-7,187,-4616,23,-174,-75,71
585,-3787,-2,190,-4617,23,-174,-76,72
586,-3789,-1,191,-4618,23,-173,-76,71
587,-3787,-2,181,-4618,23,-173,-74,68
588,-3789,-1,181,-4618,23,-172,-75,68
589,-3788,-1,182,-4622,23,-173,-76,68
590,-3790,1,187,-4622,23,-175,-76,70
591,-3793,-2,189,-4621,23,-175,-75,68
592,-3792,-2,190,-4621,23,-175,-76,71
593,-3796,-4,193,-4620,23,-174,-76,69
594,-3792,-3,190,-4618,23,-173,-76,69
595,-3791,-6,186,-4621,23,-175,-77,70
596,-3786,-3,185,-4619,23,-175,-76,71
597,-3794,-3,183,-4619,23,-174,-76,70
598,-3795,-3,185,-4618,23,-174,-78,71
599,-3796,-1,187,-4619,23,-174,-78,70
600,-3796,-4,187,-4617,23,-175,-77,72
601,-3790,-4,190,-4616,23,-177,-78,71
602,-3792,-9,183,-4616,23,-176,-78,70
603,-3791,-7,186,-4619,23,-173,-77,74
604,-3792,-4,197,-4619,23,-174,-78,70
605,-3791,-3,189,-4620,23,-172,-78,72
606,-3791,-1,193,-4618,23,-172,-79,73
607,-3788,-2,186,-4619,23,-174,-78,71
608,-3797,-2,189,-4621,23,-174,-78,71
609,-3796,4,192,-4620,23,-175,-75,71
610,-3789,1,188,-4619,23,-174,-77,68
611,-3790,1,191,-4619,23,-175,-77,67
612,-3787,-4,187,-4620,23,-174,-79,69
613,-3786,-7,190,-4620,23,-176,-78,70
614,-3788,-5,185,-4621,23,-174,-79,71
615,-3791,-7,191,-4618,23,-175,-77,70
616,-3790,-4,194,-4621,23,-175,-78,70
617,-3788,-2,192,-4619,23,-174,-78,69
618,-3791,-1,196,-4618,23,-175,-78,69
619,-3795,1,195,-4616,23,-173,-75,69
620,-3792,-1,192,-4619,23,-171,-74,69
621,-3789,-1,189,-4620,23,-172,-76,68
622,-3792,1,185,-4622,23,-172,-76,69
623,-3789,-4,181,-4619,23,-174,-76,68
624,-3791,-3,181,-4620,23,-174,-76,70
625,-3791,-1,187,-4620,23,-175,-77,69
626,-3793,-1,193,-4616,23,-175,-78,70
627,-3791,-1,194,-4619,23,-175,-77,72
628,-3786,2,188,-4616,23,-175,-77,71
629,-3784,-4,186,-4616,23,-175,-76,69
630,-3784,-5,193,-4619,23,-176,-78,71
631,-3788,-2,197,-4619,23,-174,-77,72
632,-3785,-1,196,-4619,23,-176,-77,71
633,-3787,3,197,-4621,23,-173,-76,72
634,-3790,5,195,-4621,23,-173,-75,70
635,-3788,5,190,-4618,23,-173,-76,72
636,-3788,3,184,-4620,23,-173,-76,70
637,-3792,-2,188,-4619,23,-172,-77,71
638,-3791,-4,194,-4619,23,-176,-78,70
639,-3791,-4,196,-4620,23,-177,-76,69
640,-3789,-4,193,-4621,23,-175,-75,68
641,-3788,-2,196,-4621,23,-176,-75,69
642,-3787,-1,193,-4623,23,-175,-76,70
643,-3785,-6,186,-4620,23,-175,-76,71
644,-3783,-2,197,-4618,23,-177,-77,71
645,-3789,-5,188,-4616,23,-175,-77,70
646,-3786,3,186,-4618,23,-175,-78,69
647,-3791,0,187,-4614,23,-174,-79,70
648,-3790,1,183,-4620,23,-176,-78,69
649,-3792,-4,184,-4620,23,-176,-78,69
650,-3788,-7,184,-4617,23,-177,-78,69
651,-3790,-2,184,-4614,23,-174,-78,68
652,-3792,-1,185,-4615,23,-174,-76,69
653,-3794,-2,187,-4617,23,-174,-75,71
654,-3795,-5,179,-4616,23,-175,-74,70
655,-3794,-8,178,-4617,23,-176,-74,70
656,-3793,-7,176,-4617,23,-174,-77,71
657,-3793,-7,179,-4616,23,-174,-76,69
658,-3789,2,178,-4616,23,-174,-75,69
659,-3790,-3,182,-4617,23,-173,-76,72
660,-3787,1,184,-4616,23,-173,-75,72
661,-3785,-1,181,-4613,23,-172,-76,72
662,-3787,1,184,-4616,23,-173,-79,71
663,-3784,-3,187,-4617,23,-173,-79,73
664,-3786,-4,188,-4616,23,-174,-79,72
665,-3787,-3,188,-4618,23,-175,-77,72
666,-3789,-3,195,-4621,23,-175,-77,70
667,-3786,-10,192,-4620,23,-175,-77,70
668,-3787,-6,186,-4621,23,-175,-79,69
669,-3780,-4,190,-4621,23,-174,-78,69
670,-3785,-3,181,-4619,23,-174,-77,69
671,-3785,-4,184,-4620,23,-173,-77,69
672,-3788,1,188,-4618,23,-175,-75,69
673,-3785,3,183,-4619,23,-175,-77,70
674,-3788,4,184,-4619,23,-176,-76,70
675,-3788,4,188,-4620,23,-175,-75,71
676,-3792,6,184,-4618,23,-176,-77,69
677,-3795,1,188,-4618,23,-175,-77,70
678,-3794,0,188,-4619,23,-175,-79,68
679,-3798,0,183,-4617,23,-175,-76,69
680,-3794,1,180,-4616,23,-175,-75,71
681,-3792,2,184,-4617,23,-176,-74,70
682,-3791,0,179,-4620,23,-176,-76,71
683,-3787,4,181,-4621,23,-176,-76,70
684,-3786,1,183,-4619,23,-175,-80,70
685,-3788,-1,185,-4618,23,-175,-80,70
686,-3789,-2,180,-4616,23,-175,-78,69
687,-3788,-2,178,-4616,23,-174,-77,69
688,-3788,-2,182,-4616,23,-174,-77,71
689,-3786,-2,184,-4615,23,-175,-75,72
690,-3784,-6,181,-4617,23,-174,-76,72
691,-3786,-5,180,-4615,23,-174,-75,70
692,-3787,-7,187,-4614,23,-174,-76,70
693,-3784,-4,182,-4618,23,-173,-76,70
694,-3791,-8,182,-4619,23,-174,-76,69
695,-3794,-5,184,-4617,23,-173,-77,68
696,-3790,-10,182,-4615,23,-174,-77,69
697,-3789,-10,185,-4617,23,-174,-78,72
698,-3789,-11,185,-4617,23,-175,-77,74
699,-3786,-8,183,-4615,23,-174,-77,72
700,-3787,-11,181,-4619,23,-174,-79,71
701,-3793,-7,175,-4620,23,-175,-78,70
702,-3791,-6,181,-4618,23,-175,-78,70
703,-3790,-8,184,-4617,23,-177,-76,70
704,-3793,-5,188,-4620,23,-176,-75,69
705,-3787,-3,188,-4619,23,-174,-77,69
706,-3787,-1,186,-4619,23,-173,-78,70
707,-3787,0,182,-4619,23,-174,-78,69
708,-3791,-2,187,-4618,23,-175,-78,70
709,-3789,-4,185,-4617,23,-175,-80,68
710,-3791,-2,187,-4618,23,-174,-78,67
711,-3790,1,189,-4619,23,-174,-77,68
712,-3790,0,194,-4616,23,-175,-76,69
713,-3787,-1,194,-4619,23,-176,-78,70
714,-3790,-1,190,-4620,23,-174,-79,73
715,-3792,-3,190,-4618,23,-175,-80,73
716,-3791,-2,188,-4619,23,-175,-78,72
717,-3788,-2,188,-4621,23,-173,-76,73
718,-3787,-4,184,-4620,23,-173,-77,70
719,-3794,-5,185,-4621,23,-174,-76,70
720,-3794,-4,190,-4620,23,-175,-76,68
721,-3790,-4,192,-4619,23,-176,-76,67
722,-3791,-3,190,-4620,23,-174,-77,69
723,-3791,-3,191,-4622,23,-173,-76,69
724,-3791,-7,186,-4619,23,-173,-77,69
725,-3792,-7,186,-4620,23,-173,-78,71
726,-3791,-5,185,-4622,23,-173,-80,71
727,-3789,-2,190,-4619,23,-175,-80,70
728,-3792,1,189,-4617,23,-177,-77,71
729,-3792,-1,192,-4617,23,-175,-75,72
730,-3795,-1,186,-4616,23,-174,-75,72
731,-3793,-6,185,-4617,23,-176,-78,71
732,-3792,-6,188,-4617,23,-177,-79,71
733,-3792,-4,187,-4618,23,-176,-79,71
734,-3789,-6,185,-4619,23,-174,-79,71
735,-3788,-4,186,-4616,23,-173,-78,69
736,-3787,-2,186,-4615,23,-173,-78,71
737,-3791,0,195,-4615,23,-174,-78,72
738,-3792,0,195,-4616,23,-174,-78,71
739,-3797,-5,192,-4617,23,-173,-77,71
740,-3798,-5,193,-4621,23,-173,-79,71
741,-3796,-4,185,-4621,23,-173,-77,70
742,-3795,-2,186,-4618,23,-175,-76,68
743,-3791,-2,187,-4617,23,-174,-76,70
744,-3793,-5,192,-4614,23,-173,-75,71
745,-3792,-2,191,-4616,23,-174,-76,71
746,-3792,0,184,-4617,23,-175,-77,70
747,-3790,-1,184,-4619,23,-174,-80,69
748,-3792,-3,183,-4621,23,-175,-78,71
749,-3793,-4,191,-4616,23,-175,-79,69
750,-3793,-4,191,-4616,23,-174,-80,67
751,-3790,-1,196,-4615,23,-175,-79,70
752,-3788,1,190,-4615,23,-175,-76,69
753,-3785,-7,191,-4620,23,-176,-80,70
754,-3789,-4,193,-4620,23,-176,-78,71
755,-3790,-6,191,-4619,23,-176,-77,73
756,-3788,0,188,-4620,23,-174,-77,72
757,-3788,0,185,-4620,23,-174,-77,72
758,-3789,-3,178,-4622,23,-173,-78,71
759,-3792,-3,186,-4616,23,-172,-79,70
760,-3789,-1,187,-4616,23,-173,-76,69
761,-3792,-5,189,-4614,23,-173,-77,68
762,-3791,-1,185,-4616,23,-175,-76,69
763,-3793,0,180,-4617,23,-175,-77,68
764,-3789,2,183,-4617,23,-175,-79,68
765,-3788,-1,189,-4615,23,-174,-81,69
766,-3787,1,192,-4617,23,-174,-81,69
767,-3791,-1,193,-4618,23,-174,-78,68
768,-3792,-3,189,-4618,23,-175,-76,67
769,-3791,-2,185,-4618,23,-174,-79,69
770,-3788,-1,182,-4619,23,-175,-78,68
771,-3786,0,182,-4621,23,-175,-77,70
772,-3787,-2,183,-4621,23,-176,-77,70
773,-3784,3,177,-4621,23,-173,-76,69
774,-3785,3,181,-4619,23,-173,-78,70
775,-3784,-4,186,-4618,23,-172,-76,71
776,-3780,-6,187,-4620,23,-174,-75,70
777,-3788,-7,184,-4620,23,-174,-77,68
778,-3788,-6,190,-4617,23,-174,-79,70
779,-3791,-7,186,-4617,23,-174,-78,70
780,-3785,-5,187,-4615,23,-174,-78,69
781,-3785,-2,188,-4617,23,-175,-78,69
782,-3787,-2,179,-4617,23,-173,-77,68
783,-3784,-6,185,-4613,23,-174,-77,68
784,-3789,-3,190,-4616,23,-175,-78,69
785,-3793,-3,195,-4617,23,-173,-77,70
786,-3792,1,193,-4615,23,-173,-77,69
787,-3794,-2,186,-4615,23,-173,-78,70
788,-3795,-3,188,-4617,23,-172,-79,70
789,-3793,-2,184,-4617,23,-174,-77,68
790,-3791,-1,183,-4617,23,-175,-79,67
791,-3792,-2,184,-4618,23,-176,-79,67
792,-3791,-2,178,-4619,23,-177,-77,69
793,-3788,-3,178,-4621,23,-174,-77,68
794,-3791,-5,175,-4621,23,-174,-78,69
795,-3790,-3,183,-4621,23,-176,-75,69
796,-3797,-1,176,-4621,23,-173,-75,68
797,-3796,1,181,-4620,23,-174,-74,72
798,-3793,2,185,-4619,23,-174,-74,69
799,-3790,-1,189,-4619,23,-174,-74,70
800,-3793,-3,189,-4617,23,-172,-74,70
801,-3795,-3,185,-4618,23,-174,-77,69
802,-3794,-4,185,-4619,23,-174,-77,70
803,-3792,-3,185,-4614,23,-173,-75,70
804,-3790,3,187,-4614,23,-174,-75,71
805,-3791,-2,187,-4616,23,-174,-76,72
806,-3792,-3,183,-4617,23,-175,-75,70
807,-3793,-1,183,-4617,23,-174,-76,70
808,-3791,-1,187,-4619,23,-172,-76,70
809,-3786,-1,185,-4617,23,-173,-76,70
810,-3790,-2,180,-4618,23,-173,-78,71
811,-3785,-2,181,-4621,23,-173,-78,70
812,-3788,-2,182,-4621,23,-174,-77,71
813,-3789,-1,182,-4621,23,-175,-78,71
814,-3790,-3,185,-4623,23,-175,-77,69
815,-3789,-3,187,-4625,23,-175,-77,67
816,-3786,-6,190,-4621,23,-174,-77,70
817,-3788,-6,188,-4621,23,-175,-76,70
818,-3789,-3,183,-4617,23,-174,-77,70
819,-3789,-3,189,-4616,23,-175,-75,69
820,-3791,-3,192,-4617,23,-172,-78,69
821,-3788,-1,190,-4617,23,-174,-77,68
822,-3789,0,179,-4618,23,-176,-80,69
823,-3790,1,176,-4620,23,-175,-80,71
824,-3787,2,180,-4620,23,-175,-78,70
825,-3792,-4,185,-4617,23,-174,-79,71
826,-3793,0,185,-4620,23,-174,-78,70
827,-3792,-1,184,-4621,23,-175,-79,71
828,-3788,-3,180,-4618,23,-175,-79,70
829,-3791,1,182,-4620,23,-175,-77,69
830,-3790,0,187,-4619,23,-174,-76,69
831,-3789,-2,183,-4618,23,-172,-75,70
832,-3790,-5,191,-4621,23,-174,-74,70
833,-3792,-1,187,-4624,23,-173,-77,70
834,-3792,-1,185,-4623,23,-174,-77,71
835,-3792,-1,186,-4623,23,-172,-76,70
836,-3791,0,196,-4620,23,-173,-77,70
837,-3792,-1,198,-4622,23,-174,-77,70
838,-3789,-3,184,-4617,23,-176,-76,71
839,-3790,-2,182,-4618,23,-174,-76,70
840,-3788,-2,183,-4619,23,-173,-77,72
841,-3790,-3,184,-4615,23,-175,-74,70
842,-3787,-3,189,-4613,23,-175,-76,70
843,-3791,-4,180,-4617,23,-176,-75,71
844,-3789,-6,183,-4617,23,-176,-77,69
845,-3786,-2,187,-4618,23,-176,-76,70
846,-3789,-6,191,-4619,23,-176,-78,70
847,-3792,-4,189,-4616,23,-178,-78,68
848,-3790,-4,190,-4618,23,-177,-80,67
849,-3790,0,188,-4616,23,-178,-79,67
850,-3787,2,189,-4616,23,-176,-78,69
851,-3785,0,184,-4618,23,-176,-79,69
852,-3788,-1,188,-4617,23,-177,-78,68
853,-3787,0,185,-4616,23,-176,-76,69
854,-3791,-1,186,-4617,23,-175,-76,70
855,-3790,-6,184,-4615,23,-175,-77,70
856,-3790,-7,187,-4615,23,-175,-77,69
857,-3790,-4,184,-4618,23,-175,-77,68
858,-3789,-2,179,-4617,23,-175,-76,68
859,-3789,-3,181,-4616,23,-175,-76,69
860,-3794,-2,189,-4620,23,-175,-78,70
861,-3791,-2,188,-4623,23,-176,-79,71
862,-3793,-4,186,-4620,23,-174,-78,70
863,-3787,-5,189,-4618,23,-175,-77,70
864,-3787,-5,184,-4621,23,-174,-75,69
865,-3792,-6,194,-4617,23,-174,-75,68
866,-3793,-5,196,-4615,23,-174,-76,68
867,-3791,-7,189,-4616,23,-175,-77,71
868,-3791,-6,190,-4617,23,-174,-77,71
869,-3791,-4,191,-4613,23,-175,-77,69
870,-3791,-6,190,-4613,23,-174,-78,70
871,-3791,-9,187,-4613,23,-175,-79,70
872,-3788,-7,185,-4614,23,-175,-79,69
873,-3788,-4,184,-4620,23,-175,-76,69
874,-3790,-2,189,-4621,23,-174,-74,69
875,-3795,-2,187,-4619,23,-175,-75,72
876,-3789,-1,185,-4618,23,-174,-75,71
877,-3793,-8,190,-4619,23,-173,-74,71
878,-3794,-8,194,-4621,23,-173,-75,68
879,-3794,-6,186,-4619,23,-173,-75,68
880,-3788,-3,183,-4618,23,-173,-76,69
881,-3789,-1,189,-4620,23,-177,-78,69
882,-3790,2,190,-4622,23,-175,-78,68
883,-3790,-3,188,-4619,23,-174,-78,68
884,-3791,2,189,-4617,23,-175,-75,66
885,-3793,2,183,-4615,23,-174,-75,66
886,-3789,-1,182,-4618,23,-173,-74,68
887,-3790,-1,183,-4617,23,-172,-75,67
888,-3787,-2,180,-4617,23,-173,-76,67
889,-3791,-2,183,-4617,23,-174,-78,67
890,-3790,-3,181,-4619,23,-175,-78,69
891,-3789,-10,183,-4619,23,-176,-78,68
892,-3791,-1,180,-4619,23,-177,-78,67
893,-3791,-4,179,-4620,23,-177,-78,68
894,-3791,-1,178,-4618,23,-175,-77,69
895,-3788,-2,181,-4617,23,-174,-79,68
896,-3789,-9,179,-4617,23,-176,-79,69
897,-3793,-2,188,-4617,23,-173,-78,69
898,-3789,-3,196,-4616,23,-172,-76,68
899,-3790,0,198,-4617,23,-173,-73,65
900,-3790,-1,194,-4617,23,-173,-76,68
901,-3791,1,196,-4617,23,-176,-78,70
902,-3792,2,193,-4615,23,-176,-76,68
903,-3789,0,188,-4617,23,-176,-78,70
904,-3789,0,190,-4616,23,-173,-78,68
905,-3787,-5,190,-4618,23,-175,-78,69
906,-3790,-5,193,-4619,23,-174,-77,69
907,-3791,-3,196,-4620,23,-173,-75,69
908,-3792,-4,197,-4621,23,-174,-75,69
909,-3794,-3,196,-4620,23,-175,-75,68
910,-3790,-1,186,-4620,23,-174,-75,69
911,-3791,-5,190,-4620,23,-173,-75,70
912,-3788,-3,191,-4620,23,-173,-76,71
913,-3790,-4,183,-4620,23,-175,-77,70
914,-3791,-7,182,-4621,23,-175,-76,68
915,-3791,-4,186,-4617,23,-175,-78,71
916,-3785,-1,190,-4617,23,-175,-78,71
917,-3783,-2,188,-4618,23,-172,-77,72
918,-3784,0,188,-4618,23,-172,-79,70
919,-3785,1,192,-4615,23,-174,-76,68
920,-3786,2,188,-4618,23,-173,-74,71
921,-3787,-4,189,-4620,23,-174,-77,70
922,-3789,-3,184,-4617,23,-174,-76,70
923,-3788,-4,192,-4621,23,-173,-78,69
924,-3788,-6,191,-4616,23,-172,-78,68
925,-3790,-2,192,-4614,23,-173,-76,71
926,-3791,-4,186,-4617,23,-175,-76,68
927,-3792,-6,189,-4615,23,-175,-76,70
928,-3792,-5,192,-4616,23,-173,-76,69
929,-3788,-7,200,-4617,23,-173,-76,71
930,-3787,-4,196,-4618,23,-172,-76,71
931,-3792,-5,191,-4617,23,-174,-75,70
932,-3788,-4,192,-4616,23,-173,-77,70
933,-3790,-4,191,-4619,23,-175,-77,71
934,-3791,-3,187,-4617,23,-176,-79,72
935,-3786,-1,183,-4617,23,-175,-77,71
936,-3785,-2,185,-4617,23,-174,-79,70
937,-3789,-5,187,-4618,23,-174,-78,72
938,-3788,-3,184,-4618,23,-175,-78,70
939,-3792,2,180,-4616,23,-174,-80,69
940,-3791,2,182,-4617,23,-172,-78,69
941,-3784,0,175,-4616,23,-174,-77,70
942,-3788,-1,184,-4618,23,-175,-79,70
943,-3787,-2,182,-4617,23,-175,-79,70
944,-3789,-4,174,-4620,23,-173,-77,70
945,-3789,2,182,-4621,23,-173,-78,68
946,-3791,2,178,-4617,23,-174,-78,68
947,-3791,2,185,-4615,23,-175,-78,69
948,-3787,-2,181,-4615,23,-175,-77,70
949,-3785,-1,188,-4612,23,-172,-75,70
950,-3789,1,189,-4615,23,-172,-76,69
951,-3792,-1,181,-4618,23,-170,-78,69
952,-3792,-5,181,-4616,23,-172,-77,71
953,-3793,-4,181,-4616,23,-173,-79,68
954,-3791,-3,186,-4617,23,-172,-79,69
955,-3792,-5,189,-4616,23,-171,-77,67
956,-3789,-6,181,-4620,23,-171,-76,68
957,-3789,-7,186,-4617,23,-172,-77,67
958,-3789,-6,195,-4621,23,-174,-77,70
959,-3791,-9,191,-4618,23,-175,-77,69
960,-3793,-8,187,-4617,23,-175,-78,71
961,-3796,-8,185,-4618,23,-177,-77,71
962,-3795,0,178,-4617,23,-178,-77,69
963,-3796,0,183,-4615,23,-176,-78,71
964,-3790,-5,190,-4617,23,-177,-79,71
965,-3787,-10,189,-4619,23,-177,-78,70
966,-3789,-5,187,-4619,23,-177,-78,68
967,-3787,-3,186,-4617,23,-176,-78,68
968,-3785,-4,193,-4618,23,-177,-78,68
969,-3790,-2,191,-4619,23,-174,-75,70
970,-3791,0,188,-4620,23,-171,-75,71
971,-3786,1,193,-4620,23,-174,-74,72
972,-3788,-2,191,-4619,23,-174,-74,70
973,-3790,-3,191,-4618,23,-176,-76,72
974,-3786,1,194,-4619,23,-174,-77,72
975,-3786,0,190,-4616,23,-173,-75,72
976,-3789,1,190,-4616,23,-172,-78,71
977,-3792,0,182,-4615,23,-171,-79,69
978,-3793,-1,185,-4616,23,-171,-80,70
979,-3792,-6,182,-4616,23,-173,-80,70
980,-3787,-5,184,-4612,23,-174,-82,70
981,-3789,-5,190,-4615,23,-173,-79,72
982,-3787,-3,190,-4619,23,-172,-77,72
983,-3792,-2,192,-4618,23,-174,-77,71
984,-3790,-3,184,-4619,23,-176,-77,72
985,-3791,1,183,-4619,23,-175,-78,70
986,-3788,0,184,-4617,23,-175,-78,69
987,-3786,-1,191,-4616,23,-176,-75,70
988,-3788,0,199,-4617,23,-176,-77,71
989,-3788,-6,193,-4619,23,-174,-77,68
990,-3792,-5,194,-4616,23,-173,-77,69
991,-3788,-4,191,-4619,23,-174,-75,71
992,-3791,-5,191,-4618,23,-173,-77,72
993,-3788,-3,195,-4616,23,-175,-76,71
994,-3791,-2,196,-4616,23,-173,-76,73
995,-3795,-3,196,-4617,23,-172,-78,73
996,-3793,-4,191,-4620,23,-174,-78,72
997,-3788,-1,193,-4619,23,-174,-77,72
998,-3789,0,196,-4619,23,-174,-78,69
