,acc_X,acc_Y,acc_Z,temp,tempC,gyr_X,gyr_Y,gyr_Z
0,-7585,1,384,-4643,23,-88,-38,34
1,-7589,-3,371,-4641,23,-88,-38,34
2,-7580,-2,377,-4641,23,-88,-38,35
3,-7579,-7,383,-4642,23,-88,-39,34
4,-7582,-10,394,-4642,23,-88,-39,35
5,-7583,-17,389,-4641,23,-88,-39,36
6,-7591,-11,374,-4641,23,-87,-39,35
7,-7581,-3,364,-4642,23,-88,-39,35
8,-7576,-6,371,-4641,23,-88,-40,34
9,-7567,-12,375,-4642,23,-87,-40,35
10,-7566,-13,378,-4643,23,-88,-39,35
11,-7566,0,379,-4641,23,-88,-38,36
12,-7567,0,387,-4637,23,-88,-38,35
13,-7572,0,387,-4638,23,-88,-39,36
14,-7566,2,374,-4640,23,-87,-38,35
15,-7575,-2,382,-4643,23,-87,-37,35
16,-7571,8,378,-4642,23,-87,-37,34
17,-7576,13,372,-4641,23,-89,-38,34
18,-7576,-3,374,-4642,23,-88,-38,35
19,-7578,-12,378,-4640,23,-88,-38,35
20,-7574,-9,369,-4641,23,-87,-38,34
21,-7568,-5,376,-4638,23,-88,-39,34
22,-7569,-11,379,-4637,23,-87,-39,34
23,-7568,-1,375,-4639,23,-88,-38,34
24,-7577,-3,377,-4640,23,-87,-39,35
25,-7577,-9,381,-4639,23,-88,-39,34
26,-7572,-7,379,-4640,23,-88,-38,33
27,-7572,-18,386,-4638,23,-88,-38,34
28,-7574,-5,380,-4640,23,-88,-39,34
29,-7564,-1,382,-4639,23,-88,-38,34
30,-7570,1,393,-4638,23,-88,-39,34
31,-7575,-4,400,-4638,23,-88,-39,34
32,-7574,-1,405,-4642,23,-88,-38,33
33,-7575,-4,397,-4641,23,-88,-38,34
34,-7573,-9,395,-4644,23,-89,-39,35
35,-7574,-10,388,-4641,23,-89,-39,35
36,-7570,-12,385,-4640,23,-87,-38,35
37,-7572,-11,376,-4640,23,-86,-37,35
38,-7572,-10,375,-4640,23,-86,-38,35
39,-7581,-3,379,-4642,23,-87,-38,35
40,-7579,3,377,-4639,23,-87,-39,35
41,-7576,2,374,-4639,23,-88,-40,35
42,-7578,-2,377,-4641,23,-89,-39,36
43,-7570,-10,377,-4639,23,-88,-40,35
44,-7570,-5,382,-4638,23,-88,-40,34
45,-7570,-5,388,-4639,23,-88,-39,34
46,-7573,-6,380,-4641,23,-88,-39,33
47,-7570,-7,370,-4644,23,-89,-38,34
48,-7572,-2,358,-4646,23,-87,-39,34
49,-7578,-3,358,-4648,23,-87,-39,33
50,-7579,-4,374,-4648,23,-86,-38,34
51,-7575,0,371,-4646,23,-87,-38,35
52,-7577,-5,381,-4644,23,-87,-38,35
53,-7581,-5,376,-4643,23,-88,-38,35
54,-7577,0,372,-4639,23,-88,-38,34
55,-7579,7,371,-4638,23,-87,-38,35
56,-7573,6,388,-4638,23,-87,-38,35
57,-7571,2,379,-4639,23,-88,-38,34
58,-7584,0,373,-4638,23,-88,-39,33
59,-7581,-4,369,-4637,23,-88,-39,34
60,-7573,3,386,-4640,23,-88,-39,34
61,-7575,0,373,-4641,23,-86,-39,33
62,-7576,-1,359,-4643,23,-87,-39,34
63,-7572,-6,378,-4643,23,-87,-39,35
64,-7576,-4,381,-4645,23,-87,-38,35
65,-7580,-3,374,-4644,23,-87,-39,35
66,-7576,-5,369,-4641,23,-86,-38,35
67,-7581,-6,394,-4641,23,-87,-37,35
68,-7572,0,384,-4639,23,-88,-37,35
69,-7569,-2,388,-4641,23,-87,-38,34
70,-7568,-9,386,-4642,23,-87,-39,34
71,-7565,-13,379,-4643,23,-88,-39,35
72,-7575,-18,381,-4640,23,-87,-38,36
73,-7583,-16,386,-4637,23,-88,-37,35
74,-7580,-9,384,-4639,23,-88,-38,35
75,-7571,-1,382,-4642,23,-88,-38,35
76,-7571,8,394,-4644,23,-88,-37,35
77,-7573,5,392,-4642,23,-87,-38,34
78,-7570,-1,385,-4644,23,-87,-39,36
79,-7575,-5,387,-4638,23,-86,-38,36
80,-7580,1,379,-4641,23,-87,-38,35
81,-7575,5,388,-4643,23,-88,-37,34
82,-7582,-4,395,-4642,23,-87,-37,35
83,-7579,-4,384,-4643,23,-88,-37,35
84,-7572,2,367,-4642,23,-88,-37,34
85,-7574,2,381,-4643,23,-89,-38,34
86,-7582,1,388,-4641,23,-88,-38,35
87,-7583,-1,382,-4638,23,-87,-38,34
88,-7575,4,381,-4642,23,-87,-38,34
89,-7576,-7,365,-4644,23,-87,-38,34
90,-7575,-8,378,-4642,23,-88,-38,34
91,-7576,0,387,-4641,23,-88,-38,34
92,-7573,-6,385,-4640,23,-87,-39,34
93,-7571,-7,392,-4640,23,-86,-39,33
94,-7579,-7,398,-4641,23,-86,-39,35
95,-7571,-3,402,-4641,23,-86,-39,35
96,-7574,-15,378,-4641,23,-87,-39,35
97,-7576,-16,368,-4640,23,-87,-40,34
98,-7582,-11,378,-4638,23,-88,-39,35
99,-7581,-2,371,-4638,23,-87,-39,35
100,-7580,1,373,-4638,23,-87,-38,35
101,-7584,-16,378,-4636,23,-87,-38,34
102,-7577,-6,378,-4636,23,-88,-39,34
103,-7572,-6,373,-4638,23,-88,-39,35
104,-7572,-11,372,-4637,23,-88,-39,35
105,-7574,-11,352,-4634,23,-89,-39,35
106,-7576,-9,352,-4636,23,-88,-38,35
107,-7575,-4,371,-4639,23,-88,-38,35
108,-7577,-4,372,-4639,23,-87,-38,35
109,-7577,-3,386,-4640,23,-87,-39,36
110,-7574,-1,388,-4636,23,-87,-39,36
111,-7576,-3,379,-4637,23,-87,-38,36
112,-7573,-9,366,-4639,23,-88,-38,36
113,-7571,-7,361,-4635,23,-87,-39,36
114,-7576,-12,379,-4635,23,-87,-39,35
115,-7580,-5,369,-4637,23,-88,-37,35
116,-7587,-8,372,-4640,23,-87,-37,34
117,-7585,-8,381,-4638,23,-88,-38,34
118,-7592,-2,391,-4638,23,-88,-37,35
119,-7592,-6,390,-4635,23,-88,-37,34
120,-7584,-13,383,-4635,23,-87,-38,35
121,-7577,-16,377,-4639,23,-87,-39,35
122,-7580,-18,372,-4637,23,-88,-39,34
123,-7582,-15,362,-4639,23,-87,-38,34
124,-7582,-11,359,-4638,23,-88,-39,34
125,-7578,-9,377,-4641,23,-87,-38,34
126,-7575,-9,380,-4637,23,-87,-38,34
127,-7574,-16,383,-4639,23,-87,-37,34
128,-7573,-14,380,-4638,23,-86,-38,34
129,-7578,-2,378,-4638,23,-87,-37,35
130,-7571,-3,368,-4639,23,-87,-37,35
131,-7576,-7,373,-4640,23,-88,-38,34
132,-7568,-3,374,-4638,23,-88,-37,34
133,-7578,-4,386,-4639,23,-87,-38,35
134,-7584,-5,372,-4637,23,-87,-39,34
135,-7578,-1,375,-4638,23,-88,-38,34
136,-7581,-7,371,-4637,23,-88,-39,34
137,-7580,-6,384,-4641,23,-88,-39,34
138,-7573,-11,390,-4638,23,-87,-39,34
139,-7586,-15,386,-4638,23,-87,-39,35
140,-7577,-12,375,-4633,23,-87,-40,35
141,-7578,-7,376,-4635,23,-87,-39,36
142,-7585,-15,363,-4637,23,-87,-38,35
143,-7580,0,375,-4635,23,-86,-38,34
144,-7584,-5,371,-4636,23,-86,-38,34
145,-7583,-3,354,-4637,23,-86,-37,34
146,-7582,-3,362,-4638,23,-86,-38,34
147,-7571,-7,370,-4642,23,-87,-38,35
148,-7578,-2,364,-4637,23,-86,-38,35
149,-7583,3,379,-4636,23,-88,-37,34
150,-7576,1,371,-4636,23,-87,-38,34
151,-7575,-3,378,-4641,23,-87,-38,34
152,-7578,4,375,-4639,23,-87,-38,34
153,-7578,4,377,-4640,23,-87,-38,34
154,-7582,-5,368,-4639,23,-87,-38,35
155,-7586,3,374,-4636,23,-88,-38,34
156,-7583,-8,372,-4635,23,-88,-38,34
157,-7578,-11,388,-4637,23,-88,-38,33
158,-7581,-7,385,-4638,23,-88,-37,35
159,-7583,-7,369,-4636,23,-87,-38,34
160,-7575,-5,376,-4635,23,-87,-39,35
161,-7571,-10,362,-4638,23,-87,-40,35
162,-7572,-11,365,-4639,23,-87,-39,36
163,-7574,-15,367,-4639,23,-87,-38,36
164,-7578,-14,366,-4638,23,-88,-39,35
165,-7581,-21,369,-4637,23,-88,-39,35
166,-7579,-18,378,-4637,23,-88,-39,35
167,-7574,-20,388,-4638,23,-87,-37,35
168,-7582,-19,371,-4635,23,-87,-38,35
169,-7568,-10,363,-4633,23,-87,-38,35
170,-7570,-4,362,-4638,23,-87,-39,35
171,-7568,-9,362,-4638,23,-87,-38,35
172,-7570,-3,380,-4641,23,-88,-38,35
173,-7565,5,391,-4639,23,-87,-37,34
174,-7563,9,390,-4640,23,-88,-37,34
175,-7569,2,377,-4642,23,-87,-39,36
176,-7567,2,369,-4641,23,-88,-38,36
177,-7576,4,370,-4638,23,-89,-37,36
178,-7585,-1,374,-4638,23,-89,-37,35
179,-7586,-5,372,-4641,23,-88,-38,34
180,-7577,1,369,-4639,23,-88,-39,35
181,-7584,-3,367,-4641,23,-87,-39,36
182,-7584,2,368,-4641,23,-88,-38,36
183,-7586,0,375,-4643,23,-88,-39,35
184,-7584,7,381,-4640,23,-88,-39,35
185,-7577,-1,379,-4635,23,-88,-39,35
186,-7578,-9,369,-4636,23,-87,-39,35
187,-7579,-5,385,-4634,23,-88,-39,34
188,-7580,-4,384,-4637,23,-88,-39,36
189,-7588,0,394,-4635,23,-87,-39,35
190,-7583,-5,374,-4635,23,-87,-39,35
191,-7585,-3,376,-4635,23,-88,-38,35
192,-7582,-3,377,-4636,23,-87,-39,35
193,-7568,-10,390,-4635,23,-88,-39,35
194,-7575,-11,382,-4636,23,-88,-37,35
195,-7582,-16,376,-4639,23,-87,-37,34
196,-7576,-7,371,-4637,23,-87,-38,34
197,-7576,-5,381,-4640,23,-87,-39,34
198,-7566,-18,376,-4639,23,-88,-39,34
199,-7573,-11,377,-4638,23,-88,-39,34
200,-7576,0,381,-4637,23,-88,-38,35
201,-7577,-10,370,-4638,23,-89,-39,34
202,-7579,-9,371,-4640,23,-88,-39,35
203,-7579,-6,369,-4640,23,-88,-38,35
204,-7570,-6,381,-4640,23,-87,-39,35
205,-7576,0,382,-4640,23,-87,-38,34
206,-7565,-4,371,-4638,23,-87,-39,36
207,-7578,-3,381,-4638,23,-86,-38,36
208,-7584,-19,377,-4636,23,-88,-37,36
209,-7577,-21,380,-4640,23,-88,-38,35
210,-7585,-21,374,-4639,23,-87,-37,35
211,-7583,-19,363,-4637,23,-87,-38,35
212,-7582,-14,369,-4637,23,-87,-38,35
213,-7580,-4,367,-4637,23,-88,-38,35
214,-7576,-4,376,-4634,23,-88,-39,35
215,-7576,-10,391,-4636,23,-88,-39,35
216,-7574,-10,398,-4637,23,-88,-39,34
217,-7578,-17,386,-4637,23,-87,-39,34
218,-7577,-13,385,-4639,23,-86,-38,34
219,-7577,-4,378,-4640,23,-88,-39,33
220,-7576,-6,373,-4640,23,-88,-38,33
221,-7574,3,366,-4641,23,-88,-37,34
222,-7570,-3,353,-4642,23,-87,-37,34
223,-7569,-6,346,-4641,23,-86,-37,34
224,-7577,-5,349,-4640,23,-87,-38,34
225,-7573,-1,354,-4640,23,-88,-38,35
226,-7572,-5,367,-4638,23,-88,-38,34
227,-7571,-8,374,-4640,23,-89,-38,34
228,-7574,-14,379,-4638,23,-88,-37,35
229,-7583,-14,383,-4637,23,-87,-38,36
230,-7571,-8,380,-4637,23,-87,-38,36
231,-7571,-7,376,-4640,23,-86,-38,35
232,-7576,6,388,-4642,23,-87,-39,35
233,-7577,2,385,-4638,23,-88,-39,35
234,-7574,4,398,-4638,23,-87,-38,34
235,-7586,-1,373,-4636,23,-88,-39,34
236,-7591,10,374,-4633,23,-88,-39,35
237,-7591,4,392,-4636,23,-87,-39,34
238,-7593,-1,385,-4632,23,-88,-39,35
239,-7590,5,386,-4632,23,-88,-39,35
240,-7583,7,391,-4631,23,-88,-39,35
241,-7587,15,396,-4632,23,-87,-40,36
242,-7589,13,395,-4634,23,-86,-40,36
243,-7587,4,404,-4633,23,-87,-38,36
244,-7582,-4,387,-4634,23,-87,-39,35
245,-7586,-2,377,-4636,23,-88,-39,34
246,-7580,-5,377,-4637,23,-88,-39,35
247,-7574,0,380,-4636,23,-88,-40,35
248,-7572,-3,381,-4637,23,-88,-38,36
249,-7574,7,387,-4635,23,-88,-39,35
250,-7574,6,388,-4638,23,-87,-39,35
251,-7573,-2,380,-4634,23,-87,-38,35
252,-7574,-3,377,-4633,23,-88,-39,35
253,-7576,-1,369,-4635,23,-88,-38,36
254,-7578,0,364,-4636,23,-88,-39,36
255,-7578,-3,365,-4639,23,-87,-39,35
256,-7582,-11,369,-4640,23,-88,-38,35
257,-7579,-9,372,-4641,23,-87,-39,35
258,-7580,-10,374,-4638,23,-88,-39,35
259,-7579,-11,371,-4637,23,-89,-39,35
260,-7582,-10,377,-4638,23,-88,-38,36
261,-7585,-15,368,-4640,23,-88,-38,35
262,-7580,-13,356,-4641,23,-88,-38,35
263,-7579,-13,365,-4639,23,-88,-39,35
264,-7576,0,370,-4638,23,-88,-39,34
265,-7570,-3,362,-4636,23,-87,-39,34
266,-7574,-7,363,-4637,23,-87,-39,34
267,-7571,0,376,-4634,23,-87,-39,33
268,-7564,0,364,-4634,23,-86,-39,34
269,-7566,-2,358,-4634,23,-88,-39,34
270,-7568,-1,362,-4631,23,-87,-38,34
271,-7575,4,369,-4633,23,-88,-39,34
272,-7582,-2,371,-4634,23,-88,-38,35
273,-7572,-6,375,-4635,23,-89,-38,35
274,-7570,-12,392,-4636,23,-88,-39,34
275,-7572,-7,398,-4633,23,-88,-39,34
276,-7579,-16,394,-4633,23,-88,-39,34
277,-7578,-19,383,-4633,23,-88,-39,34
278,-7572,-19,379,-4641,23,-88,-39,34
279,-7581,-20,370,-4638,23,-87,-38,33
280,-7572,-16,383,-4636,23,-88,-38,34
281,-7572,-7,383,-4636,23,-88,-38,34
282,-7573,-2,380,-4635,23,-88,-39,35
283,-7577,2,369,-4636,23,-88,-38,34
284,-7579,-6,368,-4633,23,-88,-38,34
285,-7576,-5,372,-4633,23,-87,-38,34
286,-7573,-6,377,-4637,23,-87,-39,34
287,-7570,-3,372,-4636,23,-87,-39,35
288,-7568,-4,367,-4640,23,-87,-39,34
289,-7575,-5,376,-4640,23,-88,-38,35
290,-7575,6,371,-4642,23,-88,-38,35
291,-7574,5,356,-4643,23,-88,-39,34
292,-7568,6,357,-4641,23,-89,-38,34
293,-7571,3,370,-4638,23,-89,-38,34
294,-7578,-5,368,-4634,23,-88,-38,34
295,-7586,-2,375,-4636,23,-88,-39,35
296,-7581,4,376,-4638,23,-88,-39,35
297,-7576,-3,393,-4638,23,-88,-39,35
298,-7581,-8,387,-4637,23,-88,-38,35
299,-7580,-8,391,-4636,23,-88,-39,34
300,-7575,-11,380,-4636,23,-88,-38,34
301,-7572,-15,387,-4635,23,-88,-37,35
302,-7563,-16,385,-4637,23,-87,-37,35
303,-7569,-22,372,-4640,23,-88,-38,36
304,-7572,-10,379,-4640,23,-89,-37,35
305,-7578,-4,369,-4637,23,-89,-39,34
306,-7572,-8,364,-4639,23,-89,-38,34
307,-7579,-1,380,-4637,23,-88,-38,34
308,-7577,5,374,-4637,23,-88,-38,34
309,-7576,-1,364,-4637,23,-87,-38,35
310,-7577,2,370,-4637,23,-88,-37,35
311,-7583,-16,371,-4637,23,-88,-39,35
312,-7577,-8,387,-4634,23,-87,-39,34
313,-7577,-1,382,-4633,23,-86,-40,34
314,-7581,-7,374,-4633,23,-86,-40,34
315,-7575,-9,371,-4638,23,-86,-38,34
316,-7583,-12,364,-4636,23,-87,-37,34
317,-7588,-14,368,-4634,23,-87,-38,35
318,-7590,-9,367,-4633,23,-87,-38,35
319,-7588,-5,377,-4634,23,-87,-37,35
320,-7592,-9,385,-4634,23,-87,-39,35
321,-7582,-15,393,-4633,23,-86,-40,36
322,-7578,-8,380,-4634,23,-87,-39,35
323,-7572,-10,371,-4636,23,-87,-39,35
324,-7571,-11,380,-4635,23,-87,-38,35
325,-7566,-5,383,-4636,23,-87,-38,35
326,-7577,-6,373,-4636,23,-87,-38,36
327,-7577,-8,371,-4637,23,-87,-38,35
328,-7567,-12,364,-4638,23,-87,-39,35
329,-7578,-3,359,-4636,23,-88,-38,36
330,-7576,4,369,-4633,23,-88,-39,36
331,-7571,5,380,-4637,23,-88,-39,35
332,-7578,1,380,-4638,23,-88,-39,35
333,-7584,-5,374,-4638,23,-88,-39,34
334,-7587,-13,365,-4638,23,-87,-39,34
335,-7580,-4,383,-4639,23,-88,-38,34
336,-7579,-9,375,-4636,23,-87,-39,34
337,-7574,-9,379,-4633,23,-88,-39,34
338,-7575,-11,378,-4635,23,-88,-39,34
339,-7572,-2,381,-4636,23,-88,-39,34
340,-7571,-5,392,-4640,23,-88,-39,33
341,-7580,-4,384,-4635,23,-90,-39,34
342,-7579,-1,374,-4634,23,-89,-39,34
343,-7579,0,368,-4633,23,-88,-39,36
344,-7574,2,363,-4636,23,-88,-39,35
345,-7581,-4,379,-4634,23,-87,-39,34
346,-7586,1,382,-4631,23,-87,-38,35
347,-7576,-2,390,-4633,23,-88,-38,35
348,-7573,-8,391,-4631,23,-87,-39,34
349,-7571,-2,385,-4630,23,-87,-39,34
350,-7572,0,381,-4634,23,-87,-39,34
351,-7566,-4,391,-4633,23,-88,-37,35
352,-7575,-9,388,-4634,23,-88,-37,36
353,-7573,-11,395,-4634,23,-88,-37,35
354,-7576,-7,394,-4634,23,-89,-38,35
355,-7576,0,391,-4634,23,-88,-38,35
356,-7570,-2,387,-4633,23,-87,-39,35
357,-7577,-2,373,-4633,23,-87,-39,34
358,-7575,-6,379,-4635,23,-88,-38,35
359,-7576,-4,395,-4634,23,-87,-39,35
360,-7577,-3,391,-4636,23,-88,-38,35
361,-7573,-6,387,-4638,23,-88,-38,35
362,-7576,-2,368,-4635,23,-88,-39,35
363,-7580,-6,383,-4635,23,-88,-40,35
364,-7577,-7,367,-4636,23,-88,-40,35
365,-7578,-5,372,-4637,23,-88,-39,35
366,-7577,-4,378,-4638,23,-89,-40,35
367,-7574,-4,370,-4640,23,-89,-40,35
368,-7568,-5,367,-4637,23,-89,-40,35
369,-7580,-2,368,-4634,23,-89,-39,34
370,-7587,-9,365,-4634,23,-89,-40,34
371,-7575,-10,362,-4635,23,-88,-39,34
372,-7572,-4,371,-4637,23,-88,-38,33
373,-7576,0,365,-4639,23,-87,-38,34
374,-7584,-1,374,-4638,23,-87,-37,33
375,-7575,0,372,-4635,23,-87,-37,34
376,-7576,-12,381,-4633,23,-88,-38,34
377,-7573,-8,392,-4633,23,-88,-38,34
378,-7567,-10,377,-4634,23,-88,-38,34
379,-7570,-7,365,-4635,23,-88,-38,34
380,-7573,-12,366,-4635,23,-87,-39,34
381,-7585,-6,371,-4636,23,-89,-37,34
382,-7578,-13,368,-4637,23,-88,-38,34
383,-7575,-7,366,-4637,23,-88,-38,34
384,-7577,-8,377,-4632,23,-88,-39,35
385,-7576,-6,378,-4632,23,-88,-39,34
386,-7574,-8,373,-4633,23,-87,-38,36
387,-7568,-7,366,-4634,23,-87,-38,36
388,-7572,-4,373,-4637,23,-88,-38,35
389,-7576,-3,379,-4634,23,-89,-38,34
390,-7574,-4,370,-4634,23,-89,-39,35
391,-7575,-7,362,-4634,23,-89,-39,35
392,-7573,-7,359,-4636,23,-88,-39,35
393,-7567,2,360,-4634,23,-88,-39,35
394,-7575,-10,365,-4634,23,-88,-39,35
395,-7577,-7,373,-4634,23,-87,-40,35
396,-7565,-5,378,-4634,23,-87,-40,35
397,-7571,-11,374,-4634,23,-87,-40,36
398,-7579,-13,372,-4633,23,-88,-40,34
399,-7570,-11,359,-4635,23,-88,-39,35
400,-7573,4,378,-4633,23,-89,-39,36
401,-7572,3,380,-4635,23,-88,-39,36
402,-7576,-12,380,-4635,23,-87,-39,35
403,-7578,-9,395,-4632,23,-87,-39,35
404,-7574,-8,402,-4634,23,-86,-39,34
405,-7580,1,399,-4633,23,-86,-39,35
406,-7571,2,383,-4631,23,-87,-39,34
407,-7565,8,387,-4635,23,-88,-39,35
408,-7569,0,382,-4632,23,-87,-39,35
409,-7583,-8,378,-4634,23,-87,-39,35
410,-7592,-4,386,-4633,23,-88,-39,35
411,-7587,4,383,-4635,23,-88,-39,34
412,-7594,-4,382,-4639,23,-88,-38,35
413,-7592,-7,371,-4639,23,-87,-39,34
414,-7583,5,379,-4635,23,-86,-38,34
415,-7569,3,387,-4636,23,-87,-38,35
416,-7576,-3,369,-4634,23,-87,-38,34
417,-7578,-1,362,-4635,23,-87,-38,35
418,-7577,-2,378,-4638,23,-87,-38,35
419,-7577,-1,381,-4639,23,-87,-38,35
420,-7587,-4,380,-4636,23,-87,-38,35
421,-7583,-5,392,-4637,23,-87,-39,36
422,-7575,-4,379,-4638,23,-87,-38,34
423,-7585,-11,385,-4636,23,-88,-38,34
424,-7583,-12,383,-4635,23,-88,-38,35
425,-7575,1,375,-4636,23,-88,-39,34
426,-7586,-2,379,-4637,23,-88,-39,34
427,-7578,6,368,-4637,23,-88,-39,33
428,-7586,1,386,-4637,23,-87,-38,34
429,-7584,5,395,-4636,23,-88,-38,35
430,-7572,5,380,-4636,23,-88,-39,36
431,-7573,1,385,-4635,23,-88,-39,35
432,-7563,-2,376,-4637,23,-88,-38,35
433,-7565,-4,366,-4637,23,-89,-38,33
434,-7576,-2,376,-4639,23,-88,-38,33
435,-7583,-12,385,-4638,23,-88,-38,34
436,-7574,-17,391,-4639,23,-88,-38,35
437,-7574,-16,376,-4638,23,-87,-38,35
438,-7572,-13,382,-4634,23,-87,-38,34
439,-7571,-15,370,-4634,23,-89,-38,33
440,-7583,-10,380,-4637,23,-88,-38,34
441,-7585,-6,389,-4637,23,-88,-37,34
442,-7578,-8,387,-4636,23,-88,-39,35
443,-7578,0,380,-4634,23,-88,-38,34
444,-7583,-6,375,-4634,23,-87,-40,35
445,-7589,-11,380,-4633,23,-86,-38,35
446,-7585,-15,390,-4632,23,-87,-39,34
447,-7576,-14,386,-4635,23,-87,-39,34
448,-7580,-12,396,-4635,23,-88,-40,35
449,-7579,-10,374,-4633,23,-88,-40,36
450,-7587,-14,379,-4634,23,-87,-38,34
451,-7592,-8,362,-4634,23,-88,-38,34
452,-7590,7,361,-4630,23,-87,-37,36
453,-7580,3,362,-4631,23,-87,-37,35
454,-7580,0,381,-4630,23,-86,-37,34
455,-7576,2,381,-4628,23,-87,-37,35
456,-7586,6,373,-4631,23,-86,-38,35
457,-7579,5,366,-4632,23,-87,-39,35
458,-7579,-3,367,-4632,23,-87,-38,35
459,-7581,-1,372,-4632,23,-87,-39,36
460,-7581,0,371,-4635,23,-87,-38,36
461,-7581,-2,364,-4636,23,-87,-38,35
462,-7578,-7,374,-4636,23,-88,-39,35
463,-7575,-16,382,-4633,23,-88,-39,36
464,-7577,-21,386,-4632,23,-87,-39,35
465,-7583,-13,395,-4633,23,-88,-40,35
466,-7585,-17,395,-4633,23,-88,-40,36
467,-7576,-18,396,-4635,23,-88,-40,35
468,-7577,-15,397,-4635,23,-88,-39,34
469,-7578,-12,378,-4630,23,-87,-38,34
470,-7580,-15,376,-4629,23,-87,-38,35
471,-7576,-14,385,-4631,23,-88,-38,35
472,-7579,-3,379,-4634,23,-88,-38,35
473,-7583,-8,370,-4632,23,-89,-38,37
474,-7574,-11,375,-4633,23,-88,-39,36
475,-7570,-8,371,-4630,23,-87,-39,37
476,-7569,-12,375,-4631,23,-87,-39,36
477,-7571,-14,373,-4631,23,-87,-40,36
478,-7568,-6,365,-4631,23,-87,-40,35
479,-7578,-13,361,-4632,23,-87,-38,35
480,-7585,-14,380,-4632,23,-88,-38,35
481,-7582,-17,374,-4632,23,-88,-38,35
482,-7576,-20,388,-4632,23,-87,-37,36
483,-7585,-15,388,-4632,23,-89,-37,35
484,-7575,-20,387,-4631,23,-88,-39,34
485,-7573,-8,378,-4632,23,-88,-39,34
486,-7572,-7,381,-4630,23,-88,-37,34
487,-7570,-2,383,-4631,23,-88,-37,34
488,-7574,2,384,-4633,23,-88,-39,33
489,-7573,1,369,-4630,23,-89,-39,35
490,-7564,1,380,-4631,23,-88,-39,35
491,-7567,2,379,-4628,23,-89,-39,34
492,-7563,9,384,-4631,23,-88,-39,34
493,-7569,5,378,-4631,23,-87,-39,34
494,-7576,2,376,-4633,23,-87,-40,34
495,-7582,-2,380,-4632,23,-88,-39,35
496,-7587,-6,373,-4635,23,-88,-39,35
497,-7577,-1,374,-4634,23,-88,-39,35
498,-7573,-3,378,-4633,23,-88,-39,35
499,-7572,3,368,-4633,23,-88,-39,34
500,-7561,-3,370,-4633,23,-89,-38,35
501,-7565,-6,383,-4629,23,-88,-37,35
502,-7569,-7,378,-4629,23,-89,-38,34
503,-7579,-17,378,-4632,23,-87,-38,34
504,-7570,-7,386,-4630,23,-87,-38,35
505,-7574,-10,385,-4630,23,-87,-38,35
506,-7574,-11,384,-4632,23,-87,-39,34
507,-7573,-12,377,-4634,23,-86,-40,34
508,-7572,-15,397,-4633,23,-87,-39,34
509,-7570,-9,380,-4636,23,-87,-38,34
510,-7571,-8,383,-4631,23,-88,-38,35
511,-7573,-2,397,-4637,23,-88,-39,35
512,-7579,8,390,-4636,23,-88,-38,35
513,-7572,5,388,-4635,23,-87,-39,35
514,-7573,7,392,-4633,23,-87,-38,35
515,-7570,11,398,-4632,23,-88,-40,34
516,-7574,6,380,-4633,23,-88,-40,35
517,-7575,-9,374,-4635,23,-88,-39,34
518,-7578,-7,385,-4634,23,-87,-39,35
519,-7583,-8,380,-4634,23,-88,-38,34
520,-7577,-1,381,-4634,23,-89,-40,34
521,-7564,-4,372,-4636,23,-89,-39,34
522,-7567,6,370,-4635,23,-88,-38,35
523,-7575,3,384,-4634,23,-90,-38,34
524,-7571,-2,397,-4633,23,-89,-38,34
525,-7574,10,390,-4633,23,-89,-38,33
526,-7572,1,389,-4630,23,-88,-38,34
527,-7579,6,396,-4631,23,-86,-37,35
528,-7574,7,387,-4632,23,-87,-39,34
529,-7567,4,364,-4632,23,-88,-38,34
530,-7570,6,362,-4631,23,-88,-39,35
531,-7565,13,369,-4634,23,-88,-39,34
532,-7574,8,365,-4634,23,-88,-38,34
533,-7565,-1,385,-4635,23,-89,-37,34
534,-7560,-1,392,-4631,23,-88,-38,34
535,-7561,-12,395,-4633,23,-88,-39,34
536,-7570,-15,378,-4633,23,-87,-39,34
537,-7570,-6,381,-4635,23,-86,-40,34
538,-7577,-2,383,-4636,23,-87,-40,35
539,-7576,-4,382,-4631,23,-87,-39,35
540,-7574,-6,388,-4631,23,-87,-39,35
541,-7575,-2,377,-4631,23,-87,-38,35
542,-7579,-8,377,-4631,23,-88,-38,35
543,-7582,-17,379,-4629,23,-89,-39,35
544,-7569,-1,389,-4630,23,-89,-39,35
545,-7574,7,380,-4631,23,-89,-40,34
546,-7573,11,396,-4634,23,-89,-39,35
547,-7572,5,393,-4635,23,-88,-38,35
548,-7571,7,386,-4634,23,-88,-39,35
549,-7582,-2,376,-4632,23,-88,-38,35
550,-7578,-9,378,-4630,23,-88,-38,35
551,-7585,0,371,-4631,23,-88,-38,35
552,-7587,-2,368,-4635,23,-89,-39,35
553,-7588,-3,362,-4636,23,-88,-39,35
554,-7577,-1,365,-4637,23,-88,-40,34
555,-7574,3,373,-4632,23,-88,-40,35
556,-7586,2,368,-4633,23,-88,-39,34
557,-7576,0,369,-4632,23,-88,-40,34
558,-7571,4,376,-4634,23,-88,-39,34
559,-7567,4,371,-4631,23,-88,-40,33
560,-7570,14,377,-4632,23,-88,-39,34
561,-7566,5,363,-4630,23,-88,-39,35
562,-7565,-8,373,-4630,23,-89,-39,35
563,-7571,-5,383,-4632,23,-88,-39,34
564,-7578,-5,385,-4634,23,-88,-39,34
565,-7580,-6,377,-4631,23,-88,-39,35
566,-7579,-3,378,-4629,23,-88,-38,35
567,-7581,-6,380,-4629,23,-88,-38,35
568,-7585,-4,392,-4628,23,-88,-38,35
569,-7577,-3,393,-4627,23,-88,-39,35
570,-7579,-1,390,-4630,23,-87,-40,35
571,-7575,1,400,-4631,23,-88,-38,35
572,-7592,-1,394,-4636,23,-88,-37,34
573,-7582,-7,390,-4636,23,-88,-38,34
574,-7580,-6,387,-4637,23,-88,-38,34
575,-7579,-6,399,-4636,23,-87,-38,34
576,-7580,-1,393,-4635,23,-88,-40,34
577,-7574,-5,384,-4632,23,-88,-38,35
578,-7575,1,383,-4631,23,-88,-38,35
579,-7577,3,375,-4633,23,-88,-38,34
580,-7580,0,385,-4632,23,-87,-37,34
581,-7580,-7,380,-4629,23,-88,-37,35
582,-7579,-1,392,-4629,23,-87,-38,35
583,-7583,-7,381,-4628,23,-88,-39,34
584,-7589,0,376,-4627,23,-88,-40,35
585,-7585,0,375,-4628,23,-87,-40,35
586,-7579,0,371,-4625,23,-87,-40,35
587,-7573,-1,377,-4627,23,-87,-40,34
588,-7578,1,385,-4629,23,-86,-39,34
589,-7580,-3,382,-4626,23,-87,-38,34
590,-7574,5,386,-4624,23,-86,-38,34
591,-7567,-1,382,-4624,23,-88,-39,34
592,-7566,-3,397,-4625,23,-88,-38,34
593,-7573,-6,392,-4626,23,-88,-38,35
594,-7572,-9,383,-4627,23,-88,-38,34
595,-7578,-11,374,-4628,23,-88,-39,33
596,-7574,-8,380,-4627,23,-88,-38,34
597,-7571,-3,394,-4628,23,-88,-38,35
598,-7567,-6,392,-4625,23,-88,-37,35
599,-7577,-5,387,-4625,23,-87,-37,36
600,-7580,-9,382,-4627,23,-87,-37,35
601,-7580,-6,362,-4628,23,-87,-37,35
602,-7573,-20,365,-4629,23,-88,-38,34
603,-7581,-13,374,-4630,23,-87,-38,34
604,-7577,-6,384,-4634,23,-88,-38,34
605,-7581,3,386,-4633,23,-89,-39,35
606,-7589,0,377,-4634,23,-88,-38,35
607,-7579,-4,375,-4634,23,-88,-38,35
608,-7575,-5,386,-4631,23,-87,-38,35
609,-7583,-6,393,-4628,23,-87,-39,34
610,-7589,-4,378,-4628,23,-87,-38,34
611,-7580,-3,375,-4632,23,-88,-38,35
612,-7587,0,369,-4633,23,-87,-38,35
613,-7590,11,365,-4631,23,-88,-39,35
614,-7588,5,363,-4634,23,-88,-39,34
615,-7581,-3,368,-4635,23,-87,-38,34
616,-7582,5,356,-4632,23,-88,-39,35
617,-7572,3,373,-4631,23,-89,-39,35
618,-7573,-3,385,-4629,23,-88,-39,35
619,-7583,-7,386,-4628,23,-88,-40,35
620,-7589,-14,382,-4628,23,-87,-39,34
621,-7577,-12,376,-4629,23,-86,-38,34
622,-7579,-11,371,-4628,23,-87,-38,34
623,-7578,-6,379,-4629,23,-88,-38,34
624,-7574,-2,374,-4631,23,-87,-37,34
625,-7572,-3,373,-4630,23,-88,-38,34
626,-7578,5,371,-4629,23,-88,-37,34
627,-7577,5,375,-4629,23,-89,-38,35
628,-7580,0,384,-4625,23,-88,-38,34
629,-7574,-5,370,-4625,23,-88,-39,34
630,-7583,-8,370,-4625,23,-88,-39,34
631,-7579,-9,372,-4626,23,-89,-39,35
632,-7570,-5,384,-4628,23,-88,-39,35
633,-7569,-12,376,-4630,23,-89,-40,35
634,-7581,-10,367,-4628,23,-88,-39,35
635,-7577,-3,379,-4628,23,-88,-39,35
636,-7577,-2,366,-4627,23,-87,-38,35
637,-7577,0,361,-4627,23,-87,-38,34
638,-7578,2,367,-4628,23,-87,-37,35
639,-7577,2,366,-4626,23,-88,-38,35
640,-7580,-8,384,-4630,23,-88,-39,35
641,-7576,-8,381,-4627,23,-86,-39,34
642,-7573,-4,391,-4630,23,-87,-40,35
643,-7574,-1,380,-4630,23,-87,-40,34
644,-7569,-6,374,-4631,23,-87,-39,34
645,-7574,-6,365,-4628,23,-87,-40,34
646,-7580,-4,370,-4631,23,-87,-40,34
647,-7579,-7,362,-4632,23,-87,-39,35
648,-7572,-1,377,-4632,23,-88,-38,35
649,-7570,5,366,-4631,23,-88,-39,36
650,-7571,-13,362,-4628,23,-88,-38,35
651,-7570,-10,371,-4628,23,-88,-38,34
652,-7578,-4,368,-4627,23,-88,-39,35
653,-7576,1,362,-4626,23,-87,-38,35
654,-7589,-7,368,-4627,23,-87,-37,35
655,-7586,-11,365,-4629,23,-86,-38,34
656,-7575,-6,367,-4632,23,-87,-38,34
657,-7583,-8,386,-4632,23,-88,-38,34
658,-7574,-3,374,-4629,23,-88,-38,34
659,-7576,-5,369,-4628,23,-87,-39,34
660,-7574,-10,364,-4633,23,-87,-38,35
661,-7589,-6,357,-4632,23,-88,-39,35
662,-7589,-10,375,-4632,23,-88,-39,34
663,-7583,-11,381,-4631,23,-87,-39,34
664,-7580,-7,375,-4630,23,-87,-40,34
665,-7577,2,364,-4630,23,-87,-39,34
666,-7571,0,374,-4628,23,-87,-39,34
667,-7582,-2,371,-4626,23,-88,-39,35
668,-7575,-12,386,-4626,23,-87,-38,35
669,-7574,-6,382,-4625,23,-86,-38,34
670,-7587,-15,377,-4628,23,-86,-38,35
671,-7583,-9,385,-4629,23,-87,-38,34
672,-7586,1,378,-4629,23,-87,-39,35
673,-7587,-4,376,-4629,23,-87,-39,33
674,-7585,-10,373,-4629,23,-87,-38,34
675,-7589,-4,374,-4627,23,-88,-38,33
676,-7584,-1,380,-4627,23,-87,-38,34
677,-7587,-5,371,-4625,23,-87,-39,34
678,-7582,-3,376,-4625,23,-87,-38,34
679,-7583,-3,385,-4625,23,-87,-37,35
680,-7580,2,384,-4625,23,-88,-38,34
681,-7581,-7,396,-4629,23,-87,-38,33
682,-7586,-16,385,-4629,23,-89,-38,34
683,-7590,-12,369,-4626,23,-89,-38,34
684,-7588,-7,374,-4627,23,-89,-39,33
685,-7580,-5,374,-4626,23,-89,-40,35
686,-7578,-4,390,-4625,23,-89,-39,35
687,-7574,-4,378,-4626,23,-88,-40,35
688,-7588,0,377,-4629,23,-89,-38,35
689,-7585,-4,377,-4625,23,-88,-38,34
690,-7582,-13,376,-4626,23,-88,-38,34
691,-7582,-6,362,-4627,23,-88,-38,33
692,-7581,-5,372,-4626,23,-89,-38,34
693,-7581,0,383,-4625,23,-88,-39,34
694,-7574,-4,393,-4625,23,-88,-39,35
695,-7576,2,379,-4627,23,-88,-39,34
696,-7573,10,378,-4628,23,-88,-38,35
697,-7578,1,365,-4624,23,-88,-38,35
698,-7587,2,364,-4626,23,-87,-39,34
699,-7588,-5,359,-4628,23,-87,-38,34
700,-7587,-3,348,-4628,23,-88,-38,35
701,-7580,1,357,-4629,23,-87,-39,34
702,-7589,-4,355,-4627,23,-87,-38,35
703,-7577,-1,372,-4626,23,-87,-37,35
704,-7581,-2,382,-4625,23,-88,-38,34
705,-7578,-4,393,-4624,23,-89,-38,34
706,-7581,-4,382,-4627,23,-88,-38,34
707,-7586,-8,375,-4629,23,-88,-37,34
708,-7579,-8,382,-4628,23,-87,-38,35
709,-7585,-2,390,-4629,23,-87,-39,34
710,-7587,-9,385,-4626,23,-88,-39,34
711,-7586,-1,377,-4621,23,-88,-39,34
712,-7581,1,390,-4623,23,-88,-38,33
713,-7579,-4,376,-4624,23,-87,-37,34
714,-7580,-14,368,-4626,23,-88,-38,34
715,-7585,-9,373,-4623,23,-88,-39,36
716,-7584,1,359,-4626,23,-87,-39,36
717,-7586,0,361,-4629,23,-87,-40,35
718,-7583,5,357,-4627,23,-87,-40,35
719,-7580,2,379,-4625,23,-88,-38,34
720,-7576,-6,387,-4625,23,-88,-39,34
721,-7580,-7,385,-4625,23,-88,-39,34
722,-7588,-3,374,-4627,23,-87,-38,33
723,-7588,-8,379,-4625,23,-87,-38,35
724,-7581,-6,380,-4629,23,-88,-39,35
725,-7582,-9,380,-4630,23,-87,-37,34
726,-7586,-9,386,-4629,23,-87,-37,35
727,-7580,-5,387,-4631,23,-86,-37,34
728,-7580,-10,384,-4629,23,-87,-38,34
729,-7581,-4,394,-4627,23,-87,-39,35
730,-7581,-7,379,-4624,23,-87,-39,35
731,-7580,-20,374,-4627,23,-88,-39,35
732,-7573,-15,372,-4629,23,-89,-39,34
733,-7575,-8,372,-4625,23,-88,-39,34
734,-7578,-15,372,-4627,23,-88,-39,34
735,-7581,-10,379,-4628,23,-87,-40,35
736,-7583,-13,371,-4627,23,-86,-38,35
737,-7593,-12,369,-4627,23,-87,-39,35
738,-7582,-16,367,-4629,23,-86,-39,35
739,-7581,-14,371,-4630,23,-87,-39,34
740,-7577,-7,366,-4628,23,-87,-39,34
741,-7576,-12,361,-4626,23,-87,-38,35
742,-7576,-11,362,-4627,23,-88,-38,35
743,-7575,-14,367,-4625,23,-87,-38,35
744,-7576,-12,370,-4625,23,-87,-38,36
745,-7583,-1,363,-4626,23,-87,-37,34
746,-7580,-1,376,-4632,23,-88,-37,35
747,-7587,-3,378,-4630,23,-89,-38,35
748,-7585,2,373,-4628,23,-89,-38,35
749,-7580,0,362,-4627,23,-89,-38,34
750,-7585,-4,367,-4628,23,-88,-38,34
751,-7584,-13,377,-4626,23,-88,-38,35
752,-7575,-15,378,-4628,23,-87,-38,35
753,-7574,-18,384,-4628,23,-87,-37,35
754,-7579,-10,378,-4630,23,-87,-36,34
755,-7579,-10,378,-4624,23,-87,-38,35
756,-7575,-7,375,-4623,23,-88,-39,34
757,-7582,-10,391,-4624,23,-89,-40,35
758,-7587,-8,393,-4627,23,-87,-40,35
759,-7587,4,402,-4627,23,-88,-40,35
760,-7580,8,396,-4628,23,-88,-40,36
761,-7579,-3,384,-4630,23,-88,-38,36
762,-7583,-7,382,-4627,23,-87,-39,36
763,-7586,-1,378,-4622,23,-87,-39,35
764,-7583,-5,373,-4624,23,-87,-39,36
765,-7580,-5,370,-4626,23,-87,-38,36
766,-7580,-1,363,-4626,23,-88,-38,36
767,-7581,-4,379,-4624,23,-87,-38,36
768,-7576,-8,380,-4624,23,-87,-38,36
769,-7563,-2,379,-4621,23,-87,-38,35
770,-7576,-10,396,-4626,23,-88,-38,35
771,-7578,-9,392,-4627,23,-88,-38,35
772,-7582,-10,383,-4630,23,-88,-39,35
773,-7579,-5,381,-4629,23,-88,-39,34
774,-7578,-11,377,-4632,23,-88,-39,34
775,-7574,-9,371,-4631,23,-88,-39,34
776,-7569,-4,376,-4630,23,-88,-39,34
777,-7578,-5,381,-4629,23,-88,-38,34
778,-7585,1,379,-4629,23,-88,-38,34
779,-7579,8,390,-4626,23,-88,-38,34
780,-7576,7,399,-4629,23,-87,-38,34
781,-7576,9,404,-4626,23,-87,-38,34
782,-7576,-6,386,-4624,23,-88,-38,34
783,-7575,-4,383,-4620,23,-88,-38,35
784,-7577,-8,378,-4620,23,-87,-38,34
785,-7576,1,389,-4618,23,-86,-39,35
786,-7576,-2,372,-4620,23,-86,-39,36
787,-7572,-4,367,-4622,23,-86,-38,35
788,-7576,-12,386,-4621,23,-87,-38,34
789,-7581,-15,359,-4623,23,-87,-38,35
790,-7575,-2,365,-4622,23,-86,-37,34
791,-7576,-9,369,-4623,23,-86,-39,35
792,-7575,-6,367,-4620,23,-87,-40,35
793,-7577,-8,372,-4624,23,-87,-40,35
794,-7584,-6,381,-4625,23,-88,-39,35
795,-7579,-9,391,-4627,23,-88,-39,35
796,-7589,-11,381,-4626,23,-89,-39,34
797,-7573,-11,377,-4626,23,-88,-38,34
798,-7570,-8,377,-4627,23,-88,-38,35
799,-7565,-6,373,-4629,23,-87,-38,35
800,-7569,-6,375,-4628,23,-88,-38,35
801,-7570,-9,371,-4625,23,-88,-38,34
802,-7567,0,383,-4624,23,-88,-39,35
803,-7561,0,387,-4622,23,-87,-38,36
804,-7565,-7,387,-4623,23,-88,-38,36
805,-7572,-3,370,-4622,23,-88,-39,35
806,-7582,4,375,-4622,23,-87,-38,35
807,-7585,-3,382,-4621,23,-86,-39,35
808,-7585,-10,394,-4627,23,-86,-38,35
809,-7581,-17,382,-4625,23,-87,-39,35
810,-7578,-21,363,-4627,23,-87,-39,36
811,-7577,-16,374,-4627,23,-87,-38,35
812,-7590,-7,372,-4625,23,-88,-38,34
813,-7591,-6,359,-4628,23,-88,-37,36
814,-7587,-19,368,-4628,23,-87,-37,34
815,-7582,-26,364,-4628,23,-87,-39,34
816,-7585,-19,368,-4624,23,-87,-39,34
817,-7582,-14,372,-4625,23,-87,-39,34
818,-7585,-14,372,-4625,23,-87,-39,35
819,-7586,-6,373,-4624,23,-88,-39,35
820,-7582,-9,378,-4624,23,-87,-39,35
821,-7582,-7,379,-4625,23,-87,-39,35
822,-7580,-10,378,-4627,23,-87,-38,35
823,-7584,-4,380,-4627,23,-88,-37,35
824,-7585,1,381,-4626,23,-89,-39,35
825,-7585,6,367,-4624,23,-88,-39,35
826,-7587,6,373,-4625,23,-87,-39,36
827,-7584,6,354,-4627,23,-88,-40,36
828,-7584,6,354,-4630,23,-87,-40,35
829,-7567,7,358,-4631,23,-87,-39,34
830,-7571,0,351,-4629,23,-88,-38,35
831,-7576,5,357,-4628,23,-88,-37,35
832,-7576,-1,372,-4629,23,-88,-38,35
833,-7576,-6,369,-4628,23,-88,-38,35
834,-7573,-9,371,-4627,23,-87,-38,34
835,-7580,-10,363,-4626,23,-88,-38,35
836,-7581,-10,370,-4627,23,-88,-38,33
837,-7587,-3,373,-4627,23,-87,-38,35
838,-7579,9,376,-4626,23,-88,-38,35
839,-7580,1,385,-4628,23,-88,-38,34
840,-7582,-2,383,-4627,23,-87,-38,34
841,-7584,-4,384,-4624,23,-88,-39,34
842,-7574,-8,395,-4623,23,-88,-38,35
843,-7571,-2,389,-4620,23,-88,-37,35
844,-7577,-7,376,-4620,23,-88,-37,35
845,-7580,-11,375,-4621,23,-89,-38,35
846,-7584,-19,395,-4624,23,-89,-38,35
847,-7584,-19,394,-4627,23,-88,-38,35
848,-7588,-11,393,-4627,23,-88,-38,35
849,-7583,-4,383,-4625,23,-88,-38,35
850,-7574,-6,386,-4625,23,-87,-37,35
851,-7579,-6,388,-4626,23,-88,-38,35
852,-7578,-9,380,-4628,23,-88,-38,35
853,-7582,-10,374,-4630,23,-88,-39,34
854,-7583,-2,374,-4628,23,-88,-41,34
855,-7578,-1,372,-4624,23,-88,-40,35
856,-7588,1,370,-4627,23,-88,-38,34
857,-7579,0,379,-4624,23,-88,-38,35
858,-7584,-7,374,-4625,23,-88,-38,35
859,-7588,-5,368,-4626,23,-88,-39,34
860,-7585,3,372,-4627,23,-88,-38,34
861,-7577,-2,364,-4623,23,-87,-39,34
862,-7582,-5,365,-4623,23,-88,-39,33
863,-7587,0,367,-4623,23,-88,-38,34
864,-7579,-14,375,-4625,23,-87,-38,34
865,-7574,-4,376,-4624,23,-88,-38,34
866,-7579,-1,377,-4627,23,-88,-37,35
867,-7574,-6,378,-4625,23,-87,-38,35
868,-7576,-10,381,-4624,23,-86,-38,35
869,-7569,-12,386,-4620,23,-87,-39,35
870,-7574,-15,365,-4622,23,-86,-39,36
871,-7573,-14,355,-4626,23,-86,-38,35
872,-7584,-6,371,-4627,23,-86,-38,35
873,-7581,-7,365,-4626,23,-86,-38,35
874,-7573,0,365,-4621,23,-88,-39,35
875,-7572,-6,370,-4625,23,-87,-39,35
876,-7579,-1,371,-4622,23,-87,-38,35
877,-7569,-1,379,-4622,23,-87,-38,35
878,-7569,3,383,-4621,23,-87,-37,35
879,-7572,6,367,-4624,23,-88,-38,35
880,-7578,1,378,-4625,23,-87,-38,33
881,-7591,-5,383,-4627,23,-87,-40,34
882,-7593,-3,381,-4627,23,-87,-39,33
883,-7577,-10,377,-4625,23,-87,-39,34
884,-7580,-9,378,-4625,23,-87,-38,35
885,-7577,-5,385,-4623,23,-88,-39,35
886,-7577,-5,370,-4622,23,-88,-39,35
887,-7576,1,366,-4625,23,-89,-39,35
888,-7575,-6,370,-4626,23,-88,-38,35
889,-7572,-11,361,-4625,23,-87,-38,36
890,-7576,-4,369,-4625,23,-88,-38,35
891,-7577,-3,365,-4629,23,-87,-38,35
892,-7584,6,371,-4627,23,-86,-39,35
893,-7584,-3,363,-4628,23,-86,-40,36
894,-7577,1,365,-4630,23,-86,-40,36
895,-7582,-1,358,-4627,23,-87,-40,36
896,-7575,-13,377,-4627,23,-87,-38,36
897,-7568,-18,376,-4623,23,-88,-39,36
898,-7568,-16,374,-4625,23,-88,-40,35
899,-7569,-10,374,-4626,23,-88,-40,35
900,-7565,-8,374,-4622,23,-87,-39,35
901,-7567,-6,371,-4626,23,-87,-40,35
902,-7566,0,376,-4627,23,-87,-40,35
903,-7572,3,374,-4626,23,-87,-39,34
904,-7572,-7,378,-4624,23,-87,-39,34
905,-7573,-8,386,-4627,23,-88,-38,34
906,-7574,-8,370,-4626,23,-89,-38,35
907,-7579,-9,374,-4625,23,-89,-39,34
908,-7571,-9,382,-4625,23,-88,-38,35
909,-7575,-6,376,-4624,23,-88,-38,35
910,-7573,-17,379,-4627,23,-88,-38,34
911,-7585,-15,383,-4625,23,-88,-38,34
912,-7587,-8,379,-4625,23,-88,-38,35
913,-7576,-13,379,-4629,23,-88,-37,35
914,-7582,-2,370,-4625,23,-88,-38,34
915,-7577,0,378,-4625,23,-88,-38,35
916,-7582,-5,389,-4627,23,-87,-39,35
917,-7577,-9,384,-4626,23,-86,-39,34
918,-7577,-9,371,-4629,23,-88,-38,34
919,-7583,-4,370,-4630,23,-87,-37,34
920,-7579,1,381,-4627,23,-86,-38,35
921,-7575,0,387,-4626,23,-87,-37,35
922,-7578,1,381,-4626,23,-87,-38,35
923,-7574,-1,382,-4626,23,-89,-37,35
924,-7570,-2,375,-4629,23,-89,-38,35
925,-7576,-3,366,-4628,23,-88,-38,35
926,-7582,-15,371,-4627,23,-88,-38,34
927,-7592,-6,362,-4628,23,-88,-38,34
928,-7585,-2,354,-4626,23,-88,-38,35
929,-7578,1,366,-4627,23,-89,-39,34
930,-7575,-11,362,-4625,23,-89,-39,34
931,-7583,-4,376,-4624,23,-90,-39,35
932,-7578,-10,365,-4624,23,-90,-39,35
933,-7575,-12,369,-4624,23,-90,-38,36
934,-7572,-10,378,-4624,23,-89,-38,35
935,-7569,-3,371,-4624,23,-88,-38,35
936,-7569,-8,372,-4625,23,-88,-38,36
937,-7574,-7,379,-4628,23,-88,-38,35
938,-7573,-4,367,-4627,23,-88,-38,34
939,-7577,-4,368,-4626,23,-89,-38,35
940,-7579,6,383,-4623,23,-88,-39,35
941,-7578,2,387,-4624,23,-87,-37,35
942,-7573,4,386,-4625,23,-86,-39,35
943,-7569,-1,382,-4626,23,-87,-39,34
944,-7562,-6,371,-4623,23,-88,-39,35
945,-7569,-10,372,-4624,23,-88,-38,34
946,-7575,-9,380,-4624,23,-88,-39,34
947,-7578,-7,382,-4625,23,-88,-39,35
948,-7570,-6,376,-4626,23,-88,-39,35
949,-7577,-6,355,-4624,23,-86,-38,35
950,-7573,-2,349,-4622,23,-88,-38,35
951,-7580,-3,373,-4623,23,-88,-38,35
952,-7572,3,383,-4623,23,-88,-39,36
953,-7579,-4,373,-4619,23,-88,-38,36
954,-7584,-6,375,-4622,23,-87,-38,35
955,-7582,-8,370,-4618,23,-88,-38,36
956,-7573,-7,370,-4620,23,-87,-38,35
957,-7576,-5,375,-4622,23,-87,-39,35
958,-7577,-6,378,-4621,23,-88,-40,35
959,-7573,-9,376,-4622,23,-87,-39,35
960,-7570,-7,365,-4624,23,-88,-38,35
961,-7564,-2,380,-4625,23,-88,-38,35
962,-7571,6,388,-4623,23,-87,-39,35
963,-7577,-2,381,-4623,23,-87,-39,34
964,-7573,-1,369,-4623,23,-88,-38,35
965,-7571,-9,361,-4619,23,-87,-39,36
966,-7569,-14,357,-4622,23,-87,-39,35
967,-7574,-9,362,-4621,23,-88,-38,35
968,-7578,-12,358,-4618,23,-88,-38,35
969,-7567,-2,372,-4620,23,-87,-39,35
970,-7566,-13,369,-4619,23,-87,-40,34
971,-7579,-12,379,-4619,23,-87,-39,34
972,-7573,-11,380,-4621,23,-86,-39,34
973,-7570,-6,379,-4620,23,-87,-39,34
974,-7576,-14,372,-4620,23,-87,-39,35
975,-7577,-16,388,-4624,23,-86,-39,34
976,-7575,-23,385,-4625,23,-87,-39,34
977,-7579,-15,364,-4622,23,-86,-38,34
978,-7582,-5,372,-4621,23,-85,-39,35
979,-7578,-8,373,-4622,23,-86,-39,35
980,-7577,-4,372,-4623,23,-85,-38,36
981,-7580,3,361,-4623,23,-86,-38,35
982,-7578,2,359,-4621,23,-87,-38,35
983,-7579,-1,375,-4620,23,-86,-38,34
984,-7574,-2,382,-4622,23,-87,-38,34
985,-7579,-7,382,-4623,23,-87,-38,34
986,-7577,1,389,-4625,23,-88,-38,34
987,-7568,-3,389,-4622,23,-88,-38,34
988,-7581,-7,392,-4625,23,-87,-38,34
989,-7587,-1,384,-4630,23,-87,-38,35
990,-7575,0,381,-4631,23,-86,-38,34
991,-7578,6,388,-4629,23,-86,-39,35
992,-7581,2,382,-4626,23,-86,-39,35
993,-7580,6,383,-4624,23,-86,-39,34
994,-7574,-2,376,-4622,23,-87,-39,35
995,-7576,4,370,-4625,23,-87,-39,35
996,-7572,6,371,-4627,23,-88,-39,35
997,-7567,-4,384,-4625,23,-88,-39,34
998,-7571,-1,379,-4628,23,-88,-39,34
