,acc_X,acc_Y,acc_Z,temp,tempC,gyr_X,gyr_Y,gyr_Z
0,-7582,-4,394,-4891,22,-44,-20,15
1,-7589,16,348,-4878,22,-44,-21,18
2,-7543,-29,354,-4897,22,-43,-20,16
3,-7589,4,381,-4877,22,-41,-19,17
4,-7576,-21,369,-4888,22,-43,-21,17
5,-7512,-12,326,-4897,22,-43,-19,20
6,-7580,-33,370,-4868,22,-43,-21,17
7,-7572,-8,401,-4872,22,-42,-17,18
8,-7577,45,340,-4879,22,-44,-20,17
9,-7559,24,366,-4878,22,-44,-21,18
10,-7612,-11,350,-4880,22,-43,-18,18
11,-7563,-20,394,-4884,22,-46,-21,19
12,-7580,7,376,-4870,22,-44,-18,17
13,-7540,-22,398,-4863,22,-42,-20,18
14,-7550,-2,386,-4884,22,-44,-17,18
15,-7591,45,396,-4874,22,-44,-19,16
16,-7601,8,319,-4867,22,-45,-20,17
17,-7599,14,385,-4868,22,-44,-17,16
18,-7576,-2,356,-4879,22,-44,-19,18
19,-7611,-31,361,-4876,22,-42,-21,18
20,-7571,-17,396,-4860,22,-47,-19,18
21,-7575,1,364,-4878,22,-43,-19,15
22,-7545,-8,383,-4880,22,-41,-19,17
23,-7592,-2,378,-4873,22,-43,-18,17
24,-7595,10,360,-4882,22,-45,-20,16
25,-7576,31,401,-4875,22,-43,-18,18
26,-7555,-6,355,-4857,22,-41,-21,17
27,-7589,-1,425,-4879,22,-44,-20,18
28,-7530,11,357,-4884,22,-44,-21,16
29,-7600,-14,369,-4880,22,-46,-19,16
30,-7554,11,459,-4871,22,-45,-19,18
31,-7562,-1,378,-4877,22,-44,-19,18
32,-7592,20,404,-4883,22,-45,-18,18
33,-7558,33,340,-4868,22,-42,-22,15
34,-7573,41,367,-4863,22,-43,-19,18
35,-7561,4,371,-4882,22,-43,-19,16
36,-7580,-23,352,-4869,22,-42,-20,17
37,-7558,29,380,-4874,22,-44,-21,17
38,-7554,-4,397,-4878,22,-42,-18,17
39,-7611,14,401,-4866,22,-43,-21,18
40,-7589,1,346,-4869,22,-43,-20,18
41,-7597,-4,344,-4873,22,-45,-18,15
42,-7603,-63,401,-4883,22,-43,-21,18
43,-7566,35,354,-4866,22,-42,-20,17
44,-7593,-54,386,-4885,22,-43,-19,17
45,-7538,-29,412,-4862,22,-42,-20,15
46,-7554,-29,383,-4868,22,-43,-20,19
47,-7573,7,361,-4870,22,-43,-17,18
48,-7594,19,340,-4869,22,-44,-20,16
49,-7573,-15,368,-4859,22,-43,-20,17
50,-7568,-16,370,-4869,22,-44,-18,17
51,-7575,-33,385,-4863,22,-42,-19,16
52,-7554,-9,333,-4878,22,-42,-18,16
53,-7553,13,371,-4868,22,-44,-19,18
54,-7581,2,345,-4861,22,-45,-20,16
55,-7572,-26,323,-4856,22,-44,-18,16
56,-7579,-22,342,-4858,22,-45,-20,17
57,-7605,-2,423,-4869,22,-42,-21,17
58,-7607,2,420,-4854,22,-41,-17,15
59,-7604,19,331,-4863,22,-44,-20,16
60,-7584,18,400,-4884,22,-41,-19,18
61,-7565,-4,383,-4860,22,-41,-18,16
62,-7595,-19,330,-4867,22,-42,-21,18
63,-7605,19,348,-4867,22,-45,-20,14
64,-7587,17,325,-4855,22,-44,-20,17
65,-7584,9,335,-4870,22,-43,-17,15
66,-7541,-3,368,-4858,22,-44,-19,17
67,-7581,-11,422,-4859,22,-41,-22,16
68,-7574,47,389,-4861,22,-45,-18,18
69,-7580,-58,404,-4863,22,-43,-21,17
70,-7552,-13,407,-4881,22,-42,-20,17
71,-7574,-23,328,-4859,22,-42,-19,17
72,-7564,11,385,-4867,22,-41,-23,16
73,-7547,-27,419,-4873,22,-43,-19,17
74,-7596,13,354,-4855,22,-43,-21,18
75,-7603,-21,393,-4857,22,-43,-19,15
76,-7556,-4,391,-4861,22,-44,-20,17
77,-7575,-13,331,-4867,22,-43,-21,19
78,-7524,3,448,-4861,22,-43,-20,16
79,-7586,3,372,-4858,22,-45,-18,16
80,-7550,-14,375,-4856,22,-41,-19,16
81,-7614,-14,358,-4856,22,-44,-20,20
82,-7560,14,377,-4878,22,-44,-20,18
83,-7573,-48,425,-4871,22,-43,-19,17
84,-7575,13,348,-4877,22,-43,-20,18
85,-7576,-21,359,-4862,22,-43,-19,17
86,-7596,7,384,-4867,22,-43,-21,16
87,-7571,-43,359,-4863,22,-43,-19,15
88,-7573,-49,432,-4857,22,-43,-21,16
89,-7579,-9,385,-4847,22,-43,-20,17
90,-7566,-25,378,-4865,22,-43,-21,16
91,-7573,-8,414,-4864,22,-43,-17,16
92,-7595,-5,412,-4864,22,-42,-21,19
93,-7548,10,398,-4859,22,-45,-20,17
94,-7585,5,389,-4863,22,-45,-20,17
95,-7570,-7,339,-4845,22,-44,-20,17
96,-7565,-31,338,-4863,22,-44,-18,18
97,-7567,3,351,-4849,22,-45,-19,17
98,-7611,20,370,-4851,22,-42,-21,16
99,-7569,-12,384,-4863,22,-42,-19,17
100,-7603,4,370,-4852,22,-42,-19,17
101,-7608,12,365,-4865,22,-44,-20,16
102,-7546,-25,337,-4858,22,-44,-18,15
103,-7546,27,380,-4848,22,-41,-19,17
104,-7586,-39,361,-4870,22,-45,-17,16
105,-7570,-28,359,-4856,22,-44,-19,18
106,-7559,-18,378,-4862,22,-44,-20,16
107,-7586,8,365,-4867,22,-42,-20,18
108,-7583,-45,321,-4852,22,-43,-20,17
109,-7586,8,405,-4850,22,-43,-18,18
110,-7624,16,425,-4855,22,-41,-20,16
111,-7576,3,373,-4860,22,-43,-20,16
112,-7565,-20,446,-4859,22,-45,-19,18
113,-7585,-25,330,-4844,22,-42,-19,15
114,-7588,10,415,-4864,22,-42,-18,18
115,-7578,-20,389,-4836,22,-44,-18,19
116,-7598,10,404,-4860,22,-43,-20,17
117,-7576,9,385,-4866,22,-45,-21,17
118,-7593,10,404,-4856,22,-45,-20,18
119,-7609,-48,336,-4851,22,-45,-19,16
120,-7576,4,360,-4846,22,-44,-22,17
121,-7581,28,358,-4869,22,-42,-20,17
122,-7573,-7,409,-4854,22,-42,-20,15
123,-7593,5,318,-4868,22,-43,-19,17
124,-7562,-9,357,-4845,22,-44,-18,18
125,-7576,-34,401,-4841,22,-42,-17,15
126,-7611,-1,374,-4851,22,-44,-20,15
127,-7612,-24,377,-4838,22,-44,-20,17
128,-7563,-25,350,-4858,22,-46,-19,16
129,-7588,-6,382,-4855,22,-44,-20,18
130,-7594,20,363,-4856,22,-43,-20,17
131,-7542,23,356,-4843,22,-43,-19,15
132,-7589,-20,367,-4849,22,-44,-21,17
133,-7568,2,394,-4858,22,-46,-18,14
134,-7586,-54,367,-4858,22,-43,-19,15
135,-7580,18,342,-4842,22,-45,-20,17
136,-7587,1,377,-4843,22,-44,-16,19
137,-7602,-12,342,-4833,22,-45,-19,19
138,-7599,3,328,-4848,22,-45,-21,16
139,-7542,1,392,-4849,22,-44,-20,17
140,-7573,-15,405,-4848,22,-43,-21,17
141,-7553,-17,354,-4850,22,-44,-19,17
142,-7618,15,381,-4837,22,-46,-20,16
143,-7609,-21,380,-4855,22,-43,-17,14
144,-7548,-5,417,-4844,22,-42,-20,16
145,-7627,13,381,-4847,22,-43,-20,16
146,-7565,-7,353,-4856,22,-41,-18,17
147,-7577,3,324,-4845,22,-44,-20,18
148,-7567,8,397,-4854,22,-42,-19,18
149,-7539,-32,400,-4849,22,-44,-20,17
150,-7571,-8,365,-4854,22,-43,-19,17
151,-7577,5,400,-4840,22,-43,-20,19
152,-7590,2,391,-4843,22,-42,-20,18
153,-7562,5,394,-4847,22,-44,-20,19
154,-7542,-6,327,-4837,22,-46,-18,20
155,-7550,-3,381,-4857,22,-43,-20,17
156,-7605,-7,377,-4835,22,-45,-17,18
157,-7612,-1,385,-4829,22,-43,-20,17
158,-7606,44,349,-4847,22,-44,-19,18
159,-7584,1,388,-4841,22,-44,-20,17
160,-7570,-41,331,-4839,22,-45,-22,18
161,-7567,-25,384,-4843,22,-45,-19,17
162,-7584,0,390,-4841,22,-43,-22,18
163,-7567,-21,322,-4847,22,-41,-20,18
164,-7550,-3,355,-4826,22,-43,-19,17
165,-7596,12,399,-4829,22,-44,-19,16
166,-7559,-6,382,-4848,22,-45,-21,16
167,-7540,1,400,-4833,22,-45,-16,17
168,-7555,4,313,-4827,22,-44,-20,18
169,-7621,-31,356,-4838,22,-44,-18,17
170,-7575,-38,385,-4838,22,-43,-20,17
171,-7560,13,342,-4840,22,-43,-20,18
172,-7587,-31,373,-4837,22,-43,-20,18
173,-7558,7,374,-4844,22,-44,-20,16
174,-7576,-18,385,-4838,22,-41,-20,20
175,-7600,19,341,-4862,22,-43,-19,17
176,-7570,4,407,-4847,22,-44,-19,17
177,-7593,9,316,-4838,22,-43,-20,18
178,-7572,-28,314,-4841,22,-42,-20,17
179,-7591,20,431,-4833,22,-43,-20,16
180,-7607,-4,428,-4842,22,-44,-20,18
181,-7568,2,384,-4840,22,-43,-21,17
182,-7543,-19,451,-4840,22,-43,-18,17
183,-7575,13,390,-4838,22,-46,-18,17
184,-7546,-30,367,-4837,22,-44,-20,16
185,-7595,-22,436,-4851,22,-44,-20,15
186,-7605,6,372,-4851,22,-42,-19,16
187,-7563,5,418,-4840,22,-44,-20,17
188,-7593,7,379,-4843,22,-43,-19,14
189,-7566,-30,415,-4840,22,-44,-20,18
190,-7539,-23,325,-4842,22,-43,-21,16
191,-7570,19,363,-4852,22,-43,-17,16
192,-7576,-1,373,-4840,22,-46,-19,17
193,-7611,-22,328,-4847,22,-44,-18,17
194,-7605,-4,391,-4844,22,-46,-18,17
195,-7513,-15,350,-4835,22,-44,-19,17
196,-7610,-4,359,-4845,22,-44,-19,18
197,-7566,-15,345,-4840,22,-46,-18,19
198,-7563,-12,387,-4845,22,-43,-20,17
199,-7611,31,390,-4845,22,-44,-20,17
200,-7610,-4,362,-4833,22,-43,-21,17
201,-7568,-13,411,-4837,22,-43,-17,14
202,-7585,16,360,-4847,22,-46,-19,18
203,-7569,-1,383,-4827,22,-43,-19,17
204,-7602,-8,364,-4837,22,-45,-23,18
205,-7569,-3,379,-4842,22,-42,-22,17
206,-7582,29,360,-4839,22,-43,-20,17
207,-7557,-13,360,-4826,22,-42,-19,17
208,-7570,2,394,-4829,22,-44,-22,18
209,-7570,-14,399,-4850,22,-45,-19,17
210,-7602,-40,388,-4838,22,-45,-20,17
211,-7584,26,337,-4842,22,-42,-18,17
212,-7614,34,370,-4840,22,-42,-20,17
213,-7592,11,386,-4839,22,-41,-22,18
214,-7572,-8,354,-4840,22,-45,-18,18
215,-7605,-60,353,-4854,22,-43,-20,19
216,-7578,7,386,-4833,22,-43,-21,17
217,-7598,27,407,-4847,22,-46,-22,16
218,-7586,-24,413,-4834,22,-45,-18,16
219,-7571,-8,369,-4842,22,-46,-18,16
220,-7584,5,334,-4834,22,-43,-18,16
221,-7633,-26,416,-4839,22,-42,-18,16
222,-7602,-10,330,-4834,22,-43,-17,17
223,-7621,-16,393,-4831,22,-42,-19,17
224,-7594,-37,370,-4836,22,-44,-19,18
225,-7603,-3,403,-4829,22,-42,-19,15
226,-7577,4,354,-4833,22,-43,-20,16
227,-7586,-38,392,-4818,22,-44,-22,16
228,-7567,16,456,-4833,22,-44,-20,17
229,-7523,7,378,-4848,22,-45,-18,16
230,-7603,32,363,-4844,22,-43,-19,17
231,-7591,4,399,-4840,22,-44,-20,18
232,-7580,39,339,-4853,22,-45,-21,16
233,-7550,10,385,-4849,22,-43,-19,16
234,-7592,37,327,-4831,22,-43,-22,16
235,-7514,7,352,-4843,22,-43,-21,17
236,-7580,30,432,-4830,22,-42,-20,17
237,-7568,-5,312,-4847,22,-44,-20,15
238,-7566,2,387,-4830,22,-41,-20,16
239,-7547,22,389,-4824,22,-44,-22,15
240,-7598,-5,321,-4837,22,-44,-20,17
241,-7586,24,397,-4829,22,-44,-22,16
242,-7587,-17,412,-4828,22,-45,-18,17
243,-7570,-6,410,-4843,22,-41,-19,19
244,-7571,-4,351,-4834,22,-44,-18,18
245,-7611,5,332,-4840,22,-44,-19,16
246,-7562,0,404,-4834,22,-43,-21,17
247,-7584,-20,393,-4847,22,-43,-19,18
248,-7553,-5,332,-4842,22,-44,-20,18
249,-7614,8,372,-4831,22,-43,-18,15
250,-7552,-20,324,-4842,22,-44,-20,16
251,-7588,34,369,-4832,22,-45,-20,16
252,-7556,-38,339,-4845,22,-42,-18,16
253,-7580,-13,355,-4842,22,-42,-21,18
254,-7588,-71,323,-4849,22,-43,-18,18
255,-7589,26,336,-4831,22,-43,-18,16
256,-7577,-5,377,-4830,22,-44,-19,15
257,-7574,50,335,-4840,22,-44,-18,15
258,-7570,-56,393,-4820,22,-45,-22,19
259,-7589,4,375,-4837,22,-43,-18,16
260,-7564,-60,433,-4836,22,-42,-21,17
261,-7571,2,376,-4833,22,-44,-18,17
262,-7565,-19,423,-4830,22,-42,-19,17
263,-7583,-14,385,-4824,22,-44,-17,17
264,-7549,-16,334,-4839,22,-42,-21,17
265,-7562,16,292,-4836,22,-44,-20,16
266,-7605,-1,367,-4844,22,-43,-20,15
267,-7529,-7,338,-4831,22,-45,-19,17
268,-7594,-30,436,-4830,22,-42,-21,19
269,-7552,-78,312,-4833,22,-45,-19,17
270,-7630,-21,373,-4844,22,-42,-19,14
271,-7595,0,380,-4835,22,-42,-19,19
272,-7601,-17,392,-4819,22,-43,-22,17
273,-7563,-4,370,-4839,22,-43,-18,18
274,-7577,36,322,-4839,22,-44,-20,18
275,-7549,-5,279,-4812,22,-43,-19,16
276,-7606,45,377,-4842,22,-42,-21,15
277,-7596,18,381,-4831,22,-43,-20,16
278,-7543,-38,348,-4832,22,-43,-19,18
279,-7542,-10,441,-4826,22,-45,-19,16
280,-7606,13,343,-4837,22,-43,-20,17
281,-7588,-41,327,-4829,22,-43,-21,16
282,-7604,-13,417,-4838,22,-41,-20,19
283,-7592,-4,370,-4824,22,-44,-18,16
284,-7548,-7,365,-4825,22,-42,-20,15
285,-7559,24,380,-4837,22,-45,-22,18
286,-7520,-19,351,-4828,22,-42,-22,18
287,-7597,-30,361,-4829,22,-44,-20,18
288,-7583,15,397,-4832,22,-44,-22,18
289,-7584,24,374,-4827,22,-43,-18,17
290,-7580,28,371,-4839,22,-43,-16,15
291,-7583,-48,343,-4832,22,-42,-20,16
292,-7567,13,350,-4831,22,-43,-17,17
293,-7578,-25,411,-4842,22,-42,-21,17
294,-7581,-8,396,-4838,22,-44,-20,17
295,-7572,-19,402,-4831,22,-43,-20,16
296,-7597,-26,381,-4834,22,-42,-19,17
297,-7537,-20,346,-4819,22,-43,-21,17
298,-7573,-3,351,-4827,22,-43,-20,16
299,-7579,25,354,-4832,22,-45,-19,17
300,-7545,-54,401,-4831,22,-43,-17,16
301,-7566,-1,323,-4832,22,-43,-20,17
302,-7571,-30,312,-4826,22,-44,-20,17
303,-7576,-3,350,-4824,22,-44,-19,15
304,-7546,6,338,-4825,22,-42,-20,17
305,-7546,-8,356,-4825,22,-43,-22,16
306,-7578,-1,371,-4835,22,-44,-20,18
307,-7609,-10,355,-4819,22,-43,-21,17
308,-7554,-4,383,-4838,22,-43,-19,17
309,-7541,-30,388,-4834,22,-45,-20,16
310,-7555,-20,367,-4836,22,-43,-20,19
311,-7563,-21,348,-4839,22,-45,-20,17
312,-7591,-21,328,-4822,22,-43,-19,18
313,-7589,20,319,-4837,22,-45,-19,16
314,-7606,-22,404,-4834,22,-43,-19,16
315,-7576,-11,383,-4829,22,-41,-21,16
316,-7607,10,380,-4828,22,-43,-19,17
317,-7545,-25,364,-4835,22,-43,-20,18
318,-7584,-8,400,-4822,22,-44,-20,18
319,-7626,53,373,-4827,22,-42,-20,18
320,-7573,18,347,-4833,22,-42,-19,16
321,-7549,7,371,-4834,22,-45,-20,16
322,-7523,4,352,-4823,22,-44,-19,17
323,-7609,-10,363,-4830,22,-42,-21,18
324,-7619,10,388,-4827,22,-43,-21,16
325,-7569,19,381,-4821,22,-46,-19,16
326,-7583,23,335,-4821,22,-43,-18,19
327,-7563,-40,379,-4845,22,-41,-20,17
328,-7575,-41,296,-4833,22,-43,-20,18
329,-7580,-11,330,-4819,22,-43,-21,18
330,-7607,23,414,-4840,22,-43,-20,17
331,-7612,-14,386,-4818,22,-45,-19,18
332,-7612,-26,377,-4825,22,-42,-23,18
333,-7552,12,371,-4818,22,-44,-19,18
334,-7561,38,385,-4819,22,-44,-21,15
335,-7545,49,341,-4826,22,-43,-20,18
336,-7552,-23,354,-4826,22,-43,-18,17
337,-7564,-7,392,-4821,22,-42,-21,15
338,-7602,-19,378,-4829,22,-43,-22,17
339,-7566,18,417,-4827,22,-44,-22,16
340,-7571,21,331,-4830,22,-44,-20,18
341,-7588,1,362,-4828,22,-46,-18,19
342,-7601,-8,311,-4823,22,-45,-20,17
343,-7581,-4,362,-4825,22,-44,-19,19
344,-7596,43,316,-4825,22,-43,-18,15
345,-7590,-11,329,-4831,22,-42,-19,19
346,-7552,-23,329,-4818,22,-43,-19,16
347,-7540,-14,397,-4826,22,-42,-22,16
348,-7568,-10,341,-4811,22,-42,-19,18
349,-7577,-13,371,-4836,22,-44,-21,17
350,-7598,-28,411,-4816,22,-45,-22,18
351,-7566,18,343,-4823,22,-42,-20,18
352,-7574,-29,343,-4831,22,-42,-18,17
353,-7574,28,378,-4813,22,-43,-19,17
354,-7564,11,394,-4828,22,-43,-20,17
355,-7564,31,380,-4829,22,-44,-18,17
356,-7530,-11,390,-4825,22,-45,-20,16
357,-7559,-30,321,-4807,22,-43,-16,17
358,-7566,0,342,-4818,22,-42,-19,16
359,-7578,-15,357,-4829,22,-44,-20,18
360,-7574,-30,364,-4825,22,-44,-21,16
361,-7576,3,333,-4824,22,-44,-22,16
362,-7579,-10,350,-4815,22,-44,-20,16
363,-7599,-45,369,-4817,22,-46,-20,19
364,-7568,16,408,-4824,22,-42,-20,15
365,-7557,9,433,-4836,22,-44,-20,16
366,-7584,-27,393,-4834,22,-45,-21,16
367,-7579,-15,371,-4819,22,-44,-21,18
368,-7572,-17,367,-4825,22,-42,-20,18
369,-7564,24,387,-4827,22,-44,-18,15
370,-7570,-3,310,-4824,22,-45,-21,18
371,-7552,-33,380,-4829,22,-41,-21,18
372,-7576,-9,399,-4810,22,-45,-21,14
373,-7594,7,354,-4818,22,-43,-19,15
374,-7581,-20,375,-4819,22,-43,-20,16
375,-7575,-7,384,-4813,22,-45,-20,16
376,-7565,-15,440,-4831,22,-43,-19,16
377,-7582,10,324,-4814,22,-46,-19,16
378,-7606,21,365,-4825,22,-42,-20,17
379,-7576,-14,349,-4829,22,-45,-19,15
380,-7586,28,407,-4822,22,-43,-21,16
381,-7545,-27,379,-4820,22,-44,-21,16
382,-7587,-10,404,-4806,22,-43,-18,18
383,-7597,6,328,-4813,22,-42,-22,17
384,-7628,15,372,-4814,22,-43,-17,17
385,-7582,-30,323,-4817,22,-43,-20,18
386,-7611,-10,388,-4815,22,-43,-18,17
387,-7567,33,370,-4822,22,-43,-19,16
388,-7571,1,338,-4826,22,-46,-21,15
389,-7612,-12,382,-4807,22,-43,-21,17
390,-7591,5,363,-4814,22,-43,-16,17
391,-7601,15,336,-4818,22,-42,-20,16
392,-7605,3,344,-4822,22,-42,-19,18
393,-7548,2,348,-4834,22,-42,-19,17
394,-7541,19,379,-4827,22,-41,-22,17
395,-7558,37,393,-4800,22,-42,-22,18
396,-7596,-1,338,-4836,22,-43,-19,17
397,-7552,5,346,-4825,22,-44,-20,15
398,-7593,2,347,-4804,22,-43,-19,18
399,-7601,-25,376,-4832,22,-45,-22,17
400,-7592,-50,376,-4811,22,-45,-19,17
401,-7525,8,422,-4810,22,-44,-18,19
402,-7547,-4,328,-4823,22,-45,-19,17
403,-7581,-33,395,-4823,22,-41,-21,18
404,-7541,15,377,-4822,22,-44,-19,15
405,-7556,16,346,-4826,22,-41,-19,17
406,-7581,27,360,-4807,22,-42,-21,16
407,-7566,2,350,-4807,22,-42,-18,17
408,-7571,-33,348,-4814,22,-43,-21,17
409,-7609,-35,354,-4825,22,-44,-18,17
410,-7576,-5,403,-4821,22,-44,-20,19
411,-7582,28,349,-4820,22,-42,-20,17
412,-7571,23,343,-4816,22,-43,-21,16
413,-7559,-61,398,-4815,22,-42,-20,19
414,-7561,-6,361,-4818,22,-44,-21,16
415,-7570,-17,321,-4818,22,-45,-18,17
416,-7585,11,414,-4806,22,-42,-22,15
417,-7573,19,351,-4821,22,-45,-19,17
418,-7557,-12,416,-4811,22,-46,-20,17
419,-7553,3,347,-4827,22,-44,-19,17
420,-7593,-12,384,-4817,22,-43,-19,16
421,-7575,-43,349,-4814,22,-44,-21,17
422,-7595,7,425,-4808,22,-43,-21,18
423,-7583,-2,389,-4818,22,-44,-19,16
424,-7579,36,388,-4810,22,-41,-21,17
425,-7603,0,358,-4816,22,-44,-19,17
426,-7559,43,338,-4819,22,-44,-19,18
427,-7563,-10,380,-4820,22,-43,-18,16
428,-7610,-2,352,-4816,22,-44,-21,17
429,-7557,-36,447,-4819,22,-44,-21,16
430,-7569,-1,419,-4816,22,-44,-20,15
431,-7567,3,376,-4811,22,-42,-19,17
432,-7537,-27,368,-4804,22,-46,-20,16
433,-7557,-29,374,-4816,22,-43,-19,18
434,-7577,-23,415,-4815,22,-43,-19,18
435,-7587,18,388,-4814,22,-44,-19,15
436,-7567,-5,370,-4821,22,-45,-21,17
437,-7601,3,404,-4807,22,-41,-20,18
438,-7585,-15,339,-4808,22,-43,-19,17
439,-7594,-32,391,-4810,22,-41,-20,17
440,-7571,-2,396,-4807,22,-44,-17,16
441,-7564,10,424,-4816,22,-44,-19,16
442,-7595,5,343,-4816,22,-44,-20,16
443,-7566,-5,359,-4806,22,-44,-19,17
444,-7564,45,389,-4821,22,-44,-19,18
445,-7551,-21,367,-4817,22,-44,-18,16
446,-7566,19,373,-4815,22,-42,-18,17
447,-7585,-26,326,-4821,22,-43,-21,16
448,-7536,18,332,-4814,22,-43,-20,17
449,-7548,-29,367,-4820,22,-44,-18,17
450,-7602,-33,363,-4827,22,-43,-20,17
451,-7581,-15,373,-4812,22,-44,-20,17
452,-7566,-23,389,-4818,22,-44,-21,16
453,-7561,4,359,-4824,22,-43,-20,16
454,-7560,-2,377,-4820,22,-41,-22,17
455,-7594,5,380,-4811,22,-42,-19,18
456,-7557,-4,363,-4816,22,-45,-22,18
457,-7573,-25,352,-4794,22,-45,-19,14
458,-7581,-21,392,-4806,22,-44,-20,19
459,-7592,48,369,-4815,22,-44,-21,18
460,-7578,12,368,-4800,22,-44,-19,16
461,-7587,-1,363,-4816,22,-41,-21,17
462,-7585,15,361,-4827,22,-42,-21,17
463,-7574,11,358,-4815,22,-44,-18,16
464,-7563,3,373,-4817,22,-44,-19,17
465,-7567,-10,341,-4817,22,-45,-18,16
466,-7581,-4,373,-4809,22,-43,-19,17
467,-7572,-28,396,-4809,22,-42,-20,16
468,-7550,0,347,-4817,22,-43,-21,17
469,-7585,-23,329,-4802,22,-41,-20,16
470,-7548,34,364,-4820,22,-44,-18,17
471,-7548,6,358,-4843,22,-44,-20,15
472,-7580,-15,333,-4825,22,-43,-19,18
473,-7596,31,380,-4810,22,-43,-20,14
474,-7561,-14,394,-4821,22,-43,-20,16
475,-7581,55,409,-4801,22,-43,-19,17
476,-7593,-27,320,-4821,22,-41,-18,18
477,-7549,-9,321,-4814,22,-44,-19,17
478,-7577,-10,395,-4803,22,-45,-20,17
479,-7576,19,374,-4800,22,-44,-20,19
480,-7597,-33,372,-4810,22,-42,-18,19
481,-7608,10,361,-4811,22,-43,-23,19
482,-7573,-9,350,-4808,22,-44,-19,16
483,-7597,-2,367,-4816,22,-45,-20,17
484,-7588,-9,372,-4806,22,-43,-21,19
485,-7561,-7,362,-4806,22,-44,-20,16
486,-7554,-13,377,-4818,22,-43,-21,17
487,-7611,-23,404,-4810,22,-43,-20,16
488,-7560,14,339,-4808,22,-44,-21,17
489,-7589,20,374,-4806,22,-44,-19,17
490,-7547,10,320,-4816,22,-44,-19,18
491,-7574,-43,346,-4810,22,-43,-18,17
492,-7541,-2,363,-4817,22,-44,-18,17
493,-7589,22,325,-4820,22,-44,-18,16
494,-7598,-14,426,-4809,22,-42,-20,17
495,-7552,-3,415,-4816,22,-43,-21,16
496,-7565,-20,386,-4814,22,-43,-18,17
497,-7592,-36,403,-4805,22,-43,-19,19
498,-7572,-6,356,-4817,22,-43,-20,18
499,-7561,8,386,-4814,22,-43,-17,18
500,-7569,23,409,-4811,22,-43,-21,17
501,-7602,1,340,-4812,22,-46,-20,18
502,-7581,6,390,-4813,22,-42,-22,18
503,-7548,-17,409,-4808,22,-42,-20,18
504,-7613,14,384,-4817,22,-44,-16,19
505,-7565,11,386,-4809,22,-42,-20,17
506,-7570,2,432,-4814,22,-44,-20,17
507,-7542,20,403,-4796,22,-45,-21,17
508,-7582,-18,346,-4808,22,-43,-18,18
509,-7551,10,393,-4806,22,-43,-22,16
510,-7583,-5,415,-4823,22,-43,-18,16
511,-7592,31,382,-4834,22,-44,-19,19
512,-7590,26,348,-4809,22,-44,-21,18
513,-7622,-8,329,-4814,22,-44,-18,17
514,-7582,-8,337,-4813,22,-45,-22,18
515,-7567,-18,337,-4806,22,-44,-19,18
516,-7560,-11,365,-4810,22,-46,-21,18
517,-7577,-25,353,-4798,22,-44,-22,18
518,-7575,-24,330,-4799,22,-43,-19,16
519,-7562,-19,437,-4807,22,-43,-20,17
520,-7580,-29,403,-4809,22,-45,-16,17
521,-7591,-33,386,-4812,22,-43,-19,17
522,-7569,-2,364,-4796,22,-44,-20,16
523,-7572,-17,356,-4799,22,-44,-20,18
524,-7588,10,376,-4819,22,-43,-19,16
525,-7584,-25,346,-4811,22,-43,-21,18
526,-7555,26,353,-4804,22,-42,-19,16
527,-7561,-17,363,-4806,22,-42,-19,17
528,-7584,-5,381,-4805,22,-44,-19,18
529,-7579,-6,437,-4807,22,-45,-20,18
530,-7588,34,405,-4803,22,-43,-20,16
531,-7580,13,358,-4802,22,-47,-20,16
532,-7550,5,374,-4800,22,-44,-19,18
533,-7584,10,375,-4813,22,-42,-19,17
534,-7561,-31,432,-4817,22,-44,-20,18
535,-7626,-20,349,-4809,22,-44,-20,17
536,-7582,9,383,-4798,22,-44,-21,15
537,-7626,-12,383,-4818,22,-44,-19,17
538,-7581,-23,394,-4804,22,-43,-21,16
539,-7564,-26,361,-4803,22,-41,-19,17
540,-7564,19,348,-4804,22,-43,-17,18
541,-7551,-9,433,-4822,22,-42,-20,18
542,-7554,2,358,-4815,22,-45,-16,15
543,-7563,-21,359,-4801,22,-44,-21,15
544,-7564,-3,357,-4813,22,-44,-18,17
545,-7540,-40,400,-4825,22,-41,-19,17
546,-7564,10,343,-4799,22,-43,-18,17
547,-7575,-23,334,-4809,22,-44,-20,17
548,-7561,-12,319,-4816,22,-45,-19,17
549,-7594,-19,419,-4814,22,-44,-21,17
550,-7577,27,402,-4814,22,-43,-19,18
551,-7573,-13,367,-4805,22,-42,-20,16
552,-7599,25,347,-4802,22,-44,-19,16
553,-7606,-1,311,-4824,22,-45,-19,17
554,-7553,20,377,-4810,22,-43,-20,16
555,-7563,-40,410,-4795,22,-43,-20,17
556,-7570,-20,342,-4798,22,-45,-20,17
557,-7566,-34,371,-4813,22,-43,-21,16
558,-7588,-16,435,-4807,22,-46,-20,17
559,-7565,4,385,-4801,22,-43,-21,18
560,-7630,-11,394,-4796,22,-44,-17,18
561,-7577,-5,339,-4809,22,-41,-20,15
562,-7560,-9,437,-4805,22,-42,-17,15
563,-7566,-2,387,-4809,22,-42,-19,17
564,-7603,-43,387,-4803,22,-41,-18,19
565,-7525,-21,350,-4817,22,-43,-18,18
566,-7589,10,399,-4809,22,-44,-22,17
567,-7548,-51,381,-4807,22,-41,-19,17
568,-7605,-40,437,-4802,22,-44,-21,16
569,-7599,4,310,-4797,22,-43,-19,17
570,-7552,29,432,-4802,22,-42,-22,13
571,-7599,-26,400,-4812,22,-45,-19,16
572,-7560,-16,351,-4805,22,-43,-18,15
573,-7560,-32,396,-4813,22,-42,-19,15
574,-7555,-23,383,-4808,22,-43,-21,17
575,-7559,-20,383,-4810,22,-43,-19,17
576,-7564,-30,351,-4807,22,-43,-20,16
577,-7544,27,343,-4807,22,-42,-21,17
578,-7577,-26,400,-4811,22,-42,-19,18
579,-7607,-5,346,-4806,22,-44,-19,17
580,-7557,-9,370,-4803,22,-45,-18,16
581,-7573,-7,387,-4804,22,-43,-18,16
582,-7604,14,399,-4810,22,-44,-20,17
583,-7582,-8,357,-4808,22,-44,-20,19
584,-7551,7,373,-4801,22,-43,-19,16
585,-7605,-24,358,-4815,22,-44,-20,17
586,-7599,-8,366,-4792,22,-43,-17,16
587,-7583,-48,410,-4809,22,-45,-20,18
588,-7584,-6,378,-4800,22,-45,-20,16
589,-7582,13,392,-4791,22,-43,-18,16
590,-7561,-23,400,-4796,22,-43,-20,17
591,-7561,-14,365,-4811,22,-45,-20,19
592,-7543,19,410,-4815,22,-42,-18,16
593,-7546,-25,377,-4819,22,-42,-18,16
594,-7580,5,403,-4803,22,-45,-20,16
595,-7577,-37,348,-4798,22,-43,-21,16
596,-7579,30,362,-4802,22,-43,-20,17
597,-7588,23,407,-4804,22,-44,-19,16
598,-7579,23,323,-4806,22,-43,-19,18
599,-7594,-13,391,-4796,22,-41,-20,16
600,-7557,-35,367,-4807,22,-45,-19,17
601,-7574,-7,378,-4812,22,-47,-18,17
602,-7595,-31,398,-4802,22,-45,-20,17
603,-7599,-43,337,-4795,22,-43,-22,15
604,-7554,-8,351,-4803,22,-43,-21,16
605,-7577,25,425,-4788,22,-45,-19,17
606,-7589,-26,406,-4798,22,-44,-21,17
607,-7570,-21,372,-4807,22,-42,-21,18
608,-7585,-13,357,-4802,22,-42,-20,16
609,-7595,1,372,-4792,22,-44,-19,17
610,-7580,-29,332,-4801,22,-45,-21,17
611,-7563,-19,385,-4814,22,-45,-18,15
612,-7562,19,352,-4799,22,-45,-20,18
613,-7628,-31,337,-4801,22,-42,-19,17
614,-7621,-7,367,-4816,22,-42,-21,16
615,-7594,-2,299,-4804,22,-42,-19,18
616,-7590,-6,360,-4809,22,-45,-21,16
617,-7573,-15,366,-4813,22,-41,-21,18
618,-7571,-7,375,-4805,22,-41,-22,16
619,-7573,49,381,-4810,22,-43,-20,16
620,-7572,16,369,-4809,22,-44,-19,16
621,-7596,-11,395,-4793,22,-43,-19,17
622,-7615,6,369,-4802,22,-44,-21,17
623,-7538,-9,399,-4800,22,-45,-18,15
624,-7606,-26,348,-4794,22,-42,-20,16
625,-7591,-29,367,-4801,22,-42,-21,16
626,-7547,17,395,-4809,22,-46,-19,19
627,-7608,5,341,-4798,22,-42,-18,17
628,-7585,-13,409,-4809,22,-44,-18,17
629,-7565,-7,348,-4798,22,-42,-20,17
630,-7536,-24,418,-4814,22,-42,-20,16
631,-7582,20,348,-4810,22,-43,-20,18
632,-7602,-27,408,-4799,22,-41,-22,17
633,-7581,6,322,-4813,22,-44,-19,16
634,-7547,-17,377,-4799,22,-43,-19,18
635,-7594,-28,373,-4796,22,-44,-20,16
636,-7581,-46,352,-4798,22,-43,-21,17
637,-7584,11,322,-4795,22,-44,-20,16
638,-7584,-29,374,-4798,22,-44,-19,15
639,-7572,-40,348,-4807,22,-43,-20,18
640,-7548,-4,388,-4796,22,-44,-20,16
641,-7607,-5,369,-4791,22,-44,-22,18
642,-7589,-9,414,-4803,22,-44,-20,17
643,-7609,10,350,-4801,22,-40,-19,18
644,-7566,15,352,-4816,22,-44,-19,16
645,-7580,-22,346,-4815,22,-44,-21,14
646,-7545,10,391,-4807,22,-44,-20,16
647,-7569,5,309,-4792,22,-45,-21,18
648,-7566,-8,380,-4811,22,-42,-21,17
649,-7590,-49,354,-4811,22,-44,-20,18
650,-7573,3,373,-4789,22,-43,-21,17
651,-7556,-14,366,-4807,22,-43,-18,16
652,-7578,-7,451,-4807,22,-42,-21,14
653,-7585,-13,357,-4796,22,-43,-19,18
654,-7598,-28,365,-4796,22,-42,-19,17
655,-7584,-15,404,-4796,22,-43,-20,16
656,-7561,-30,362,-4818,22,-43,-20,17
657,-7567,7,360,-4799,22,-44,-19,17
658,-7594,-24,357,-4810,22,-42,-22,15
659,-7588,-4,358,-4811,22,-45,-19,18
660,-7590,-31,374,-4801,22,-43,-20,17
661,-7595,10,383,-4799,22,-44,-18,16
662,-7589,16,353,-4791,22,-43,-19,17
663,-7602,-17,306,-4808,22,-42,-18,17
664,-7588,-21,364,-4812,22,-42,-18,18
665,-7593,24,454,-4802,22,-44,-18,15
666,-7603,15,368,-4805,22,-43,-20,18
667,-7610,-14,319,-4801,22,-41,-19,18
668,-7585,5,365,-4803,22,-44,-20,18
669,-7586,-10,377,-4799,22,-41,-18,17
670,-7547,-15,320,-4803,22,-43,-19,15
671,-7556,36,341,-4798,22,-44,-19,18
672,-7581,-30,407,-4802,22,-44,-19,17
673,-7565,0,380,-4797,22,-47,-19,15
674,-7610,29,399,-4802,22,-42,-20,18
675,-7568,11,418,-4797,22,-42,-19,17
676,-7568,-34,408,-4801,22,-43,-21,17
677,-7578,-20,393,-4799,22,-46,-19,17
678,-7609,-17,365,-4801,22,-44,-22,18
679,-7557,-28,354,-4804,22,-43,-21,17
680,-7589,0,344,-4810,22,-45,-19,18
681,-7603,-30,409,-4807,22,-41,-20,17
682,-7567,7,309,-4794,22,-42,-20,16
683,-7574,6,378,-4804,22,-43,-19,18
684,-7586,16,325,-4796,22,-44,-21,18
685,-7565,-7,399,-4811,22,-45,-21,17
686,-7600,1,320,-4796,22,-44,-20,17
687,-7563,0,406,-4793,22,-44,-20,17
688,-7585,-15,370,-4810,22,-42,-19,16
689,-7555,7,380,-4809,22,-43,-21,17
690,-7561,25,351,-4806,22,-45,-20,18
691,-7589,8,346,-4789,22,-44,-20,20
692,-7562,-19,352,-4798,22,-44,-20,17
693,-7610,-11,367,-4803,22,-45,-20,15
694,-7596,-14,414,-4792,22,-44,-19,18
695,-7575,24,338,-4790,22,-43,-19,15
696,-7590,-14,348,-4805,22,-43,-20,15
697,-7593,-28,372,-4800,22,-44,-21,16
698,-7588,-38,353,-4796,22,-42,-17,16
699,-7607,7,353,-4801,22,-43,-19,16
700,-7615,-7,359,-4794,22,-42,-22,16
701,-7583,5,404,-4797,22,-44,-17,17
702,-7606,-1,387,-4796,22,-45,-19,18
703,-7571,6,382,-4800,22,-42,-19,15
704,-7540,-7,368,-4795,22,-40,-17,17
705,-7549,12,324,-4798,22,-44,-19,19
706,-7578,-32,411,-4803,22,-41,-21,18
707,-7573,-16,366,-4796,22,-43,-19,15
708,-7581,-28,396,-4790,22,-43,-19,16
709,-7593,43,374,-4805,22,-43,-19,17
710,-7562,-1,376,-4777,22,-45,-18,15
711,-7573,35,389,-4803,22,-46,-20,19
712,-7581,-45,369,-4802,22,-43,-20,17
713,-7551,30,385,-4796,22,-43,-20,18
714,-7589,11,366,-4802,22,-45,-19,16
715,-7600,6,368,-4797,22,-44,-21,17
716,-7575,-37,363,-4791,22,-42,-20,16
717,-7589,31,341,-4809,22,-43,-21,18
718,-7555,15,412,-4801,22,-44,-20,18
719,-7582,-32,388,-4799,22,-43,-19,16
720,-7543,-13,395,-4805,22,-43,-21,17
721,-7578,15,436,-4812,22,-44,-23,17
722,-7579,-8,355,-4799,22,-44,-19,17
723,-7588,34,410,-4808,22,-43,-18,16
724,-7561,-29,331,-4800,22,-43,-21,15
725,-7567,-34,326,-4793,22,-46,-19,19
726,-7558,-17,350,-4799,22,-42,-19,18
727,-7576,-41,385,-4796,22,-43,-19,17
728,-7616,23,378,-4803,22,-45,-20,16
729,-7549,-15,346,-4787,22,-46,-21,19
730,-7573,-14,359,-4803,22,-43,-20,17
731,-7594,-15,367,-4805,22,-45,-19,18
732,-7605,2,378,-4792,22,-45,-19,18
733,-7571,-35,372,-4792,22,-42,-19,16
734,-7609,10,374,-4803,22,-42,-20,17
735,-7542,19,392,-4792,22,-44,-21,18
736,-7600,-28,365,-4788,22,-43,-20,18
737,-7546,11,405,-4797,22,-45,-21,17
738,-7550,3,384,-4799,22,-43,-18,17
739,-7575,-10,311,-4797,22,-44,-20,18
740,-7587,-38,388,-4777,22,-44,-22,16
741,-7601,-43,375,-4805,22,-44,-21,16
742,-7598,-9,305,-4798,22,-43,-19,17
743,-7562,26,374,-4789,22,-43,-19,15
744,-7606,-8,393,-4798,22,-45,-20,17
745,-7612,-5,436,-4795,22,-45,-21,18
746,-7599,-1,374,-4787,22,-44,-19,17
747,-7557,-35,363,-4798,22,-45,-22,16
748,-7570,-6,372,-4797,22,-43,-20,17
749,-7556,12,430,-4801,22,-43,-19,19
750,-7560,-16,327,-4810,22,-43,-18,16
751,-7565,-20,382,-4817,22,-44,-19,18
752,-7608,1,362,-4791,22,-44,-20,16
753,-7568,-7,341,-4806,22,-45,-19,17
754,-7591,0,356,-4794,22,-45,-20,17
755,-7575,-27,393,-4806,22,-45,-20,18
756,-7584,-14,402,-4785,22,-44,-21,18
757,-7559,1,307,-4789,22,-46,-21,19
758,-7596,26,368,-4779,22,-42,-21,18
759,-7611,18,372,-4797,22,-43,-17,17
760,-7592,22,439,-4792,22,-44,-21,16
761,-7589,4,397,-4799,22,-42,-21,16
762,-7566,-4,420,-4788,22,-44,-21,18
763,-7540,39,392,-4792,22,-43,-20,16
764,-7572,-8,371,-4784,22,-44,-18,16
765,-7557,11,303,-4788,22,-43,-18,18
766,-7628,5,384,-4802,22,-44,-20,18
767,-7592,-27,348,-4795,22,-43,-21,17
768,-7577,-11,371,-4794,22,-43,-18,17
769,-7601,-36,396,-4801,22,-43,-21,18
770,-7575,-1,344,-4801,22,-43,-21,17
771,-7594,6,393,-4783,22,-42,-19,18
772,-7575,36,391,-4795,22,-43,-20,15
773,-7589,-1,391,-4788,22,-45,-20,17
774,-7555,-1,342,-4799,22,-44,-19,17
775,-7571,25,405,-4799,22,-42,-22,16
776,-7585,-22,414,-4796,22,-43,-21,15
777,-7570,7,381,-4795,22,-44,-17,15
778,-7602,-2,387,-4797,22,-43,-19,20
779,-7572,-5,313,-4783,22,-43,-20,17
780,-7586,-43,397,-4796,22,-43,-20,16
781,-7587,4,383,-4785,22,-43,-21,16
782,-7603,-5,392,-4785,22,-46,-18,18
783,-7573,-28,355,-4790,22,-42,-18,19
784,-7593,-3,348,-4808,22,-42,-19,17
785,-7566,-11,381,-4803,22,-44,-21,17
786,-7548,-35,408,-4784,22,-45,-19,17
787,-7612,-12,343,-4799,22,-45,-18,18
788,-7581,-36,340,-4774,22,-44,-20,18
789,-7564,7,408,-4804,22,-44,-19,17
790,-7553,-20,355,-4788,22,-44,-21,16
791,-7556,-12,369,-4792,22,-43,-19,17
792,-7614,-17,373,-4805,22,-45,-18,20
793,-7545,-17,381,-4809,22,-45,-19,16
794,-7605,50,361,-4789,22,-43,-20,17
795,-7601,57,374,-4809,22,-43,-19,19
796,-7575,-10,423,-4800,22,-44,-19,16
797,-7597,-57,324,-4808,22,-42,-21,16
798,-7604,-33,361,-4793,22,-43,-19,17
799,-7609,8,445,-4803,22,-43,-20,15
800,-7589,-2,373,-4805,22,-43,-19,17
801,-7580,-13,392,-4800,22,-47,-20,16
802,-7591,-36,350,-4806,22,-44,-22,18
803,-7563,-4,366,-4793,22,-43,-18,15
804,-7562,-6,390,-4792,22,-43,-18,17
805,-7590,40,306,-4793,22,-46,-21,17
806,-7578,29,396,-4796,22,-44,-20,16
807,-7581,-7,336,-4807,22,-44,-20,18
808,-7544,-1,368,-4786,22,-44,-19,16
809,-7576,14,329,-4790,22,-45,-19,16
810,-7582,-66,332,-4793,22,-42,-21,17
811,-7606,-20,343,-4784,22,-46,-19,19
812,-7553,-11,387,-4795,22,-43,-18,18
813,-7578,-20,401,-4792,22,-43,-19,16
814,-7568,-3,392,-4798,22,-42,-18,15
815,-7561,35,373,-4797,22,-45,-19,16
816,-7592,-39,294,-4796,22,-42,-21,17
817,-7571,49,355,-4792,22,-44,-17,17
818,-7581,-18,364,-4804,22,-44,-20,16
819,-7599,-14,364,-4801,22,-43,-18,19
820,-7610,4,365,-4795,22,-44,-18,17
821,-7582,-15,383,-4802,22,-44,-20,16
822,-7542,-6,370,-4786,22,-42,-20,17
823,-7550,-14,412,-4804,22,-44,-22,18
824,-7588,-3,335,-4792,22,-42,-19,16
825,-7584,23,379,-4797,22,-42,-20,19
826,-7567,-8,364,-4797,22,-42,-20,18
827,-7601,-12,441,-4790,22,-45,-18,18
828,-7549,-40,366,-4798,22,-40,-20,17
829,-7566,34,374,-4783,22,-43,-22,16
830,-7591,-33,360,-4795,22,-45,-18,19
831,-7618,-10,389,-4786,22,-43,-20,17
832,-7548,-6,389,-4790,22,-44,-21,16
833,-7525,-24,425,-4788,22,-45,-20,15
834,-7565,-1,345,-4788,22,-44,-20,17
835,-7548,-15,425,-4797,22,-44,-20,16
836,-7586,-15,323,-4789,22,-43,-20,16
837,-7595,-33,407,-4788,22,-43,-18,17
838,-7611,-33,350,-4783,22,-43,-20,17
839,-7551,5,316,-4803,22,-43,-18,18
840,-7612,-37,357,-4803,22,-44,-20,16
841,-7604,-27,349,-4785,22,-43,-19,17
842,-7597,1,329,-4793,22,-44,-20,17
843,-7589,-6,328,-4807,22,-43,-20,17
844,-7578,-26,388,-4789,22,-44,-18,15
845,-7563,-39,429,-4779,22,-43,-19,18
846,-7571,11,377,-4794,22,-46,-18,15
847,-7575,25,367,-4791,22,-44,-20,17
848,-7561,-37,360,-4776,22,-44,-19,16
849,-7542,14,390,-4785,22,-45,-20,18
850,-7594,4,351,-4792,22,-44,-21,17
851,-7589,-13,385,-4800,22,-42,-18,18
852,-7585,-4,424,-4796,22,-45,-20,17
853,-7563,-6,394,-4790,22,-44,-21,17
854,-7589,1,372,-4790,22,-45,-21,16
855,-7563,-17,435,-4802,22,-44,-18,17
856,-7592,19,350,-4796,22,-42,-22,18
857,-7602,-9,401,-4793,22,-43,-19,17
858,-7573,37,388,-4786,22,-45,-19,16
859,-7556,13,363,-4781,22,-44,-19,16
860,-7579,-15,427,-4780,22,-43,-22,15
861,-7577,-8,354,-4791,22,-43,-19,16
862,-7558,2,333,-4790,22,-44,-21,16
863,-7618,6,374,-4777,22,-44,-19,18
864,-7556,20,378,-4794,22,-44,-18,16
865,-7564,14,357,-4786,22,-45,-20,16
866,-7575,-29,420,-4786,22,-42,-22,18
867,-7575,-27,410,-4785,22,-42,-18,18
868,-7574,-14,362,-4806,22,-45,-16,17
869,-7612,-4,340,-4793,22,-46,-21,16
870,-7590,10,417,-4792,22,-45,-22,16
871,-7545,-24,381,-4786,22,-45,-18,17
872,-7577,-1,398,-4792,22,-43,-19,18
873,-7528,-7,362,-4800,22,-45,-18,18
874,-7573,32,398,-4788,22,-43,-19,18
875,-7553,7,405,-4781,22,-45,-18,19
876,-7530,34,415,-4791,22,-44,-19,16
877,-7556,-23,344,-4812,22,-43,-20,18
878,-7529,19,393,-4789,22,-44,-20,19
879,-7577,-39,367,-4814,22,-42,-21,17
880,-7551,3,390,-4798,22,-43,-19,16
881,-7581,1,397,-4778,22,-43,-20,20
882,-7585,-15,345,-4806,22,-45,-19,18
883,-7568,-36,450,-4800,22,-43,-20,18
884,-7564,-56,376,-4806,22,-44,-21,16
885,-7563,-1,385,-4795,22,-42,-22,17
886,-7549,-21,389,-4787,22,-42,-19,19
887,-7594,-13,398,-4775,22,-45,-21,18
888,-7555,17,405,-4799,22,-44,-20,15
889,-7622,-2,334,-4783,22,-45,-20,17
890,-7596,-35,365,-4785,22,-45,-18,15
891,-7569,-15,367,-4789,22,-43,-18,17
892,-7566,3,404,-4794,22,-44,-18,15
893,-7585,6,376,-4793,22,-45,-19,14
894,-7577,-39,361,-4799,22,-44,-19,15
895,-7585,11,399,-4785,22,-44,-18,19
896,-7639,5,363,-4791,22,-43,-18,18
897,-7571,16,389,-4775,22,-44,-19,17
898,-7551,9,361,-4810,22,-43,-21,18
899,-7602,-11,376,-4768,22,-45,-19,16
900,-7599,11,333,-4785,22,-44,-20,16
901,-7582,-14,349,-4796,22,-42,-19,17
902,-7572,3,402,-4772,22,-43,-21,19
903,-7608,-22,399,-4792,22,-43,-20,17
904,-7594,-36,331,-4797,22,-41,-21,19
905,-7587,-20,373,-4799,22,-42,-20,17
906,-7583,1,425,-4784,22,-43,-20,18
907,-7577,21,369,-4778,22,-43,-19,18
908,-7571,-9,402,-4793,22,-42,-20,18
909,-7580,-1,398,-4799,22,-44,-20,18
910,-7561,-15,346,-4785,22,-44,-21,17
911,-7586,-21,363,-4789,22,-46,-20,15
912,-7607,-7,399,-4797,22,-43,-19,17
913,-7601,-19,337,-4801,22,-44,-20,15
914,-7548,10,359,-4788,22,-45,-20,18
915,-7573,20,322,-4784,22,-45,-22,18
916,-7563,-10,381,-4793,22,-45,-22,16
917,-7592,26,376,-4784,22,-45,-20,19
918,-7577,32,409,-4791,22,-44,-20,18
919,-7567,15,367,-4773,22,-42,-19,14
920,-7568,-11,364,-4786,22,-45,-19,17
921,-7556,-6,366,-4794,22,-44,-20,17
922,-7577,4,402,-4791,22,-46,-18,18
923,-7577,34,430,-4797,22,-45,-19,17
924,-7568,-5,326,-4800,22,-42,-19,17
925,-7594,-16,357,-4812,22,-43,-20,17
926,-7598,18,386,-4799,22,-43,-19,17
927,-7587,-56,347,-4805,22,-44,-17,17
928,-7564,-3,410,-4780,22,-45,-20,17
929,-7589,2,372,-4789,22,-44,-21,18
930,-7593,14,393,-4795,22,-43,-20,15
931,-7553,1,419,-4791,22,-43,-19,17
932,-7561,1,412,-4792,22,-46,-20,16
933,-7586,-26,312,-4787,22,-43,-18,17
934,-7570,34,368,-4790,22,-43,-17,15
935,-7582,-33,380,-4791,22,-42,-20,17
936,-7571,-3,393,-4792,22,-43,-21,15
937,-7614,18,393,-4787,22,-42,-22,18
938,-7560,38,399,-4795,22,-44,-22,16
939,-7546,-14,373,-4781,22,-46,-20,17
940,-7557,-19,379,-4786,22,-45,-19,16
941,-7535,-23,281,-4790,22,-44,-19,19
942,-7579,9,368,-4789,22,-43,-21,15
943,-7568,-20,410,-4803,22,-45,-19,16
944,-7555,35,414,-4794,22,-43,-18,18
945,-7576,-8,412,-4798,22,-46,-20,19
946,-7583,-41,410,-4787,22,-44,-19,16
947,-7553,-32,362,-4784,22,-42,-18,15
948,-7596,-29,421,-4774,22,-45,-20,17
949,-7620,38,355,-4805,22,-44,-20,16
950,-7552,5,366,-4787,22,-43,-18,18
951,-7616,6,351,-4778,22,-44,-21,15
952,-7638,-22,388,-4790,22,-44,-21,18
953,-7600,-4,419,-4793,22,-45,-20,19
954,-7558,-16,416,-4775,22,-44,-18,18
955,-7572,-9,357,-4780,22,-46,-18,16
956,-7620,26,369,-4801,22,-44,-18,17
957,-7580,-2,396,-4789,22,-43,-22,19
958,-7570,-1,315,-4788,22,-44,-20,16
959,-7577,10,375,-4797,22,-45,-16,19
960,-7540,-14,412,-4778,22,-45,-20,19
961,-7604,12,410,-4783,22,-44,-17,18
962,-7572,-31,326,-4787,22,-42,-20,17
963,-7554,11,390,-4793,22,-45,-19,18
964,-7564,-17,414,-4795,22,-44,-21,18
965,-7601,-5,403,-4791,22,-45,-17,18
966,-7587,12,381,-4793,22,-44,-19,18
967,-7551,-22,318,-4786,22,-43,-21,18
968,-7561,-13,347,-4786,22,-44,-19,19
969,-7562,10,332,-4785,22,-44,-21,16
970,-7591,0,339,-4788,22,-45,-21,16
971,-7592,-11,369,-4786,22,-43,-19,14
972,-7573,-19,343,-4799,22,-45,-21,15
973,-7550,-40,407,-4803,22,-43,-20,19
974,-7573,-15,339,-4785,22,-44,-19,17
975,-7615,-15,382,-4788,22,-42,-21,17
976,-7578,14,390,-4787,22,-44,-18,19
977,-7587,36,357,-4800,22,-43,-20,17
978,-7563,-15,390,-4796,22,-44,-20,17
979,-7586,-7,348,-4792,22,-45,-17,16
980,-7558,1,357,-4791,22,-44,-19,17
981,-7592,-11,379,-4792,22,-45,-18,18
982,-7560,-38,454,-4797,22,-45,-19,15
983,-7577,-17,424,-4787,22,-43,-20,18
984,-7588,-52,409,-4780,22,-45,-19,17
985,-7563,-20,404,-4792,22,-42,-20,17
986,-7597,-3,397,-4781,22,-43,-21,16
987,-7593,-9,391,-4778,22,-44,-19,17
988,-7600,36,359,-4788,22,-43,-19,18
989,-7564,-15,421,-4785,22,-42,-20,17
990,-7574,-2,363,-4780,22,-45,-20,17
991,-7562,-3,337,-4786,22,-44,-17,16
992,-7569,-41,370,-4797,22,-41,-18,17
993,-7555,-37,378,-4799,22,-41,-17,17
994,-7591,-5,415,-4784,22,-44,-21,16
995,-7593,13,350,-4782,22,-43,-18,16
