,acc_X,acc_Y,acc_Z,temp,tempC,gyr_X,gyr_Y,gyr_Z
0,-15126,-30,722,-4717,23,-175,-76,71
1,-15176,26,706,-4714,23,-173,-74,69
2,-15142,-26,752,-4714,23,-173,-75,72
3,-15166,8,718,-4712,23,-170,-78,73
4,-15112,18,734,-4712,23,-171,-74,72
5,-15140,-46,780,-4706,23,-167,-73,68
6,-15162,-40,744,-4703,23,-171,-71,71
7,-15138,-14,736,-4701,23,-172,-74,74
8,-15190,-20,808,-4709,23,-171,-70,72
9,-15174,-28,736,-4709,23,-174,-72,70
10,-15138,-30,766,-4718,23,-175,-70,68
11,-15182,-4,796,-4706,23,-173,-76,73
12,-15166,-18,752,-4699,23,-174,-76,69
13,-15160,4,772,-4721,23,-178,-78,70
14,-15168,-4,738,-4712,23,-171,-75,71
15,-15188,-4,808,-4714,23,-173,-75,67
16,-15160,2,806,-4703,23,-173,-78,69
17,-15202,12,794,-4715,23,-171,-80,72
18,-15130,-2,764,-4712,23,-176,-78,72
19,-15192,16,754,-4712,23,-177,-78,72
20,-15218,-8,698,-4717,23,-175,-78,67
21,-15158,-64,626,-4712,23,-176,-79,69
22,-15150,-10,756,-4713,23,-178,-78,72
23,-15176,12,666,-4715,23,-174,-76,67
24,-15148,-38,766,-4699,23,-171,-76,65
25,-15158,16,730,-4710,23,-168,-77,71
26,-15182,6,784,-4707,23,-178,-75,66
27,-15174,10,740,-4709,23,-172,-76,66
28,-15160,-28,752,-4708,23,-176,-82,72
29,-15138,10,720,-4710,23,-173,-79,72
30,-15160,-18,694,-4711,23,-175,-76,68
31,-15134,-38,732,-4703,23,-176,-73,69
32,-15136,4,760,-4710,23,-169,-71,72
33,-15158,40,772,-4704,23,-170,-81,63
34,-15126,-44,760,-4704,23,-173,-78,72
35,-15178,0,802,-4709,23,-171,-73,66
36,-15126,16,804,-4705,23,-179,-70,68
37,-15182,-8,770,-4711,23,-177,-75,72
38,-15154,-26,760,-4708,23,-173,-78,72
39,-15106,18,754,-4704,23,-170,-78,71
40,-15212,24,744,-4707,23,-174,-74,68
41,-15152,-36,822,-4705,23,-176,-75,67
42,-15118,-8,776,-4701,23,-178,-77,68
43,-15152,-14,780,-4707,23,-175,-76,73
44,-15192,2,798,-4706,23,-172,-75,73
45,-15158,-38,744,-4704,23,-176,-69,64
46,-15198,-24,732,-4705,23,-174,-77,67
47,-15194,10,710,-4711,23,-181,-74,65
48,-15134,6,734,-4699,23,-172,-78,70
49,-15130,22,748,-4708,23,-171,-76,70
50,-15194,-22,686,-4711,23,-177,-82,69
51,-15158,-42,766,-4709,23,-175,-81,68
52,-15148,-30,726,-4707,23,-177,-79,68
53,-15154,4,778,-4703,23,-178,-74,67
54,-15140,16,786,-4711,23,-175,-83,71
55,-15138,-26,760,-4709,23,-174,-73,66
56,-15164,-52,762,-4702,23,-170,-78,69
57,-15146,-6,762,-4713,23,-172,-79,65
58,-15188,14,670,-4703,23,-172,-82,68
59,-15158,-32,758,-4703,23,-175,-77,64
60,-15162,-28,734,-4702,23,-172,-72,74
61,-15142,50,706,-4709,23,-173,-73,74
62,-15150,6,782,-4712,23,-170,-76,71
63,-15152,26,714,-4716,23,-175,-73,70
64,-15142,16,774,-4713,23,-173,-74,68
65,-15182,-16,788,-4706,23,-171,-73,67
66,-15162,10,734,-4702,23,-174,-71,68
67,-15166,16,760,-4714,23,-172,-72,71
68,-15156,12,706,-4708,23,-171,-73,70
69,-15116,10,706,-4710,23,-171,-77,69
70,-15136,6,752,-4708,23,-179,-77,71
71,-15154,58,774,-4701,23,-173,-75,73
72,-15220,20,740,-4712,23,-171,-74,73
73,-15148,26,692,-4703,23,-176,-73,71
74,-15162,-38,702,-4715,23,-176,-81,70
75,-15132,-2,756,-4715,23,-174,-78,71
76,-15162,14,726,-4706,23,-170,-82,72
77,-15148,26,736,-4712,23,-171,-82,69
78,-15156,-60,850,-4711,23,-175,-85,71
79,-15174,-12,818,-4720,23,-175,-77,69
80,-15182,-16,750,-4707,23,-174,-74,71
81,-15182,-2,762,-4705,23,-177,-73,73
82,-15160,-18,772,-4704,23,-177,-72,67
83,-15126,0,808,-4704,23,-175,-71,72
84,-15118,-72,766,-4705,23,-169,-76,74
85,-15144,-12,672,-4706,23,-173,-77,67
86,-15168,-24,742,-4708,23,-173,-78,70
87,-15176,0,672,-4704,23,-173,-77,68
88,-15200,-32,724,-4706,23,-174,-77,67
89,-15142,0,772,-4707,23,-179,-76,67
90,-15152,-48,708,-4707,23,-174,-75,70
91,-15176,-32,742,-4706,23,-171,-83,74
92,-15158,-4,786,-4714,23,-171,-74,64
93,-15162,-22,804,-4714,23,-173,-76,71
94,-15114,10,774,-4707,23,-175,-78,66
95,-15140,-30,834,-4704,23,-176,-79,66
96,-15124,-8,704,-4712,23,-174,-81,71
97,-15154,-36,688,-4717,23,-179,-73,70
98,-15130,-8,732,-4700,23,-172,-73,68
99,-15178,6,844,-4704,23,-176,-74,75
100,-15108,-2,798,-4712,23,-174,-75,67
101,-15186,-34,752,-4705,23,-178,-74,72
102,-15214,12,762,-4704,23,-174,-79,73
103,-15166,-24,752,-4705,23,-174,-73,71
104,-15144,-14,778,-4717,23,-170,-72,72
105,-15232,-40,736,-4707,23,-174,-80,65
106,-15172,24,780,-4706,23,-176,-80,71
107,-15136,-30,706,-4713,23,-173,-78,69
108,-15110,-32,740,-4711,23,-175,-78,71
109,-15168,-16,788,-4713,23,-177,-74,70
110,-15158,-40,696,-4713,23,-175,-75,70
111,-15172,-46,712,-4713,23,-175,-77,68
112,-15110,0,740,-4709,23,-176,-81,69
113,-15140,10,790,-4704,23,-169,-75,68
114,-15218,-24,800,-4708,23,-173,-77,65
115,-15164,-28,708,-4708,23,-174,-83,67
116,-15190,24,768,-4707,23,-170,-75,67
117,-15156,-34,762,-4711,23,-172,-75,71
118,-15170,16,710,-4705,23,-171,-77,70
119,-15180,18,738,-4707,23,-176,-79,67
120,-15112,-28,764,-4704,23,-172,-75,67
121,-15188,-30,756,-4708,23,-176,-78,70
122,-15160,4,718,-4711,23,-180,-73,72
123,-15170,14,762,-4715,23,-175,-79,69
124,-15180,4,812,-4715,23,-174,-81,69
125,-15162,10,828,-4714,23,-173,-72,70
126,-15162,24,746,-4708,23,-168,-77,71
127,-15228,-26,786,-4711,23,-175,-75,71
128,-15142,-14,798,-4710,23,-172,-83,69
129,-15142,-36,784,-4709,23,-171,-75,73
130,-15140,-4,770,-4709,23,-176,-73,73
131,-15144,4,734,-4706,23,-177,-74,71
132,-15154,-50,716,-4714,23,-174,-78,72
133,-15132,6,764,-4707,23,-168,-72,73
134,-15134,-16,758,-4705,23,-172,-76,72
135,-15184,6,770,-4714,23,-169,-80,72
136,-15174,8,804,-4713,23,-178,-80,67
137,-15170,-18,772,-4707,23,-174,-77,74
138,-15186,-60,712,-4704,23,-171,-75,71
139,-15138,-2,734,-4709,23,-174,-79,69
140,-15158,-8,756,-4713,23,-175,-80,74
141,-15130,16,738,-4709,23,-175,-80,71
142,-15192,-52,798,-4706,23,-178,-75,66
143,-15126,22,712,-4709,23,-175,-74,70
144,-15184,-28,758,-4703,23,-175,-78,66
145,-15140,-4,754,-4700,23,-172,-85,67
146,-15132,14,704,-4705,23,-172,-78,70
147,-15154,22,716,-4711,23,-177,-78,71
148,-15112,14,776,-4700,23,-168,-72,73
149,-15144,4,712,-4704,23,-172,-78,65
150,-15150,2,790,-4702,23,-173,-78,69
151,-15170,42,782,-4715,23,-173,-73,71
152,-15162,20,792,-4708,23,-172,-75,71
153,-15150,-18,766,-4708,23,-171,-76,72
154,-15182,-14,720,-4704,23,-176,-79,71
155,-15162,-18,790,-4713,23,-173,-78,69
156,-15186,-32,740,-4707,23,-173,-75,66
157,-15162,-22,816,-4708,23,-176,-75,69
158,-15132,-18,802,-4699,23,-174,-75,71
159,-15188,2,680,-4706,23,-173,-71,73
160,-15154,8,694,-4706,23,-173,-78,72
161,-15184,-50,674,-4708,23,-174,-79,71
162,-15160,-4,802,-4710,23,-175,-76,70
163,-15150,-20,798,-4708,23,-174,-72,70
164,-15148,6,768,-4706,23,-176,-77,70
165,-15198,-12,762,-4706,23,-176,-77,68
166,-15182,-82,710,-4712,23,-173,-77,70
167,-15166,-2,732,-4708,23,-176,-77,72
168,-15126,-26,700,-4697,23,-177,-76,69
169,-15122,-40,716,-4704,23,-171,-75,70
170,-15150,-28,718,-4706,23,-179,-75,68
171,-15194,-28,760,-4705,23,-172,-68,72
172,-15170,-24,700,-4706,23,-175,-76,63
173,-15162,-24,770,-4702,23,-175,-78,69
174,-15156,-18,746,-4713,23,-177,-76,71
175,-15186,-12,790,-4707,23,-175,-81,68
176,-15138,10,716,-4712,23,-172,-78,69
177,-15174,2,714,-4713,23,-177,-78,75
178,-15144,12,758,-4714,23,-174,-77,66
179,-15126,-42,684,-4714,23,-174,-81,69
180,-15146,-6,664,-4703,23,-175,-81,68
181,-15126,2,794,-4706,23,-171,-79,66
182,-15186,-16,714,-4710,23,-173,-78,66
183,-15158,-6,800,-4714,23,-171,-83,65
184,-15100,-34,762,-4708,23,-174,-78,68
185,-15152,-14,788,-4705,23,-173,-79,72
186,-15150,-12,738,-4709,23,-169,-83,67
187,-15180,-48,748,-4708,23,-172,-74,66
188,-15164,-2,754,-4703,23,-178,-76,73
189,-15152,4,782,-4705,23,-173,-78,70
190,-15156,0,710,-4714,23,-169,-77,72
191,-15134,-4,788,-4709,23,-171,-77,71
192,-15174,-6,746,-4709,23,-169,-81,66
193,-15130,-44,714,-4712,23,-173,-79,62
194,-15192,-2,742,-4715,23,-176,-76,66
195,-15168,2,798,-4708,23,-179,-81,68
196,-15160,-6,772,-4710,23,-172,-76,73
197,-15146,-40,756,-4714,23,-172,-84,69
198,-15192,10,734,-4711,23,-174,-78,74
199,-15140,2,768,-4718,23,-175,-75,70
200,-15178,-68,806,-4703,23,-176,-79,73
201,-15166,2,840,-4707,23,-182,-80,71
202,-15172,-76,850,-4711,23,-174,-74,67
203,-15156,-22,816,-4705,23,-171,-80,67
204,-15158,-32,732,-4707,23,-170,-79,70
205,-15124,-38,740,-4708,23,-173,-75,75
206,-15122,-14,740,-4707,23,-175,-84,69
207,-15126,-28,782,-4714,23,-174,-76,69
208,-15188,-34,714,-4702,23,-172,-77,73
209,-15166,-44,822,-4701,23,-173,-71,73
210,-15158,-4,768,-4707,23,-172,-76,69
211,-15156,-6,764,-4711,23,-173,-73,68
212,-15138,0,724,-4697,23,-174,-76,70
213,-15122,-26,762,-4702,23,-175,-77,72
214,-15158,-26,782,-4708,23,-183,-71,69
215,-15144,-8,730,-4710,23,-173,-74,68
216,-15162,-16,776,-4709,23,-178,-78,67
217,-15186,-36,784,-4707,23,-173,-78,68
218,-15156,12,778,-4702,23,-174,-76,72
219,-15160,14,802,-4708,23,-176,-79,71
220,-15132,-20,766,-4710,23,-167,-75,69
221,-15138,24,756,-4706,23,-174,-74,67
222,-15190,-28,838,-4706,23,-173,-78,70
223,-15144,24,692,-4710,23,-176,-80,69
224,-15118,-8,710,-4707,23,-175,-72,74
225,-15160,-28,774,-4698,23,-173,-73,72
226,-15156,-16,756,-4705,23,-181,-74,69
227,-15140,-20,714,-4707,23,-174,-72,73
228,-15182,26,712,-4711,23,-172,-77,70
229,-15180,-52,808,-4708,23,-176,-77,69
230,-15120,-26,788,-4711,23,-175,-75,64
231,-15176,24,760,-4704,23,-172,-74,66
232,-15128,-32,818,-4709,23,-173,-76,66
233,-15138,-78,750,-4704,23,-172,-82,74
234,-15144,-30,732,-4702,23,-178,-73,70
235,-15138,-22,796,-4706,23,-174,-74,69
236,-15190,-14,768,-4708,23,-174,-74,66
237,-15112,-4,740,-4701,23,-172,-75,73
238,-15142,-36,660,-4704,23,-174,-83,67
239,-15172,-36,750,-4697,23,-178,-82,70
240,-15174,-22,740,-4710,23,-177,-80,72
241,-15168,-12,746,-4713,23,-175,-77,70
242,-15164,-34,766,-4713,23,-177,-70,70
243,-15152,-26,724,-4701,23,-170,-80,72
244,-15128,-40,786,-4707,23,-177,-78,68
245,-15158,20,744,-4708,23,-177,-76,72
246,-15172,4,734,-4711,23,-177,-77,68
247,-15148,20,728,-4700,23,-178,-74,70
248,-15124,-18,780,-4717,23,-174,-84,71
249,-15102,6,748,-4712,23,-176,-78,68
250,-15190,6,738,-4709,23,-171,-78,72
251,-15180,-20,738,-4707,23,-171,-77,75
252,-15144,12,720,-4710,23,-170,-76,69
253,-15166,-42,788,-4714,23,-174,-76,72
254,-15122,8,728,-4704,23,-171,-74,67
255,-15132,-46,778,-4705,23,-174,-79,70
256,-15140,-26,790,-4706,23,-174,-75,67
257,-15140,-24,762,-4707,23,-174,-74,68
258,-15172,8,718,-4711,23,-170,-78,71
259,-15154,-18,682,-4709,23,-174,-77,72
260,-15142,-28,732,-4708,23,-175,-78,70
261,-15216,-32,782,-4702,23,-174,-75,69
262,-15136,20,748,-4701,23,-174,-78,65
263,-15148,-4,758,-4706,23,-175,-78,69
264,-15170,14,710,-4702,23,-174,-76,66
265,-15114,0,740,-4704,23,-176,-73,68
266,-15160,-8,756,-4712,23,-171,-76,72
267,-15176,-18,786,-4705,23,-174,-78,69
268,-15184,18,772,-4701,23,-176,-77,69
269,-15154,42,820,-4704,23,-174,-77,71
270,-15148,28,674,-4703,23,-170,-74,68
271,-15132,6,718,-4709,23,-179,-76,70
272,-15182,4,760,-4699,23,-175,-75,68
273,-15174,10,710,-4701,23,-177,-69,69
274,-15148,-4,708,-4701,23,-177,-77,69
275,-15166,-16,784,-4706,23,-177,-74,70
276,-15150,-30,720,-4712,23,-174,-79,73
277,-15170,10,722,-4708,23,-174,-76,71
278,-15136,-42,784,-4709,23,-173,-73,70
279,-15168,-10,742,-4713,23,-174,-76,68
280,-15180,-42,802,-4709,23,-179,-78,70
281,-15210,-26,678,-4708,23,-171,-78,70
282,-15122,-22,732,-4705,23,-173,-69,65
283,-15154,4,764,-4704,23,-171,-79,64
284,-15214,-14,786,-4707,23,-180,-75,71
285,-15186,-58,726,-4702,23,-178,-76,71
286,-15150,-34,730,-4710,23,-174,-78,72
287,-15108,-20,762,-4710,23,-177,-75,68
288,-15146,-14,796,-4710,23,-169,-75,73
289,-15176,-38,758,-4710,23,-167,-78,68
290,-15154,-68,732,-4696,23,-175,-71,72
291,-15142,-40,798,-4704,23,-177,-78,68
292,-15148,-18,768,-4702,23,-170,-76,75
293,-15136,-22,756,-4702,23,-180,-77,69
294,-15178,2,672,-4704,23,-172,-73,73
295,-15136,16,726,-4700,23,-178,-77,70
296,-15170,-52,724,-4709,23,-170,-76,69
297,-15174,-10,748,-4704,23,-171,-81,73
298,-15194,-40,600,-4707,23,-169,-73,67
299,-15132,-22,774,-4699,23,-173,-76,73
300,-15102,8,794,-4706,23,-173,-80,73
301,-15144,4,774,-4718,23,-174,-74,74
302,-15172,-16,710,-4705,23,-179,-74,67
303,-15132,-10,668,-4706,23,-171,-72,71
304,-15164,28,732,-4706,23,-174,-78,69
305,-15142,-36,664,-4701,23,-174,-76,68
306,-15208,-22,652,-4710,23,-170,-78,69
307,-15160,-28,738,-4703,23,-168,-73,73
308,-15146,-36,774,-4718,23,-175,-77,67
309,-15178,22,750,-4701,23,-176,-81,71
310,-15174,10,756,-4706,23,-170,-77,65
311,-15154,4,826,-4706,23,-175,-73,71
312,-15104,-30,870,-4701,23,-177,-80,68
313,-15204,-26,768,-4706,23,-177,-77,69
314,-15140,-6,750,-4703,23,-175,-72,69
315,-15160,-28,746,-4713,23,-171,-78,74
316,-15134,-8,794,-4698,23,-172,-83,68
317,-15134,14,798,-4707,23,-171,-75,67
318,-15164,-18,766,-4705,23,-174,-79,69
319,-15140,16,710,-4703,23,-169,-77,66
320,-15174,14,730,-4718,23,-174,-80,68
321,-15188,-24,750,-4708,23,-167,-77,72
322,-15172,-78,734,-4703,23,-175,-75,72
323,-15156,-10,762,-4700,23,-169,-79,73
324,-15160,-26,764,-4706,23,-172,-78,68
325,-15194,-12,790,-4702,23,-168,-74,74
326,-15166,-46,788,-4697,23,-169,-81,69
327,-15156,-16,758,-4706,23,-174,-76,69
328,-15172,-2,720,-4705,23,-173,-75,73
329,-15172,-48,710,-4709,23,-173,-77,70
330,-15192,-38,774,-4716,23,-172,-77,68
331,-15162,-44,742,-4700,23,-173,-68,70
332,-15116,-2,738,-4706,23,-174,-72,71
333,-15172,30,770,-4703,23,-177,-81,70
334,-15136,32,722,-4702,23,-172,-73,70
335,-15152,24,764,-4707,23,-174,-75,74
336,-15170,0,804,-4705,23,-171,-77,75
337,-15144,-8,794,-4705,23,-171,-73,69
338,-15138,-30,774,-4700,23,-178,-70,66
339,-15162,-40,740,-4702,23,-175,-74,71
340,-15136,-28,718,-4706,23,-177,-72,69
341,-15206,14,700,-4711,23,-175,-76,70
342,-15156,38,738,-4704,23,-175,-71,70
343,-15122,-44,796,-4702,23,-168,-76,70
344,-15128,-10,798,-4709,23,-175,-78,70
345,-15168,-4,766,-4705,23,-173,-73,69
346,-15170,-64,736,-4705,23,-170,-76,69
347,-15202,24,754,-4701,23,-175,-75,70
348,-15152,-2,710,-4708,23,-176,-76,69
349,-15180,-12,770,-4704,23,-178,-78,69
350,-15178,6,776,-4698,23,-177,-84,69
351,-15126,2,738,-4699,23,-177,-83,74
352,-15186,4,772,-4695,23,-169,-81,69
353,-15108,4,732,-4695,23,-167,-73,71
354,-15166,-10,786,-4702,23,-170,-77,66
355,-15114,-32,786,-4699,23,-175,-71,65
356,-15138,-54,726,-4702,23,-174,-74,68
357,-15112,-6,766,-4715,23,-173,-79,67
358,-15158,24,758,-4710,23,-169,-73,66
359,-15154,20,762,-4700,23,-172,-73,70
360,-15150,4,706,-4704,23,-172,-74,64
361,-15166,10,784,-4702,23,-176,-76,72
362,-15178,8,696,-4702,23,-176,-76,68
363,-15186,28,752,-4700,23,-181,-79,71
364,-15138,-12,750,-4699,23,-174,-77,68
365,-15190,6,770,-4702,23,-176,-74,68
366,-15142,-26,794,-4701,23,-172,-74,69
367,-15140,-4,802,-4699,23,-170,-81,66
368,-15136,16,712,-4699,23,-175,-74,64
369,-15164,-30,712,-4708,23,-174,-75,68
370,-15152,-30,732,-4704,23,-172,-75,66
371,-15112,-14,696,-4707,23,-172,-73,71
372,-15128,-16,776,-4696,23,-173,-73,70
373,-15102,-28,746,-4698,23,-174,-76,69
374,-15122,10,750,-4705,23,-171,-78,67
375,-15130,-30,694,-4701,23,-169,-77,72
376,-15132,-6,770,-4694,23,-175,-77,74
377,-15172,0,734,-4704,23,-168,-82,73
378,-15162,-48,780,-4704,23,-175,-69,72
379,-15182,8,842,-4704,23,-173,-70,73
380,-15174,-18,806,-4710,23,-172,-78,70
381,-15126,-8,716,-4697,23,-169,-72,68
382,-15152,8,762,-4706,23,-173,-74,68
383,-15164,16,746,-4700,23,-172,-72,72
384,-15162,-20,750,-4701,23,-177,-76,67
385,-15158,-4,776,-4712,23,-175,-73,66
386,-15166,-10,728,-4699,23,-180,-79,71
387,-15148,-30,730,-4696,23,-179,-77,75
388,-15150,-28,744,-4706,23,-173,-79,75
389,-15176,-34,812,-4700,23,-172,-74,69
390,-15138,-4,740,-4698,23,-174,-76,69
391,-15154,12,736,-4709,23,-175,-76,70
392,-15162,12,786,-4703,23,-171,-78,70
393,-15164,-20,768,-4708,23,-173,-79,74
394,-15160,-14,818,-4701,23,-177,-77,70
395,-15148,-18,840,-4700,23,-178,-75,71
396,-15162,-18,708,-4700,23,-172,-76,68
397,-15166,0,772,-4703,23,-177,-75,72
398,-15130,24,682,-4697,23,-178,-74,71
399,-15152,-4,720,-4701,23,-177,-76,71
400,-15192,-16,676,-4702,23,-178,-80,71
401,-15148,-38,728,-4703,23,-170,-82,70
402,-15180,-28,792,-4704,23,-175,-76,71
403,-15150,-8,764,-4708,23,-168,-77,63
404,-15142,-40,760,-4713,23,-178,-78,67
405,-15166,-28,712,-4701,23,-178,-75,74
406,-15180,-60,754,-4700,23,-174,-75,68
407,-15144,32,710,-4697,23,-174,-80,68
408,-15136,-12,734,-4714,23,-175,-79,70
409,-15146,-12,748,-4711,23,-174,-75,70
410,-15164,-12,818,-4707,23,-176,-74,68
411,-15194,16,758,-4702,23,-174,-78,69
412,-15152,-16,768,-4709,23,-170,-78,71
413,-15134,8,668,-4708,23,-174,-78,71
414,-15152,4,736,-4700,23,-173,-75,75
415,-15132,0,754,-4708,23,-172,-77,72
416,-15150,2,778,-4699,23,-174,-82,70
417,-15134,-52,752,-4707,23,-174,-72,73
418,-15160,-16,774,-4711,23,-171,-76,65
419,-15154,16,738,-4707,23,-173,-81,66
420,-15186,30,744,-4697,23,-176,-83,70
421,-15152,-12,728,-4695,23,-179,-79,67
422,-15192,34,742,-4701,23,-172,-73,68
423,-15088,-4,744,-4700,23,-177,-78,66
424,-15118,12,710,-4704,23,-177,-76,69
425,-15138,-18,776,-4705,23,-174,-77,71
426,-15146,2,720,-4708,23,-173,-75,70
427,-15182,-24,712,-4703,23,-178,-76,73
428,-15192,-12,698,-4703,23,-171,-76,67
429,-15190,12,734,-4702,23,-173,-76,65
430,-15194,-24,752,-4710,23,-175,-72,73
431,-15164,-48,660,-4701,23,-177,-76,71
432,-15138,-50,776,-4703,23,-177,-81,72
433,-15134,-24,754,-4698,23,-179,-80,68
434,-15138,-6,774,-4698,23,-177,-75,67
435,-15160,-32,708,-4699,23,-173,-77,70
436,-15148,-10,730,-4701,23,-177,-74,70
437,-15144,-26,746,-4707,23,-177,-76,68
438,-15146,-14,792,-4696,23,-175,-80,69
439,-15168,0,754,-4700,23,-165,-72,69
440,-15148,-28,774,-4703,23,-176,-82,73
441,-15194,-10,688,-4702,23,-176,-72,69
442,-15156,-16,768,-4710,23,-177,-79,68
443,-15138,30,772,-4705,23,-173,-74,65
444,-15214,22,868,-4708,23,-176,-77,73
445,-15146,-8,760,-4707,23,-172,-73,72
446,-15158,24,794,-4703,23,-177,-83,74
447,-15166,36,814,-4708,23,-177,-78,71
448,-15150,0,810,-4702,23,-176,-78,73
449,-15136,-18,754,-4696,23,-172,-77,72
450,-15170,-14,842,-4697,23,-178,-72,71
451,-15122,-22,738,-4700,23,-178,-73,71
452,-15154,-20,780,-4704,23,-174,-76,70
453,-15172,14,732,-4704,23,-172,-80,64
454,-15174,6,788,-4702,23,-175,-82,67
455,-15154,38,758,-4699,23,-172,-73,71
456,-15152,0,754,-4697,23,-171,-73,72
457,-15122,-20,770,-4702,23,-174,-77,66
458,-15138,-12,786,-4701,23,-179,-80,73
459,-15122,-48,746,-4704,23,-172,-78,67
460,-15144,-24,738,-4701,23,-173,-77,72
461,-15166,24,756,-4702,23,-174,-76,73
462,-15158,-6,742,-4704,23,-169,-80,71
463,-15146,4,794,-4707,23,-175,-70,69
464,-15122,-4,720,-4701,23,-173,-73,69
465,-15120,-64,742,-4699,23,-179,-76,72
466,-15172,0,680,-4702,23,-174,-76,68
467,-15160,-24,744,-4703,23,-174,-79,73
468,-15156,4,766,-4702,23,-173,-77,68
469,-15126,-12,762,-4699,23,-177,-74,68
470,-15150,-24,712,-4703,23,-179,-74,69
471,-15168,-10,752,-4700,23,-174,-76,72
472,-15138,-42,750,-4701,23,-176,-80,67
473,-15160,-58,712,-4702,23,-172,-74,71
474,-15136,4,724,-4701,23,-175,-77,69
475,-15152,2,698,-4698,23,-174,-83,69
476,-15218,-2,720,-4702,23,-179,-81,67
477,-15162,-18,804,-4699,23,-168,-80,73
478,-15148,-8,734,-4702,23,-175,-76,69
479,-15136,18,816,-4698,23,-177,-81,71
480,-15160,-14,720,-4703,23,-175,-79,70
481,-15082,36,764,-4704,23,-178,-71,65
482,-15136,12,762,-4700,23,-172,-74,72
483,-15118,12,782,-4704,23,-175,-79,68
484,-15116,-4,700,-4695,23,-172,-72,68
485,-15182,-8,776,-4697,23,-174,-75,73
486,-15156,0,780,-4703,23,-175,-69,70
487,-15130,-28,800,-4698,23,-175,-77,72
488,-15198,20,754,-4707,23,-177,-77,70
489,-15162,0,758,-4706,23,-168,-76,69
490,-15126,-18,770,-4707,23,-172,-78,68
491,-15106,10,758,-4702,23,-177,-85,68
492,-15174,30,802,-4700,23,-174,-80,67
493,-15152,2,750,-4708,23,-172,-75,70
494,-15134,-20,740,-4703,23,-178,-82,67
495,-15160,38,768,-4701,23,-172,-75,70
496,-15140,30,842,-4711,23,-174,-76,70
497,-15160,14,824,-4694,23,-174,-79,68
498,-15116,-36,780,-4704,23,-170,-69,71
499,-15100,18,738,-4707,23,-173,-74,68
500,-15158,-36,734,-4707,23,-174,-74,66
501,-15174,-34,746,-4701,23,-172,-77,67
502,-15180,8,770,-4702,23,-172,-79,70
503,-15134,22,734,-4704,23,-173,-80,71
504,-15144,10,796,-4702,23,-174,-79,74
505,-15154,0,814,-4701,23,-175,-75,68
506,-15140,0,850,-4704,23,-174,-76,73
507,-15134,8,834,-4698,23,-178,-82,72
508,-15160,-30,762,-4700,23,-174,-72,66
509,-15132,2,784,-4694,23,-170,-74,73
510,-15156,-42,770,-4700,23,-171,-77,69
511,-15118,-34,838,-4692,23,-172,-81,65
512,-15148,18,790,-4700,23,-176,-75,69
513,-15164,-8,746,-4702,23,-172,-77,69
514,-15178,4,740,-4702,23,-175,-79,69
515,-15142,-22,730,-4706,23,-174,-73,70
516,-15164,4,722,-4702,23,-176,-80,71
517,-15198,-6,756,-4694,23,-177,-77,72
518,-15142,12,702,-4705,23,-179,-79,75
519,-15136,12,728,-4703,23,-177,-78,73
520,-15142,18,750,-4692,23,-171,-78,68
521,-15154,-20,670,-4699,23,-177,-81,70
522,-15166,-10,786,-4700,23,-173,-78,71
523,-15202,4,732,-4705,23,-175,-76,67
524,-15126,4,726,-4699,23,-170,-74,63
525,-15164,12,696,-4703,23,-170,-76,70
526,-15148,-42,738,-4703,23,-175,-77,69
527,-15142,4,720,-4702,23,-173,-72,72
528,-15116,12,792,-4699,23,-173,-77,74
529,-15126,-10,726,-4703,23,-174,-74,70
530,-15164,14,722,-4695,23,-170,-79,70
531,-15200,-8,732,-4699,23,-173,-83,69
532,-15176,40,754,-4703,23,-172,-76,70
533,-15186,-22,744,-4702,23,-172,-81,68
534,-15166,-36,742,-4696,23,-174,-77,71
535,-15126,-18,664,-4704,23,-171,-78,69
536,-15192,-6,718,-4699,23,-176,-78,69
537,-15134,0,738,-4705,23,-176,-79,68
538,-15172,12,720,-4701,23,-169,-82,68
539,-15144,14,722,-4698,23,-172,-85,67
540,-15154,-16,766,-4690,23,-172,-81,73
541,-15160,-8,766,-4702,23,-172,-75,69
542,-15174,4,796,-4700,23,-178,-80,67
543,-15176,-62,750,-4700,23,-180,-82,69
544,-15166,-46,752,-4695,23,-175,-76,71
545,-15162,-14,732,-4699,23,-175,-82,69
546,-15174,-32,776,-4698,23,-170,-80,71
547,-15152,-24,782,-4707,23,-170,-76,68
548,-15176,-48,772,-4705,23,-167,-80,73
549,-15146,26,782,-4703,23,-170,-78,70
550,-15142,-28,734,-4698,23,-173,-76,70
551,-15114,12,754,-4699,23,-175,-79,70
552,-15136,-40,752,-4698,23,-170,-71,71
553,-15150,-24,704,-4709,23,-175,-77,69
554,-15148,-18,728,-4708,23,-172,-78,67
555,-15154,-4,772,-4699,23,-177,-74,76
556,-15224,36,742,-4698,23,-169,-75,66
557,-15224,-46,734,-4698,23,-173,-76,70
558,-15212,-12,756,-4697,23,-170,-70,74
559,-15214,-22,778,-4692,23,-174,-74,68
560,-15138,28,804,-4700,23,-177,-73,74
561,-15132,26,762,-4703,23,-179,-76,71
562,-15158,-32,658,-4702,23,-178,-77,68
563,-15190,-24,732,-4699,23,-174,-78,70
564,-15132,-8,760,-4696,23,-173,-73,67
565,-15182,-56,792,-4694,23,-174,-79,70
566,-15166,-14,770,-4693,23,-173,-79,69
567,-15184,10,778,-4693,23,-174,-79,67
568,-15152,-10,682,-4706,23,-172,-76,69
569,-15190,-26,706,-4696,23,-175,-77,69
570,-15162,-2,810,-4703,23,-175,-75,69
571,-15162,-72,700,-4696,23,-174,-78,69
572,-15158,-56,708,-4701,23,-174,-71,63
573,-15158,0,758,-4705,23,-174,-74,71
574,-15166,-14,786,-4692,23,-171,-77,69
575,-15136,2,752,-4706,23,-178,-77,68
576,-15128,-8,768,-4703,23,-175,-79,72
577,-15134,14,810,-4697,23,-173,-79,71
578,-15074,12,760,-4695,23,-172,-79,75
579,-15150,6,730,-4704,23,-175,-76,74
580,-15226,-26,762,-4704,23,-175,-73,69
581,-15152,-18,686,-4698,23,-173,-77,67
582,-15106,-90,742,-4704,23,-170,-78,66
583,-15150,-64,778,-4702,23,-176,-78,71
584,-15152,-50,734,-4702,23,-171,-78,67
585,-15122,6,760,-4701,23,-175,-72,73
586,-15186,-30,778,-4689,23,-171,-73,69
587,-15162,12,818,-4697,23,-176,-79,72
588,-15156,-42,732,-4697,23,-175,-82,70
589,-15126,-24,778,-4699,23,-179,-78,72
590,-15162,-20,714,-4702,23,-172,-71,71
591,-15132,-40,732,-4704,23,-174,-76,74
592,-15108,-34,746,-4699,23,-170,-77,68
593,-15096,14,830,-4699,23,-167,-76,72
594,-15130,-18,716,-4702,23,-171,-73,74
595,-15166,-10,756,-4701,23,-171,-75,68
596,-15132,-8,768,-4688,23,-172,-75,72
597,-15132,-10,718,-4688,23,-171,-72,72
598,-15160,-46,766,-4697,23,-171,-77,67
599,-15168,-56,764,-4696,23,-171,-79,66
600,-15150,-20,798,-4701,23,-172,-76,70
601,-15150,-4,718,-4701,23,-178,-81,72
602,-15138,12,694,-4703,23,-168,-77,72
603,-15166,-14,758,-4704,23,-166,-75,71
604,-15164,-12,806,-4695,23,-174,-73,68
605,-15158,-48,726,-4697,23,-173,-77,70
606,-15152,-46,736,-4703,23,-181,-84,71
607,-15158,-34,718,-4697,23,-176,-77,72
608,-15154,20,784,-4699,23,-176,-78,66
609,-15158,-14,722,-4703,23,-175,-81,70
610,-15166,-24,736,-4699,23,-171,-77,69
611,-15134,-86,844,-4696,23,-171,-73,70
612,-15158,-4,750,-4699,23,-176,-71,69
613,-15202,-22,730,-4703,23,-174,-78,70
614,-15162,-4,748,-4699,23,-171,-79,69
615,-15182,-26,748,-4700,23,-171,-77,66
616,-15108,-2,686,-4698,23,-168,-73,70
617,-15148,-44,684,-4701,23,-174,-70,66
618,-15210,0,752,-4709,23,-180,-76,68
619,-15140,-30,798,-4693,23,-171,-73,69
620,-15140,-48,766,-4701,23,-172,-79,67
621,-15172,-6,772,-4695,23,-174,-76,72
622,-15142,10,750,-4705,23,-173,-78,72
623,-15120,2,714,-4696,23,-169,-78,69
624,-15152,-20,748,-4694,23,-172,-75,70
625,-15152,-28,774,-4697,23,-176,-76,70
626,-15130,-18,778,-4701,23,-169,-76,71
627,-15160,-12,730,-4700,23,-168,-71,69
628,-15132,-6,820,-4698,23,-173,-73,72
629,-15178,-30,866,-4700,23,-176,-78,73
630,-15180,-40,776,-4698,23,-181,-75,66
631,-15160,16,810,-4701,23,-176,-79,68
632,-15142,10,778,-4693,23,-173,-80,69
633,-15138,-38,738,-4692,23,-177,-81,67
634,-15150,-14,812,-4699,23,-175,-77,69
635,-15148,-34,804,-4695,23,-173,-75,71
636,-15150,14,806,-4700,23,-177,-81,70
637,-15168,14,732,-4692,23,-174,-78,69
638,-15120,-6,760,-4692,23,-177,-75,69
639,-15190,-30,742,-4694,23,-176,-80,67
640,-15072,-42,720,-4698,23,-173,-83,73
641,-15136,6,752,-4699,23,-176,-72,70
642,-15168,-22,810,-4700,23,-167,-75,72
643,-15160,-16,646,-4694,23,-174,-79,66
644,-15138,-44,736,-4695,23,-172,-77,72
645,-15178,-2,720,-4692,23,-168,-78,68
646,-15170,-36,788,-4694,23,-174,-77,70
647,-15130,-48,694,-4694,23,-175,-77,69
648,-15164,-8,736,-4702,23,-174,-78,65
649,-15188,-14,694,-4699,23,-172,-76,72
650,-15122,66,806,-4689,23,-178,-75,69
651,-15136,-26,842,-4692,23,-173,-71,69
652,-15128,20,774,-4701,23,-173,-74,69
653,-15110,-28,768,-4696,23,-178,-78,70
654,-15142,-14,764,-4696,23,-179,-80,73
655,-15144,10,762,-4695,23,-179,-75,71
656,-15210,-22,758,-4697,23,-175,-79,72
657,-15196,-44,770,-4695,23,-176,-79,69
658,-15128,2,738,-4703,23,-175,-79,66
659,-15190,4,786,-4707,23,-173,-74,74
660,-15166,-18,754,-4701,23,-175,-76,67
661,-15134,26,804,-4693,23,-174,-76,69
662,-15178,-6,762,-4699,23,-171,-75,67
663,-15128,-6,800,-4695,23,-173,-73,71
664,-15126,-46,774,-4698,23,-175,-78,72
665,-15128,-24,688,-4695,23,-180,-78,72
666,-15132,-18,780,-4701,23,-173,-77,67
667,-15134,-32,788,-4703,23,-169,-76,70
668,-15142,-2,790,-4701,23,-175,-79,76
669,-15160,0,678,-4699,23,-172,-76,64
670,-15168,-6,756,-4696,23,-173,-75,72
671,-15152,-30,744,-4702,23,-178,-75,68
672,-15166,-26,782,-4702,23,-173,-72,67
673,-15152,-32,748,-4697,23,-173,-79,71
674,-15148,-34,744,-4695,23,-171,-73,66
675,-15176,-6,690,-4702,23,-178,-73,66
676,-15168,-14,728,-4697,23,-176,-79,72
677,-15114,-2,712,-4698,23,-174,-77,71
678,-15144,28,736,-4696,23,-173,-75,75
679,-15152,-28,764,-4699,23,-172,-79,73
680,-15176,-10,802,-4702,23,-173,-78,69
681,-15210,-10,756,-4696,23,-171,-73,70
682,-15142,-54,732,-4682,23,-173,-79,68
683,-15164,10,750,-4700,23,-172,-76,67
684,-15126,24,736,-4691,23,-173,-76,72
685,-15172,34,720,-4696,23,-173,-74,70
686,-15152,6,786,-4693,23,-168,-70,70
687,-15128,6,754,-4695,23,-173,-77,69
688,-15160,-54,652,-4690,23,-172,-74,73
689,-15134,-46,704,-4694,23,-172,-83,70
690,-15120,-24,718,-4699,23,-175,-76,68
691,-15170,-22,748,-4697,23,-173,-76,67
692,-15186,-26,828,-4700,23,-175,-79,69
693,-15140,-18,810,-4709,23,-171,-78,67
694,-15172,-22,772,-4700,23,-169,-78,73
695,-15144,-24,702,-4700,23,-175,-75,68
696,-15112,-36,752,-4703,23,-175,-76,68
697,-15136,-36,722,-4693,23,-177,-78,70
698,-15142,-6,698,-4699,23,-176,-76,67
699,-15180,4,722,-4691,23,-172,-75,69
700,-15164,-4,706,-4699,23,-169,-77,70
701,-15140,-34,782,-4699,23,-174,-81,69
702,-15150,-22,734,-4699,23,-169,-75,71
703,-15140,-12,744,-4700,23,-175,-76,72
704,-15152,4,726,-4695,23,-175,-77,67
705,-15172,-30,744,-4697,23,-173,-76,66
706,-15134,0,686,-4693,23,-170,-76,70
707,-15168,-42,724,-4697,23,-174,-75,69
708,-15170,22,802,-4700,23,-171,-80,68
709,-15140,2,750,-4696,23,-173,-76,67
710,-15148,14,774,-4694,23,-174,-79,70
711,-15148,-4,776,-4698,23,-174,-74,69
712,-15158,-66,782,-4694,23,-170,-80,74
713,-15132,22,760,-4704,23,-170,-75,71
714,-15202,-56,772,-4693,23,-175,-77,70
715,-15146,-2,736,-4694,23,-173,-78,72
716,-15144,-30,706,-4695,23,-173,-81,73
717,-15150,-16,758,-4699,23,-177,-77,72
718,-15152,-30,738,-4691,23,-171,-80,62
719,-15168,18,716,-4691,23,-174,-75,68
720,-15190,-34,722,-4693,23,-172,-80,68
721,-15132,-8,730,-4692,23,-174,-78,68
722,-15172,-60,758,-4695,23,-176,-77,70
723,-15170,20,756,-4700,23,-174,-75,70
724,-15178,12,788,-4692,23,-175,-74,72
725,-15156,-56,800,-4703,23,-173,-76,68
726,-15138,-18,802,-4696,23,-172,-75,68
727,-15170,-22,746,-4687,23,-175,-82,77
728,-15120,-10,718,-4695,23,-179,-82,71
729,-15154,-36,806,-4697,23,-177,-78,68
730,-15144,40,684,-4691,23,-174,-81,71
731,-15128,2,740,-4695,23,-176,-86,68
732,-15142,30,814,-4693,23,-172,-80,70
733,-15154,6,710,-4702,23,-177,-77,73
734,-15154,-36,768,-4696,23,-176,-79,67
735,-15152,-46,830,-4697,23,-177,-72,74
736,-15170,6,738,-4704,23,-172,-80,67
737,-15146,-14,774,-4701,23,-171,-76,67
738,-15106,-34,760,-4693,23,-176,-76,70
739,-15124,-22,720,-4693,23,-172,-75,70
740,-15124,-32,754,-4705,23,-172,-74,71
741,-15152,-84,790,-4697,23,-177,-73,72
742,-15198,-44,850,-4701,23,-178,-78,70
743,-15156,-12,762,-4702,23,-174,-78,73
744,-15120,0,764,-4705,23,-173,-73,71
745,-15174,-22,718,-4701,23,-173,-73,72
746,-15114,-2,732,-4694,23,-177,-75,67
747,-15212,-56,696,-4698,23,-170,-76,74
748,-15198,-8,778,-4694,23,-179,-78,69
749,-15156,-4,764,-4697,23,-175,-81,69
750,-15176,-30,686,-4700,23,-171,-81,72
751,-15152,-2,796,-4699,23,-168,-79,72
752,-15138,4,784,-4702,23,-176,-74,70
753,-15144,50,770,-4701,23,-175,-82,69
754,-15172,-4,706,-4701,23,-178,-75,67
755,-15174,-14,776,-4709,23,-172,-75,72
756,-15130,4,810,-4706,23,-172,-76,74
757,-15152,20,762,-4701,23,-171,-78,64
758,-15138,30,786,-4698,23,-175,-80,66
759,-15174,2,790,-4693,23,-179,-75,67
760,-15176,-10,732,-4694,23,-174,-77,68
761,-15190,10,770,-4699,23,-177,-76,73
762,-15146,-38,754,-4697,23,-178,-79,70
763,-15176,-8,748,-4699,23,-175,-77,68
764,-15138,-48,784,-4699,23,-178,-75,69
765,-15132,0,768,-4701,23,-168,-75,70
766,-15140,-36,700,-4693,23,-171,-78,69
767,-15164,-32,768,-4691,23,-172,-73,68
768,-15144,30,748,-4695,23,-172,-78,66
769,-15146,8,702,-4698,23,-173,-76,71
770,-15172,6,760,-4701,23,-175,-78,71
771,-15136,-14,694,-4698,23,-170,-74,69
772,-15174,-40,804,-4700,23,-172,-78,64
773,-15162,0,816,-4704,23,-174,-77,71
774,-15160,-10,736,-4702,23,-173,-78,74
775,-15168,42,790,-4695,23,-172,-83,73
776,-15144,-34,790,-4700,23,-172,-77,70
777,-15094,-44,780,-4700,23,-175,-77,71
778,-15138,-20,774,-4695,23,-173,-76,71
779,-15168,-16,672,-4693,23,-170,-78,71
780,-15152,-24,740,-4689,23,-172,-75,72
781,-15198,-18,738,-4696,23,-169,-72,73
782,-15156,-54,768,-4694,23,-175,-74,74
783,-15172,-34,746,-4698,23,-173,-73,64
784,-15172,12,730,-4700,23,-177,-78,68
785,-15128,10,690,-4697,23,-175,-77,71
786,-15196,-46,726,-4697,23,-180,-77,76
787,-15152,-20,730,-4697,23,-170,-78,66
788,-15146,-8,774,-4694,23,-174,-79,71
789,-15166,-28,834,-4703,23,-176,-82,71
790,-15192,-24,794,-4693,23,-175,-76,72
791,-15162,-16,794,-4692,23,-172,-78,69
792,-15176,-20,702,-4694,23,-178,-82,71
793,-15156,-84,700,-4696,23,-177,-75,69
794,-15188,-34,702,-4698,23,-172,-77,69
795,-15154,18,732,-4697,23,-171,-77,70
796,-15172,-20,712,-4697,23,-178,-74,72
797,-15144,8,766,-4696,23,-171,-71,67
798,-15186,-12,746,-4692,23,-175,-71,70
799,-15156,2,750,-4695,23,-179,-75,69
800,-15162,-12,772,-4701,23,-171,-78,71
801,-15152,20,812,-4705,23,-174,-79,67
802,-15172,-20,732,-4703,23,-176,-80,68
803,-15192,4,744,-4693,23,-177,-79,67
804,-15168,4,806,-4700,23,-177,-78,69
805,-15132,-16,782,-4702,23,-175,-76,74
806,-15158,-8,718,-4693,23,-169,-77,72
807,-15154,-44,816,-4699,23,-175,-78,66
808,-15148,8,770,-4692,23,-176,-75,70
809,-15166,-26,718,-4696,23,-172,-74,73
810,-15176,-28,678,-4699,23,-176,-76,74
811,-15154,8,782,-4688,23,-171,-73,67
812,-15138,-24,744,-4693,23,-174,-74,69
813,-15144,-26,728,-4698,23,-176,-76,71
814,-15162,14,728,-4698,23,-177,-80,66
815,-15154,-30,704,-4692,23,-176,-80,71
816,-15108,-66,744,-4694,23,-171,-76,71
817,-15148,16,726,-4696,23,-171,-74,69
818,-15206,-12,738,-4697,23,-175,-75,74
819,-15186,-6,728,-4696,23,-178,-81,71
820,-15196,-8,770,-4693,23,-179,-83,69
821,-15198,6,690,-4697,23,-177,-75,71
822,-15142,44,814,-4696,23,-173,-79,70
823,-15182,4,776,-4690,23,-178,-74,71
824,-15120,-30,732,-4692,23,-172,-74,74
825,-15146,10,680,-4697,23,-176,-76,67
826,-15106,-4,720,-4695,23,-172,-73,70
827,-15112,12,734,-4695,23,-172,-81,71
828,-15188,-20,818,-4691,23,-174,-74,72
829,-15168,-4,722,-4691,23,-175,-80,68
830,-15162,-6,696,-4690,23,-175,-82,71
831,-15180,-34,760,-4695,23,-172,-80,71
832,-15148,-26,792,-4698,23,-173,-71,73
833,-15168,-62,728,-4693,23,-175,-79,69
834,-15140,-22,730,-4699,23,-178,-80,69
835,-15108,-10,816,-4691,23,-175,-70,68
836,-15130,-40,752,-4698,23,-172,-80,72
837,-15180,-28,824,-4692,23,-172,-76,71
838,-15190,-42,802,-4693,23,-173,-75,71
839,-15158,-48,794,-4691,23,-173,-82,70
840,-15146,-2,696,-4695,23,-173,-75,71
841,-15140,-6,742,-4695,23,-170,-76,67
842,-15150,-4,704,-4691,23,-170,-81,66
843,-15132,-10,692,-4697,23,-174,-78,68
844,-15116,16,756,-4687,23,-172,-80,68
845,-15192,-6,748,-4693,23,-174,-82,67
846,-15178,10,722,-4696,23,-173,-75,73
847,-15140,26,742,-4690,23,-171,-77,68
848,-15154,-2,694,-4693,23,-176,-78,74
849,-15180,28,744,-4694,23,-177,-74,68
850,-15198,26,750,-4698,23,-178,-77,68
851,-15166,-46,750,-4692,23,-175,-78,73
852,-15178,-40,726,-4688,23,-177,-78,70
853,-15148,2,768,-4693,23,-175,-82,68
854,-15144,-20,692,-4695,23,-174,-83,68
855,-15142,-48,752,-4703,23,-175,-78,68
856,-15168,-50,776,-4696,23,-179,-73,69
857,-15196,20,760,-4704,23,-173,-77,69
858,-15152,34,748,-4696,23,-171,-80,67
859,-15184,-12,782,-4699,23,-179,-69,69
860,-15150,-18,730,-4697,23,-174,-76,71
861,-15166,-6,734,-4706,23,-175,-71,77
862,-15190,36,696,-4693,23,-171,-76,75
863,-15156,-4,774,-4699,23,-173,-68,67
864,-15174,-12,752,-4697,23,-173,-73,72
865,-15164,-28,764,-4692,23,-175,-79,71
866,-15108,-6,802,-4693,23,-174,-76,71
867,-15136,34,698,-4693,23,-173,-76,76
868,-15106,-30,724,-4689,23,-181,-80,69
869,-15142,-36,770,-4690,23,-174,-82,71
870,-15150,20,744,-4697,23,-176,-83,72
871,-15164,-26,772,-4690,23,-174,-78,72
872,-15172,-8,706,-4693,23,-168,-77,68
873,-15172,-24,780,-4690,23,-178,-79,68
874,-15138,16,708,-4697,23,-172,-80,68
875,-15124,10,766,-4693,23,-171,-77,72
876,-15164,-8,856,-4698,23,-168,-72,72
877,-15180,-40,776,-4691,23,-175,-78,70
878,-15144,34,738,-4684,23,-172,-76,70
879,-15126,54,710,-4692,23,-177,-82,69
880,-15158,14,740,-4693,23,-172,-77,68
881,-15202,-4,748,-4700,23,-173,-77,71
882,-15166,-32,764,-4694,23,-170,-67,72
883,-15168,-2,734,-4695,23,-170,-74,66
884,-15178,-66,750,-4692,23,-179,-73,72
885,-15136,-36,722,-4696,23,-176,-77,69
886,-15188,8,748,-4695,23,-175,-77,68
887,-15114,-24,720,-4696,23,-172,-78,70
888,-15116,0,704,-4692,23,-176,-74,68
889,-15158,-22,742,-4692,23,-174,-78,68
890,-15170,-18,728,-4692,23,-172,-77,69
891,-15144,-38,722,-4696,23,-173,-76,70
892,-15174,-38,836,-4694,23,-172,-80,71
893,-15142,8,760,-4690,23,-176,-75,68
894,-15152,2,676,-4691,23,-174,-81,65
895,-15128,-38,692,-4687,23,-174,-78,67
896,-15192,-26,710,-4697,23,-174,-75,66
897,-15142,-6,722,-4690,23,-175,-76,70
898,-15156,-6,724,-4690,23,-174,-75,67
899,-15158,-70,740,-4694,23,-168,-80,69
900,-15150,-20,720,-4692,23,-177,-75,70
901,-15148,8,772,-4693,23,-171,-74,65
902,-15170,6,742,-4703,23,-171,-80,63
903,-15144,-26,756,-4692,23,-175,-78,64
904,-15218,-44,728,-4694,23,-176,-75,69
905,-15138,-4,738,-4697,23,-171,-75,68
906,-15150,18,736,-4696,23,-173,-79,72
907,-15182,2,730,-4692,23,-171,-75,70
908,-15132,14,742,-4700,23,-175,-79,74
909,-15144,-30,732,-4696,23,-173,-74,70
910,-15176,6,758,-4701,23,-169,-74,72
911,-15154,56,720,-4701,23,-173,-79,64
912,-15164,-4,802,-4695,23,-171,-74,68
913,-15178,-30,762,-4689,23,-176,-76,71
914,-15184,-34,744,-4692,23,-176,-75,68
915,-15114,-4,778,-4687,23,-175,-76,73
916,-15106,-50,704,-4696,23,-168,-75,74
917,-15146,-10,702,-4693,23,-173,-76,71
918,-15188,-42,762,-4695,23,-176,-79,70
919,-15188,-34,712,-4694,23,-174,-79,71
920,-15206,-40,790,-4697,23,-174,-76,72
921,-15188,-18,744,-4691,23,-175,-73,72
922,-15154,-50,764,-4697,23,-172,-74,76
923,-15118,-24,784,-4702,23,-175,-75,69
924,-15136,-32,752,-4692,23,-171,-73,72
925,-15168,-28,754,-4699,23,-178,-77,69
926,-15158,-42,794,-4699,23,-172,-75,72
927,-15106,-48,738,-4697,23,-175,-76,69
928,-15164,-18,738,-4687,23,-177,-72,67
929,-15162,-16,672,-4698,23,-177,-76,67
930,-15156,-42,770,-4691,23,-173,-74,66
931,-15140,-34,672,-4694,23,-169,-77,70
932,-15180,-4,758,-4696,23,-172,-81,68
933,-15134,-12,736,-4690,23,-170,-75,73
934,-15158,8,726,-4695,23,-173,-77,68
935,-15188,12,720,-4689,23,-173,-71,70
936,-15122,-20,778,-4696,23,-176,-67,65
937,-15172,6,762,-4704,23,-175,-77,74
938,-15176,-98,770,-4697,23,-175,-83,69
939,-15156,-26,766,-4700,23,-177,-78,71
940,-15140,20,822,-4692,23,-176,-77,68
941,-15142,4,732,-4692,23,-171,-76,71
942,-15166,-28,780,-4694,23,-176,-77,70
943,-15168,2,740,-4700,23,-171,-74,68
944,-15164,-8,776,-4694,23,-176,-77,69
945,-15158,22,734,-4699,23,-175,-74,66
946,-15172,-2,702,-4695,23,-175,-81,67
947,-15176,-4,668,-4698,23,-176,-77,69
948,-15118,-40,730,-4700,23,-169,-78,73
949,-15150,14,814,-4699,23,-176,-83,70
950,-15146,-12,752,-4693,23,-179,-82,71
951,-15132,8,758,-4684,23,-174,-73,67
952,-15170,-26,758,-4690,23,-174,-75,71
953,-15194,-10,764,-4692,23,-177,-73,67
954,-15136,-10,750,-4694,23,-172,-79,69
955,-15120,-4,738,-4695,23,-177,-73,70
956,-15204,-2,702,-4696,23,-175,-75,68
957,-15168,-12,750,-4687,23,-174,-76,69
958,-15146,-42,776,-4691,23,-178,-75,72
959,-15140,-56,726,-4697,23,-177,-77,68
960,-15116,4,732,-4690,23,-170,-77,70
961,-15174,-4,716,-4700,23,-175,-76,68
962,-15150,-62,754,-4686,23,-172,-71,75
963,-15140,4,778,-4687,23,-174,-74,72
964,-15142,-6,790,-4701,23,-173,-71,71
965,-15172,-50,758,-4689,23,-176,-77,67
966,-15176,-32,766,-4700,23,-177,-76,70
967,-15196,-38,754,-4697,23,-173,-70,66
968,-15166,-20,736,-4695,23,-173,-81,65
969,-15142,4,728,-4686,23,-176,-80,65
970,-15192,-16,742,-4688,23,-165,-75,66
971,-15146,18,770,-4694,23,-174,-79,70
972,-15186,6,786,-4696,23,-177,-79,70
973,-15104,-16,696,-4695,23,-177,-79,67
974,-15160,-4,780,-4690,23,-173,-79,69
975,-15184,20,784,-4683,23,-173,-77,68
976,-15172,-8,748,-4686,23,-175,-78,70
977,-15128,-6,736,-4696,23,-168,-73,66
978,-15210,-16,728,-4691,23,-174,-75,71
979,-15168,-26,746,-4686,23,-170,-76,71
980,-15180,0,778,-4695,23,-173,-80,72
981,-15140,-12,696,-4706,23,-178,-77,66
982,-15118,-6,730,-4696,23,-174,-74,69
983,-15176,-26,726,-4697,23,-172,-77,71
984,-15186,-14,720,-4696,23,-177,-74,73
985,-15144,-2,686,-4687,23,-174,-70,70
986,-15190,-36,710,-4694,23,-171,-77,70
987,-15152,-8,758,-4687,23,-176,-82,67
988,-15172,-12,734,-4693,23,-171,-78,70
989,-15164,-10,718,-4693,23,-174,-71,70
990,-15154,-12,728,-4687,23,-176,-74,75
991,-15132,-12,722,-4688,23,-173,-79,67
992,-15150,-22,722,-4689,23,-171,-80,71
993,-15112,-6,796,-4695,23,-173,-74,70
994,-15154,-20,660,-4700,23,-177,-74,65
995,-15148,-2,778,-4688,23,-179,-76,69
996,-15154,24,750,-4686,23,-177,-77,74
997,-15152,-26,736,-4684,23,-168,-76,66
998,-15160,-20,694,-4684,23,-177,-79,68
