,acc_X,acc_Y,acc_Z,temp,tempC,gyr_X,gyr_Y,gyr_Z
0,-7592,14,365,-4726,23,-351,-161,137
1,-7607,-24,376,-4725,23,-352,-160,132
2,-7555,9,372,-4718,23,-353,-166,150
3,-7585,-2,352,-4725,23,-339,-144,129
4,-7590,-17,345,-4714,23,-358,-166,137
5,-7548,-8,378,-4711,23,-341,-147,143
6,-7586,2,394,-4715,23,-351,-136,135
7,-7595,-42,393,-4706,23,-344,-168,152
8,-7562,36,363,-4714,23,-345,-166,133
9,-7614,16,373,-4718,23,-361,-138,131
10,-7568,13,335,-4721,23,-341,-148,132
11,-7581,-12,390,-4714,23,-350,-159,139
12,-7578,-33,375,-4711,23,-352,-162,159
13,-7594,-2,383,-4732,23,-351,-154,130
14,-7558,-30,359,-4712,23,-349,-152,160
15,-7567,0,339,-4719,23,-354,-169,150
16,-7601,26,303,-4718,23,-355,-157,143
17,-7596,-19,363,-4709,23,-352,-145,146
18,-7591,9,371,-4719,23,-341,-164,127
19,-7536,-16,388,-4721,23,-351,-140,143
20,-7565,-10,397,-4712,23,-345,-149,138
21,-7608,-17,350,-4720,23,-353,-170,153
22,-7560,12,357,-4718,23,-336,-153,155
23,-7577,-13,393,-4718,23,-357,-158,136
24,-7579,-3,380,-4724,23,-345,-168,136
25,-7575,-8,395,-4709,23,-348,-154,132
26,-7559,-49,339,-4713,23,-353,-155,132
27,-7558,-15,391,-4726,23,-334,-158,140
28,-7576,-19,392,-4711,23,-348,-145,135
29,-7578,-34,396,-4716,23,-342,-150,144
30,-7575,5,327,-4725,23,-348,-144,136
31,-7582,3,390,-4721,23,-355,-148,135
32,-7583,9,386,-4715,23,-352,-141,133
33,-7575,-5,376,-4714,23,-351,-160,144
34,-7579,-2,375,-4725,23,-351,-151,129
35,-7529,10,368,-4714,23,-351,-145,135
36,-7589,-20,364,-4717,23,-343,-151,138
37,-7582,4,374,-4707,23,-345,-159,135
38,-7557,-12,358,-4721,23,-352,-164,133
39,-7614,-3,335,-4725,23,-343,-161,143
40,-7597,-23,396,-4724,23,-347,-149,133
41,-7611,2,348,-4715,23,-349,-155,150
42,-7631,-22,414,-4724,23,-333,-155,146
43,-7590,-5,354,-4711,23,-353,-142,129
44,-7598,-15,341,-4726,23,-353,-152,151
45,-7574,41,368,-4713,23,-346,-153,144
46,-7569,13,367,-4715,23,-346,-149,138
47,-7582,-19,317,-4712,23,-356,-158,133
48,-7582,7,358,-4711,23,-354,-157,127
49,-7573,-54,372,-4717,23,-343,-149,135
50,-7590,-2,371,-4721,23,-346,-147,141
51,-7576,-2,362,-4718,23,-350,-151,135
52,-7579,-59,381,-4710,23,-348,-155,137
53,-7584,3,403,-4717,23,-348,-164,145
54,-7610,-7,331,-4715,23,-343,-158,158
55,-7553,8,329,-4720,23,-351,-154,149
56,-7599,-31,399,-4721,23,-354,-160,135
57,-7575,18,371,-4722,23,-353,-152,144
58,-7588,10,368,-4721,23,-354,-164,144
59,-7565,-11,315,-4711,23,-362,-152,138
60,-7591,-13,371,-4720,23,-341,-148,138
61,-7546,-31,389,-4721,23,-346,-156,137
62,-7587,0,397,-4719,23,-348,-153,143
63,-7585,0,374,-4714,23,-339,-151,140
64,-7566,-27,366,-4727,23,-347,-155,153
65,-7594,12,413,-4712,23,-364,-161,145
66,-7591,-24,405,-4723,23,-347,-159,143
67,-7610,-14,354,-4713,23,-352,-149,141
68,-7564,11,398,-4715,23,-336,-136,144
69,-7596,-18,421,-4713,23,-349,-151,136
70,-7574,8,386,-4716,23,-344,-155,144
71,-7567,-11,357,-4713,23,-356,-161,147
72,-7571,-42,402,-4710,23,-337,-166,143
73,-7578,-25,353,-4716,23,-328,-148,141
74,-7570,1,360,-4712,23,-351,-145,140
75,-7583,-5,334,-4716,23,-352,-152,143
76,-7582,30,358,-4714,23,-343,-158,141
77,-7566,11,378,-4713,23,-339,-150,144
78,-7562,-14,377,-4722,23,-350,-147,142
79,-7615,-5,342,-4717,23,-340,-174,134
80,-7592,-12,368,-4716,23,-355,-144,140
81,-7578,-1,360,-4718,23,-343,-148,136
82,-7563,-13,372,-4720,23,-345,-154,136
83,-7562,11,398,-4718,23,-371,-160,139
84,-7567,-11,357,-4720,23,-351,-157,134
85,-7576,-19,357,-4718,23,-341,-154,128
86,-7566,-38,390,-4712,23,-349,-158,141
87,-7562,-14,338,-4724,23,-345,-142,142
88,-7589,-4,380,-4716,23,-349,-143,141
89,-7570,-14,391,-4723,23,-358,-155,131
90,-7585,-13,370,-4719,23,-351,-163,151
91,-7593,1,376,-4721,23,-330,-162,151
92,-7552,-5,383,-4721,23,-346,-145,151
93,-7556,-1,338,-4713,23,-346,-154,133
94,-7599,25,384,-4723,23,-354,-134,137
95,-7572,-4,419,-4714,23,-341,-145,141
96,-7599,9,370,-4719,23,-336,-152,145
97,-7555,-8,365,-4723,23,-346,-157,144
98,-7567,-21,380,-4711,23,-342,-146,139
99,-7568,-5,391,-4719,23,-350,-141,153
100,-7594,0,344,-4721,23,-347,-147,130
101,-7561,-4,408,-4717,23,-356,-144,151
102,-7561,-11,402,-4713,23,-358,-164,133
103,-7575,-5,387,-4716,23,-345,-144,140
104,-7568,-7,388,-4713,23,-356,-146,144
105,-7570,-8,392,-4713,23,-345,-152,148
106,-7596,-30,337,-4717,23,-350,-159,146
107,-7599,-6,393,-4722,23,-346,-146,143
108,-7567,-5,390,-4704,23,-347,-144,143
109,-7555,-13,403,-4707,23,-346,-155,144
110,-7587,11,358,-4721,23,-351,-151,147
111,-7603,-13,376,-4712,23,-359,-155,139
112,-7561,-11,372,-4724,23,-348,-145,147
113,-7563,-20,413,-4703,23,-352,-163,148
114,-7550,1,384,-4712,23,-332,-154,144
115,-7570,0,358,-4726,23,-351,-150,137
116,-7584,5,401,-4716,23,-350,-148,136
117,-7573,-12,353,-4717,23,-344,-152,134
118,-7567,-26,366,-4709,23,-344,-136,150
119,-7556,10,363,-4714,23,-349,-147,133
120,-7575,17,351,-4724,23,-351,-160,132
121,-7601,-12,368,-4723,23,-346,-147,135
122,-7579,26,389,-4715,23,-355,-154,139
123,-7565,6,366,-4717,23,-355,-142,133
124,-7586,-33,316,-4722,23,-349,-157,135
125,-7582,-18,327,-4720,23,-345,-151,135
126,-7568,-1,394,-4712,23,-345,-164,136
127,-7548,7,371,-4702,23,-346,-157,150
128,-7540,-14,363,-4716,23,-358,-156,133
129,-7592,7,365,-4718,23,-344,-162,135
130,-7597,-13,351,-4718,23,-345,-145,138
131,-7582,-6,417,-4717,23,-343,-146,129
132,-7557,-14,374,-4716,23,-348,-150,146
133,-7590,-5,381,-4709,23,-350,-159,136
134,-7566,-2,351,-4711,23,-347,-163,129
135,-7611,-17,389,-4711,23,-353,-156,144
136,-7566,-1,385,-4711,23,-355,-140,133
137,-7571,-30,335,-4714,23,-360,-146,140
138,-7575,-4,382,-4719,23,-339,-154,133
139,-7585,-21,393,-4712,23,-347,-141,142
140,-7569,-8,378,-4710,23,-359,-155,140
141,-7599,-21,357,-4711,23,-329,-153,142
142,-7571,-23,382,-4723,23,-354,-153,143
143,-7581,-12,383,-4722,23,-349,-159,130
144,-7568,5,380,-4718,23,-347,-158,144
145,-7595,-3,367,-4716,23,-342,-157,150
146,-7593,6,359,-4708,23,-342,-157,138
147,-7580,-7,393,-4711,23,-354,-163,142
148,-7560,-6,387,-4716,23,-345,-149,140
149,-7593,-16,370,-4716,23,-351,-155,131
150,-7588,-25,369,-4719,23,-360,-145,143
151,-7588,-21,367,-4711,23,-333,-144,138
152,-7570,18,405,-4712,23,-350,-162,132
153,-7573,-18,397,-4721,23,-343,-156,140
154,-7607,-8,371,-4702,23,-350,-153,146
155,-7598,-8,407,-4710,23,-345,-153,136
156,-7598,-16,384,-4714,23,-340,-150,130
157,-7582,10,373,-4720,23,-349,-159,147
158,-7557,-26,371,-4709,23,-341,-158,137
159,-7581,3,389,-4704,23,-351,-150,149
160,-7553,23,359,-4713,23,-350,-155,142
161,-7592,5,375,-4708,23,-347,-161,128
162,-7558,-9,358,-4709,23,-351,-167,140
163,-7597,-29,363,-4724,23,-351,-152,144
164,-7580,-5,340,-4721,23,-344,-152,142
165,-7583,-13,340,-4716,23,-328,-150,129
166,-7586,-19,355,-4718,23,-345,-153,146
167,-7579,14,364,-4717,23,-339,-167,129
168,-7590,-2,355,-4720,23,-338,-156,145
169,-7606,15,364,-4717,23,-358,-154,144
170,-7563,10,343,-4710,23,-354,-152,139
171,-7553,6,401,-4709,23,-349,-141,143
172,-7580,14,405,-4714,23,-348,-143,131
173,-7585,-3,379,-4716,23,-345,-159,129
174,-7602,-5,356,-4712,23,-347,-161,139
175,-7563,-19,379,-4719,23,-341,-169,145
176,-7568,-11,389,-4712,23,-341,-155,140
177,-7594,-12,348,-4711,23,-352,-154,136
178,-7585,4,412,-4710,23,-334,-151,144
179,-7566,28,380,-4715,23,-338,-154,133
180,-7559,-11,364,-4722,23,-335,-172,141
181,-7599,-33,382,-4720,23,-353,-160,136
182,-7574,-2,361,-4704,23,-336,-162,149
183,-7561,-28,383,-4710,23,-342,-149,149
184,-7613,22,398,-4714,23,-342,-162,139
185,-7576,6,389,-4727,23,-349,-157,146
186,-7610,-10,315,-4716,23,-343,-164,144
187,-7611,0,359,-4717,23,-347,-155,147
188,-7625,-4,433,-4717,23,-346,-151,138
189,-7570,-3,374,-4717,23,-349,-153,138
190,-7552,-7,392,-4715,23,-347,-146,140
191,-7573,-18,401,-4713,23,-353,-165,142
192,-7583,-3,381,-4721,23,-330,-157,133
193,-7561,9,373,-4712,23,-347,-146,141
194,-7561,-21,379,-4721,23,-350,-144,139
195,-7586,-15,348,-4724,23,-347,-154,138
196,-7592,36,364,-4715,23,-343,-162,132
197,-7585,-12,370,-4706,23,-356,-155,147
198,-7579,19,348,-4712,23,-359,-147,144
199,-7566,3,352,-4713,23,-337,-144,131
200,-7577,4,367,-4729,23,-346,-151,143
201,-7582,-4,383,-4710,23,-343,-151,140
202,-7577,-15,384,-4722,23,-341,-168,133
203,-7589,-18,380,-4727,23,-328,-143,137
204,-7555,11,381,-4719,23,-346,-139,141
205,-7597,-10,351,-4715,23,-332,-141,143
206,-7578,-26,353,-4715,23,-351,-152,137
207,-7570,-20,336,-4719,23,-337,-156,138
208,-7578,-30,387,-4718,23,-333,-156,140
209,-7563,13,383,-4721,23,-350,-156,139
210,-7562,12,339,-4716,23,-342,-157,123
211,-7563,4,365,-4711,23,-352,-143,144
212,-7588,-7,383,-4722,23,-345,-148,144
213,-7576,-24,394,-4724,23,-338,-158,147
214,-7611,-13,362,-4713,23,-338,-157,136
215,-7592,9,375,-4718,23,-352,-162,134
216,-7568,-10,352,-4711,23,-351,-155,133
217,-7598,1,390,-4715,23,-356,-152,135
218,-7564,-20,393,-4721,23,-352,-158,141
219,-7578,-37,360,-4718,23,-355,-142,151
220,-7555,-12,414,-4725,23,-353,-148,144
221,-7565,4,374,-4714,23,-339,-157,132
222,-7579,-8,376,-4723,23,-356,-148,146
223,-7579,-23,340,-4720,23,-353,-140,131
224,-7568,8,406,-4710,23,-359,-154,139
225,-7597,-31,376,-4724,23,-348,-157,143
226,-7555,-1,417,-4720,23,-354,-153,150
227,-7563,-11,362,-4728,23,-357,-163,138
228,-7554,-3,358,-4715,23,-352,-158,128
229,-7571,1,334,-4720,23,-358,-150,145
230,-7589,-2,367,-4712,23,-354,-170,151
231,-7572,-19,330,-4718,23,-336,-137,147
232,-7598,2,430,-4710,23,-345,-152,129
233,-7573,8,371,-4714,23,-353,-149,152
234,-7596,-3,369,-4712,23,-350,-168,145
235,-7565,-18,380,-4716,23,-346,-150,134
236,-7596,16,429,-4718,23,-355,-152,135
237,-7578,-27,356,-4720,23,-340,-164,141
238,-7576,-17,360,-4720,23,-364,-154,141
239,-7573,7,393,-4718,23,-337,-163,138
240,-7603,-17,369,-4724,23,-342,-149,138
241,-7584,0,385,-4714,23,-348,-156,143
242,-7571,-12,433,-4716,23,-352,-154,153
243,-7562,-10,356,-4720,23,-333,-140,141
244,-7581,19,386,-4713,23,-350,-166,142
245,-7559,-23,367,-4721,23,-336,-147,144
246,-7566,-18,373,-4720,23,-362,-154,139
247,-7581,11,411,-4714,23,-342,-148,147
248,-7603,-12,298,-4713,23,-344,-150,133
249,-7577,15,346,-4723,23,-354,-152,149
250,-7568,10,360,-4713,23,-347,-158,146
251,-7555,-32,346,-4725,23,-350,-144,146
252,-7574,-5,354,-4716,23,-333,-146,139
253,-7582,-5,377,-4709,23,-347,-167,133
254,-7588,-4,389,-4715,23,-348,-158,134
255,-7587,-22,372,-4714,23,-349,-165,151
256,-7577,-11,377,-4725,23,-343,-166,150
257,-7565,-24,342,-4724,23,-339,-154,132
258,-7589,16,399,-4722,23,-348,-152,136
259,-7575,-4,380,-4725,23,-360,-154,141
260,-7568,-26,382,-4713,23,-332,-155,142
261,-7590,-11,426,-4707,23,-328,-167,132
262,-7587,2,402,-4719,23,-341,-160,136
263,-7560,-17,364,-4716,23,-345,-149,152
264,-7578,2,375,-4722,23,-352,-164,135
265,-7557,-3,362,-4730,23,-351,-137,139
266,-7612,-26,346,-4725,23,-338,-154,144
267,-7580,3,378,-4720,23,-341,-166,140
268,-7559,6,369,-4723,23,-345,-151,141
269,-7619,-17,341,-4714,23,-346,-163,147
270,-7546,-14,350,-4719,23,-344,-163,137
271,-7548,-7,384,-4716,23,-349,-155,146
272,-7617,18,382,-4709,23,-342,-144,139
273,-7615,11,380,-4717,23,-343,-149,127
274,-7572,-15,388,-4720,23,-348,-155,134
275,-7586,-36,374,-4720,23,-351,-165,143
276,-7607,-11,401,-4723,23,-357,-149,138
277,-7564,-27,407,-4725,23,-343,-147,139
278,-7556,10,365,-4718,23,-345,-149,144
279,-7600,-9,383,-4712,23,-348,-172,146
280,-7548,7,351,-4727,23,-347,-161,136
281,-7590,30,372,-4716,23,-343,-162,156
282,-7545,-26,325,-4716,23,-337,-146,155
283,-7560,-10,366,-4720,23,-348,-164,130
284,-7575,-1,357,-4718,23,-356,-167,142
285,-7563,-24,410,-4717,23,-354,-138,141
286,-7522,-7,350,-4717,23,-346,-151,149
287,-7589,-12,330,-4724,23,-350,-142,163
288,-7580,0,409,-4714,23,-348,-149,142
289,-7613,17,383,-4713,23,-339,-152,140
290,-7575,-36,391,-4718,23,-354,-153,140
291,-7584,1,315,-4718,23,-345,-152,136
292,-7581,17,400,-4717,23,-351,-158,142
293,-7550,-4,417,-4718,23,-344,-141,132
294,-7571,-2,379,-4712,23,-352,-157,132
295,-7577,-10,361,-4712,23,-358,-149,140
296,-7554,11,375,-4714,23,-356,-160,146
297,-7593,-20,395,-4716,23,-345,-151,142
298,-7575,-25,373,-4726,23,-359,-159,147
299,-7616,18,331,-4725,23,-338,-149,133
300,-7581,-23,364,-4718,23,-356,-148,136
301,-7573,-26,402,-4729,23,-347,-159,144
302,-7595,-7,373,-4717,23,-361,-160,148
303,-7550,11,375,-4715,23,-358,-159,143
304,-7565,-19,357,-4711,23,-352,-159,141
305,-7566,-13,378,-4728,23,-357,-155,140
306,-7561,-23,375,-4713,23,-346,-151,141
307,-7565,-21,359,-4719,23,-353,-155,138
308,-7560,-27,341,-4717,23,-336,-161,138
309,-7603,-4,405,-4708,23,-334,-145,142
310,-7587,-11,384,-4708,23,-351,-139,150
311,-7583,2,370,-4716,23,-357,-168,149
312,-7599,-20,396,-4716,23,-347,-147,147
313,-7585,-25,390,-4712,23,-330,-163,133
314,-7558,-12,410,-4727,23,-345,-158,146
315,-7569,-3,323,-4720,23,-349,-148,143
316,-7559,7,344,-4711,23,-355,-144,143
317,-7560,7,354,-4729,23,-357,-149,141
318,-7556,-11,365,-4724,23,-356,-152,135
319,-7587,-6,342,-4705,23,-346,-145,145
320,-7591,-6,398,-4718,23,-346,-145,137
321,-7545,8,348,-4717,23,-356,-157,152
322,-7573,-17,347,-4714,23,-353,-145,145
323,-7595,2,400,-4714,23,-365,-143,143
324,-7586,9,374,-4718,23,-349,-140,133
325,-7556,-18,422,-4709,23,-342,-153,140
326,-7598,6,424,-4713,23,-355,-160,142
327,-7588,2,341,-4713,23,-358,-146,139
328,-7591,-7,358,-4713,23,-350,-140,138
329,-7552,-12,358,-4717,23,-350,-147,136
330,-7597,-25,363,-4706,23,-346,-142,141
331,-7593,-55,380,-4714,23,-347,-155,141
332,-7578,-9,313,-4716,23,-353,-155,134
333,-7580,-29,365,-4711,23,-358,-141,144
334,-7581,4,371,-4716,23,-353,-139,138
335,-7552,-11,355,-4720,23,-344,-155,136
336,-7599,-8,396,-4714,23,-354,-152,143
337,-7590,-21,399,-4715,23,-354,-143,138
338,-7592,19,375,-4729,23,-338,-146,141
339,-7578,-20,349,-4719,23,-353,-146,149
340,-7609,-6,381,-4709,23,-349,-154,132
341,-7577,-12,419,-4720,23,-343,-167,135
342,-7589,-20,315,-4714,23,-354,-148,123
343,-7599,-8,366,-4700,23,-355,-146,137
344,-7600,-4,370,-4712,23,-336,-155,146
345,-7611,-8,402,-4705,23,-345,-145,146
346,-7572,-24,374,-4712,23,-351,-163,138
347,-7584,11,362,-4720,23,-345,-150,158
348,-7565,-22,360,-4725,23,-353,-149,132
349,-7591,6,337,-4718,23,-349,-166,148
350,-7582,-11,357,-4718,23,-348,-150,134
351,-7581,-21,426,-4725,23,-346,-155,130
352,-7595,7,368,-4710,23,-354,-162,135
353,-7602,-7,404,-4708,23,-353,-166,144
354,-7549,-22,326,-4718,23,-338,-143,135
355,-7576,9,391,-4724,23,-344,-172,144
356,-7586,-14,379,-4711,23,-346,-155,144
357,-7595,-32,378,-4714,23,-345,-154,143
358,-7600,-25,396,-4711,23,-334,-155,137
359,-7594,-18,376,-4703,23,-350,-149,142
360,-7613,20,370,-4713,23,-352,-154,145
361,-7582,-4,360,-4722,23,-338,-147,131
362,-7568,3,394,-4712,23,-339,-146,145
363,-7601,-5,401,-4713,23,-345,-142,141
364,-7574,12,358,-4705,23,-342,-158,136
365,-7586,-19,342,-4711,23,-354,-148,142
366,-7595,-10,365,-4713,23,-361,-162,142
367,-7587,11,374,-4719,23,-349,-152,149
368,-7606,-2,358,-4712,23,-347,-156,142
369,-7580,14,371,-4719,23,-341,-147,139
370,-7577,-7,375,-4721,23,-353,-144,135
371,-7586,12,380,-4708,23,-339,-150,123
372,-7565,2,371,-4712,23,-348,-150,125
373,-7601,-15,384,-4709,23,-340,-159,150
374,-7576,16,346,-4716,23,-335,-164,145
375,-7570,-13,394,-4703,23,-359,-154,145
376,-7551,-6,360,-4711,23,-341,-142,130
377,-7583,-2,382,-4713,23,-343,-150,139
378,-7577,-10,372,-4718,23,-341,-156,135
379,-7575,4,336,-4724,23,-341,-184,128
380,-7548,-46,351,-4702,23,-351,-146,146
381,-7570,-12,367,-4718,23,-347,-144,136
382,-7572,14,363,-4706,23,-345,-148,157
383,-7525,13,359,-4713,23,-342,-161,128
384,-7577,9,391,-4716,23,-342,-147,143
385,-7616,6,402,-4719,23,-339,-150,139
386,-7590,1,347,-4715,23,-339,-137,151
387,-7585,-29,401,-4715,23,-347,-151,128
388,-7586,-6,359,-4716,23,-348,-154,152
389,-7576,-1,394,-4722,23,-359,-159,139
390,-7550,-2,382,-4711,23,-342,-152,150
391,-7555,-21,366,-4717,23,-341,-146,141
392,-7582,-12,366,-4713,23,-339,-157,143
393,-7571,9,361,-4714,23,-349,-142,144
394,-7569,-16,388,-4718,23,-351,-140,123
395,-7580,7,406,-4713,23,-352,-147,141
396,-7554,19,402,-4719,23,-352,-160,140
397,-7553,0,338,-4717,23,-338,-136,151
398,-7574,10,362,-4715,23,-337,-165,132
399,-7551,-14,371,-4723,23,-349,-149,144
400,-7576,4,401,-4711,23,-349,-154,141
401,-7600,-9,392,-4716,23,-348,-156,143
402,-7540,-18,376,-4707,23,-353,-151,149
403,-7578,-16,385,-4713,23,-343,-152,150
404,-7574,-18,309,-4715,23,-359,-163,143
405,-7553,-23,340,-4729,23,-332,-149,143
406,-7589,3,361,-4727,23,-344,-166,139
407,-7546,0,426,-4720,23,-346,-153,150
408,-7604,-4,395,-4710,23,-342,-170,136
409,-7585,1,393,-4710,23,-343,-170,137
410,-7596,8,353,-4721,23,-351,-160,148
411,-7569,13,383,-4721,23,-344,-152,144
412,-7604,12,407,-4710,23,-345,-150,134
413,-7598,-6,383,-4711,23,-349,-143,144
414,-7560,1,342,-4727,23,-349,-140,144
415,-7587,-5,347,-4717,23,-352,-148,141
416,-7585,1,370,-4716,23,-362,-159,125
417,-7566,11,370,-4718,23,-354,-165,142
418,-7585,-17,418,-4712,23,-345,-145,137
419,-7561,-7,334,-4702,23,-346,-152,139
420,-7572,0,399,-4714,23,-342,-155,141
421,-7607,-38,391,-4719,23,-339,-135,133
422,-7586,-32,390,-4713,23,-350,-164,137
423,-7583,33,402,-4708,23,-341,-148,146
424,-7603,6,383,-4715,23,-349,-150,136
425,-7588,-24,361,-4719,23,-362,-149,139
426,-7612,0,396,-4716,23,-351,-166,153
427,-7601,1,378,-4716,23,-367,-148,139
428,-7564,-9,375,-4715,23,-333,-149,122
429,-7591,14,364,-4710,23,-342,-154,137
430,-7610,-26,368,-4714,23,-354,-155,146
431,-7550,-8,379,-4717,23,-348,-157,140
432,-7567,-11,350,-4711,23,-342,-160,149
433,-7588,-30,346,-4708,23,-334,-150,132
434,-7598,-17,394,-4709,23,-349,-146,138
435,-7590,-27,388,-4710,23,-344,-153,145
436,-7567,10,383,-4714,23,-335,-163,132
437,-7575,-14,398,-4712,23,-360,-165,138
438,-7608,3,392,-4708,23,-357,-161,144
439,-7578,2,358,-4724,23,-355,-146,152
440,-7546,16,341,-4701,23,-350,-151,124
441,-7563,11,440,-4715,23,-342,-158,146
442,-7574,-17,373,-4704,23,-342,-166,151
443,-7583,15,386,-4719,23,-352,-158,150
444,-7574,-15,359,-4712,23,-347,-148,150
445,-7586,-5,374,-4706,23,-359,-150,121
446,-7628,25,316,-4722,23,-351,-159,141
447,-7577,-25,341,-4718,23,-346,-148,139
448,-7583,-2,370,-4710,23,-344,-158,134
449,-7567,-27,384,-4713,23,-348,-157,138
450,-7589,-5,395,-4715,23,-330,-156,147
451,-7583,6,390,-4718,23,-346,-155,136
452,-7596,37,367,-4713,23,-336,-148,131
453,-7582,12,357,-4725,23,-342,-162,144
454,-7575,-21,405,-4721,23,-341,-145,142
455,-7607,4,345,-4712,23,-350,-146,135
456,-7589,-7,373,-4714,23,-345,-151,136
457,-7601,-23,367,-4709,23,-357,-158,148
458,-7583,25,359,-4704,23,-353,-159,133
459,-7582,-8,364,-4707,23,-343,-157,148
460,-7579,-9,398,-4713,23,-347,-147,143
461,-7575,-9,395,-4709,23,-351,-164,139
462,-7572,3,370,-4716,23,-343,-137,152
463,-7607,12,381,-4715,23,-345,-152,137
464,-7607,-17,379,-4707,23,-338,-151,139
465,-7575,4,346,-4714,23,-346,-167,144
466,-7580,16,386,-4719,23,-333,-148,145
467,-7581,-8,335,-4713,23,-350,-165,140
468,-7546,-20,342,-4705,23,-340,-149,146
469,-7574,-24,357,-4725,23,-348,-153,134
470,-7573,-2,397,-4709,23,-337,-150,146
471,-7566,12,386,-4711,23,-357,-168,152
472,-7589,6,363,-4715,23,-344,-147,134
473,-7555,-2,408,-4717,23,-350,-161,136
474,-7569,-2,352,-4703,23,-339,-153,135
475,-7586,-16,374,-4725,23,-352,-154,137
476,-7596,-30,398,-4713,23,-364,-153,133
477,-7559,-31,356,-4717,23,-349,-157,135
478,-7584,-24,358,-4715,23,-340,-163,133
479,-7597,11,383,-4714,23,-348,-153,152
480,-7605,10,379,-4716,23,-348,-160,134
481,-7564,9,366,-4721,23,-351,-166,140
482,-7596,-21,383,-4722,23,-344,-162,152
483,-7531,30,407,-4703,23,-350,-160,137
484,-7601,9,335,-4702,23,-341,-164,134
485,-7562,-16,359,-4714,23,-345,-163,136
486,-7562,11,406,-4710,23,-345,-162,143
487,-7569,17,359,-4719,23,-358,-141,149
488,-7605,12,380,-4714,23,-339,-144,145
489,-7607,-17,354,-4715,23,-359,-158,134
490,-7573,-2,383,-4723,23,-338,-141,139
491,-7591,-8,362,-4715,23,-354,-156,143
492,-7563,-19,360,-4707,23,-353,-147,131
493,-7585,26,387,-4705,23,-357,-155,146
494,-7590,-38,362,-4718,23,-336,-160,137
495,-7583,13,333,-4706,23,-330,-166,130
496,-7593,22,355,-4709,23,-343,-157,149
497,-7574,-6,377,-4710,23,-357,-149,151
498,-7575,5,380,-4721,23,-354,-167,145
499,-7557,-35,387,-4697,23,-363,-147,129
500,-7582,7,382,-4707,23,-336,-150,137
501,-7614,-19,369,-4713,23,-362,-161,127
502,-7573,-4,350,-4714,23,-348,-139,139
503,-7564,-10,356,-4710,23,-360,-155,144
504,-7582,-3,417,-4715,23,-344,-153,137
505,-7571,-25,328,-4707,23,-332,-154,139
506,-7565,-10,372,-4704,23,-343,-148,149
507,-7557,27,369,-4709,23,-351,-152,129
508,-7584,-7,344,-4710,23,-353,-133,142
509,-7611,-12,385,-4710,23,-349,-140,144
510,-7624,-23,353,-4702,23,-351,-162,153
511,-7569,-29,417,-4730,23,-353,-164,150
512,-7582,11,346,-4718,23,-352,-138,139
513,-7582,-8,385,-4709,23,-339,-150,136
514,-7561,19,406,-4709,23,-353,-159,137
515,-7565,6,350,-4708,23,-347,-158,139
516,-7600,-12,368,-4712,23,-356,-161,146
517,-7612,-16,374,-4719,23,-347,-147,140
518,-7597,10,365,-4721,23,-354,-154,137
519,-7579,-16,353,-4717,23,-336,-156,157
520,-7570,-3,453,-4702,23,-357,-138,138
521,-7582,5,358,-4714,23,-340,-156,142
522,-7576,30,386,-4715,23,-347,-146,138
523,-7580,-2,338,-4716,23,-336,-156,127
524,-7567,14,368,-4713,23,-344,-152,129
525,-7581,6,366,-4713,23,-355,-150,140
526,-7598,-10,353,-4722,23,-345,-159,144
527,-7558,-22,367,-4709,23,-346,-151,144
528,-7591,14,361,-4712,23,-345,-156,148
529,-7563,-27,380,-4708,23,-341,-153,135
530,-7590,-23,372,-4711,23,-341,-167,141
531,-7564,-19,398,-4708,23,-348,-145,135
532,-7615,-36,364,-4720,23,-349,-154,137
533,-7576,-28,366,-4718,23,-349,-155,134
534,-7572,-28,382,-4719,23,-351,-155,138
535,-7579,-45,369,-4717,23,-351,-153,132
536,-7561,-10,410,-4712,23,-354,-145,137
537,-7557,-20,363,-4714,23,-332,-150,144
538,-7585,-22,377,-4718,23,-354,-151,124
539,-7595,3,378,-4710,23,-334,-151,141
540,-7542,-23,368,-4712,23,-347,-151,133
541,-7580,-35,362,-4719,23,-346,-162,138
542,-7575,6,352,-4720,23,-343,-146,138
543,-7598,4,389,-4716,23,-348,-157,140
544,-7592,-5,325,-4714,23,-346,-140,143
545,-7566,-53,352,-4710,23,-334,-154,144
546,-7578,-22,384,-4706,23,-345,-153,144
547,-7533,-8,323,-4712,23,-360,-149,129
548,-7603,-14,368,-4715,23,-362,-158,149
549,-7595,-14,378,-4715,23,-338,-160,143
550,-7589,-4,398,-4714,23,-341,-159,145
551,-7570,-1,344,-4719,23,-345,-158,121
552,-7565,-20,368,-4726,23,-363,-146,130
553,-7568,-26,403,-4717,23,-351,-135,148
554,-7578,-14,379,-4721,23,-338,-152,145
555,-7593,-14,417,-4698,23,-345,-140,137
556,-7572,17,374,-4706,23,-344,-137,145
557,-7589,-13,347,-4714,23,-348,-151,149
558,-7564,-26,354,-4698,23,-341,-159,141
559,-7591,-22,385,-4705,23,-351,-162,135
560,-7549,2,361,-4714,23,-346,-169,159
561,-7580,0,405,-4715,23,-344,-158,147
562,-7581,-1,387,-4708,23,-347,-156,150
563,-7569,-8,411,-4707,23,-349,-154,125
564,-7592,-6,365,-4707,23,-353,-154,128
565,-7582,21,341,-4719,23,-366,-166,138
566,-7574,-18,336,-4711,23,-345,-152,141
567,-7588,6,372,-4708,23,-345,-161,139
568,-7590,-1,378,-4696,23,-346,-152,146
569,-7587,6,378,-4713,23,-352,-140,147
570,-7568,-30,416,-4715,23,-346,-146,123
571,-7577,6,393,-4720,23,-349,-150,145
572,-7592,-25,371,-4711,23,-345,-149,140
573,-7599,-19,401,-4713,23,-343,-159,143
574,-7556,8,383,-4714,23,-361,-160,147
575,-7594,-2,361,-4718,23,-335,-155,131
576,-7582,-7,373,-4706,23,-345,-148,138
577,-7571,-43,388,-4710,23,-341,-152,139
578,-7557,-8,389,-4706,23,-359,-147,134
579,-7582,11,403,-4712,23,-350,-136,145
580,-7602,-3,408,-4704,23,-352,-153,143
581,-7569,10,368,-4712,23,-348,-164,141
582,-7561,-21,397,-4720,23,-345,-159,148
583,-7595,-7,365,-4715,23,-346,-148,140
584,-7600,11,361,-4708,23,-353,-163,132
585,-7589,7,409,-4710,23,-339,-164,141
586,-7560,14,358,-4710,23,-360,-151,136
587,-7605,-4,398,-4720,23,-338,-174,149
588,-7571,-5,384,-4705,23,-339,-141,145
589,-7567,7,397,-4711,23,-344,-150,136
590,-7562,-8,369,-4709,23,-327,-156,147
591,-7563,2,363,-4709,23,-352,-164,131
592,-7591,7,361,-4713,23,-355,-150,150
593,-7538,-9,383,-4694,23,-337,-153,144
594,-7593,12,380,-4719,23,-342,-144,134
595,-7569,-6,372,-4710,23,-345,-162,140
596,-7590,-19,379,-4705,23,-354,-151,145
597,-7589,7,399,-4706,23,-352,-152,143
598,-7584,-2,365,-4710,23,-353,-158,146
599,-7579,-30,374,-4709,23,-353,-158,142
600,-7589,28,423,-4705,23,-350,-145,147
601,-7583,-17,391,-4708,23,-341,-150,142
602,-7578,20,350,-4706,23,-359,-156,147
603,-7576,-5,372,-4727,23,-354,-146,144
604,-7580,-3,327,-4703,23,-345,-154,148
605,-7535,-11,384,-4720,23,-348,-160,136
606,-7586,-16,348,-4706,23,-341,-144,141
607,-7544,0,399,-4718,23,-347,-161,148
608,-7590,-14,360,-4706,23,-344,-163,142
609,-7591,-11,376,-4718,23,-348,-156,142
610,-7597,-16,357,-4709,23,-356,-152,139
611,-7585,0,345,-4715,23,-346,-156,135
612,-7558,2,336,-4704,23,-356,-159,132
613,-7593,10,360,-4699,23,-347,-159,138
614,-7563,20,377,-4718,23,-350,-154,149
615,-7595,-15,402,-4709,23,-346,-157,150
616,-7573,-10,373,-4711,23,-350,-157,137
617,-7563,15,357,-4711,23,-346,-157,139
618,-7587,-8,376,-4704,23,-330,-155,131
619,-7591,-3,386,-4701,23,-348,-147,131
620,-7580,5,355,-4700,23,-333,-145,138
621,-7599,-19,354,-4717,23,-362,-145,136
622,-7571,9,374,-4705,23,-365,-146,138
623,-7573,-34,379,-4715,23,-358,-159,136
624,-7586,-20,410,-4712,23,-344,-158,138
625,-7573,-17,383,-4713,23,-348,-157,158
626,-7589,-24,345,-4708,23,-347,-146,139
627,-7581,9,387,-4713,23,-347,-151,143
628,-7566,-21,362,-4704,23,-353,-151,148
629,-7571,7,366,-4697,23,-342,-150,142
630,-7584,-4,351,-4716,23,-344,-147,146
631,-7581,-11,337,-4720,23,-351,-142,143
632,-7613,-23,362,-4719,23,-353,-161,141
633,-7595,1,358,-4710,23,-360,-156,151
634,-7585,10,414,-4710,23,-352,-146,151
635,-7578,7,386,-4711,23,-348,-142,142
636,-7596,-14,369,-4702,23,-342,-137,138
637,-7606,-10,353,-4700,23,-344,-149,146
638,-7589,-2,356,-4721,23,-347,-154,133
639,-7564,4,384,-4712,23,-343,-170,148
640,-7598,0,388,-4713,23,-343,-154,138
641,-7593,13,386,-4716,23,-350,-147,137
642,-7578,5,342,-4705,23,-348,-149,138
643,-7604,-20,361,-4704,23,-340,-164,145
644,-7560,22,426,-4699,23,-358,-154,143
645,-7566,-6,372,-4710,23,-348,-147,140
646,-7590,40,381,-4708,23,-333,-158,134
647,-7557,-1,326,-4703,23,-356,-156,141
648,-7594,-19,390,-4702,23,-342,-163,132
649,-7570,-14,386,-4708,23,-354,-162,147
650,-7581,6,379,-4705,23,-345,-148,123
651,-7554,-11,384,-4707,23,-342,-151,132
652,-7591,-30,377,-4706,23,-350,-152,134
653,-7581,-29,346,-4706,23,-347,-152,134
654,-7570,-7,381,-4707,23,-358,-146,137
655,-7580,14,403,-4708,23,-343,-162,142
656,-7630,-4,403,-4710,23,-347,-144,141
657,-7577,9,327,-4701,23,-354,-162,141
658,-7569,-27,370,-4713,23,-336,-152,150
659,-7589,-10,395,-4703,23,-367,-156,141
660,-7590,-4,320,-4710,23,-333,-161,129
661,-7589,-13,364,-4709,23,-344,-172,146
662,-7610,27,387,-4706,23,-356,-156,124
663,-7579,-1,372,-4713,23,-350,-161,143
664,-7566,-22,358,-4706,23,-342,-152,137
665,-7587,-18,361,-4715,23,-346,-168,139
666,-7564,-27,361,-4704,23,-349,-165,148
667,-7595,-16,372,-4703,23,-347,-160,147
668,-7562,2,336,-4709,23,-350,-173,135
669,-7569,-16,338,-4717,23,-346,-145,133
670,-7619,0,397,-4715,23,-344,-160,130
671,-7584,-37,357,-4718,23,-359,-166,143
672,-7568,14,365,-4703,23,-345,-155,137
673,-7553,25,392,-4700,23,-350,-143,138
674,-7586,3,390,-4703,23,-346,-165,134
675,-7579,5,360,-4714,23,-355,-157,139
676,-7610,-1,342,-4713,23,-363,-152,133
677,-7594,-27,392,-4723,23,-352,-156,160
678,-7576,-25,349,-4706,23,-336,-150,130
679,-7575,22,366,-4714,23,-336,-152,139
680,-7573,-3,352,-4716,23,-335,-152,144
681,-7581,25,408,-4709,23,-343,-157,140
682,-7579,-38,365,-4722,23,-348,-152,132
683,-7596,7,422,-4704,23,-341,-162,151
684,-7583,-16,386,-4705,23,-357,-175,141
685,-7593,-12,373,-4727,23,-350,-145,134
686,-7581,-36,322,-4715,23,-359,-153,138
687,-7595,-1,431,-4704,23,-341,-150,138
688,-7560,-35,412,-4710,23,-349,-138,143
689,-7578,-3,337,-4714,23,-347,-164,133
690,-7566,5,380,-4707,23,-349,-158,132
691,-7570,-20,371,-4713,23,-347,-155,140
692,-7600,-13,401,-4702,23,-355,-154,139
693,-7582,-5,386,-4706,23,-341,-155,130
694,-7566,3,393,-4713,23,-330,-166,149
695,-7566,-16,354,-4710,23,-354,-158,143
696,-7535,-8,400,-4713,23,-350,-158,149
697,-7567,4,363,-4705,23,-349,-149,128
698,-7573,-32,408,-4701,23,-342,-166,142
699,-7598,-21,366,-4702,23,-361,-142,149
700,-7568,-21,387,-4707,23,-356,-147,135
701,-7612,-21,338,-4709,23,-349,-162,148
702,-7558,-6,392,-4703,23,-333,-143,136
703,-7588,-34,386,-4718,23,-338,-148,143
704,-7560,-5,347,-4706,23,-344,-142,133
705,-7568,-8,347,-4707,23,-353,-144,138
706,-7576,-2,400,-4714,23,-331,-162,146
707,-7576,1,358,-4700,23,-356,-149,142
708,-7603,-13,390,-4697,23,-344,-167,138
709,-7588,-4,366,-4707,23,-350,-164,136
710,-7592,-3,365,-4720,23,-329,-150,142
711,-7572,16,345,-4701,23,-345,-170,128
712,-7553,-32,357,-4702,23,-340,-145,148
713,-7574,-30,325,-4702,23,-338,-157,136
714,-7582,-3,382,-4718,23,-346,-157,144
715,-7591,-22,347,-4701,23,-356,-136,148
716,-7579,-22,334,-4708,23,-340,-150,143
717,-7582,-29,371,-4711,23,-339,-154,138
718,-7569,-2,372,-4714,23,-339,-145,147
719,-7562,-3,388,-4721,23,-336,-158,136
720,-7580,-12,384,-4705,23,-341,-156,135
721,-7592,-9,406,-4704,23,-342,-142,143
722,-7574,-3,439,-4709,23,-340,-154,140
723,-7585,-27,360,-4700,23,-335,-148,142
724,-7581,-16,369,-4708,23,-341,-165,139
725,-7586,16,359,-4709,23,-351,-159,148
726,-7567,-45,373,-4706,23,-348,-145,144
727,-7572,-29,398,-4710,23,-344,-152,144
728,-7576,-26,370,-4711,23,-342,-143,129
729,-7571,25,363,-4701,23,-351,-146,145
730,-7599,31,358,-4709,23,-347,-145,140
731,-7612,-28,341,-4703,23,-357,-153,122
732,-7552,-14,347,-4702,23,-351,-153,144
733,-7559,-2,344,-4701,23,-344,-150,152
734,-7556,-13,351,-4715,23,-351,-144,143
735,-7573,-16,380,-4712,23,-334,-154,132
736,-7588,-3,390,-4709,23,-341,-153,135
737,-7561,10,389,-4713,23,-332,-161,129
738,-7567,-11,391,-4702,23,-344,-146,138
739,-7583,12,367,-4706,23,-350,-161,142
740,-7592,-59,382,-4713,23,-343,-150,141
741,-7570,-33,422,-4710,23,-336,-152,140
742,-7610,15,357,-4722,23,-346,-146,139
743,-7566,-14,374,-4694,23,-345,-136,147
744,-7568,5,414,-4712,23,-337,-160,146
745,-7570,-20,391,-4698,23,-331,-138,142
746,-7585,-30,378,-4709,23,-348,-156,127
747,-7593,-25,368,-4710,23,-345,-145,153
748,-7557,1,378,-4709,23,-344,-160,144
749,-7556,-13,337,-4713,23,-351,-172,139
750,-7571,-22,330,-4704,23,-347,-139,141
751,-7566,-11,375,-4712,23,-354,-151,146
752,-7573,-5,377,-4707,23,-352,-149,143
753,-7576,6,405,-4708,23,-342,-147,134
754,-7592,-21,364,-4703,23,-338,-154,145
755,-7572,-23,363,-4709,23,-337,-161,145
756,-7602,-8,412,-4699,23,-355,-149,144
757,-7571,-29,394,-4721,23,-341,-140,149
758,-7570,12,397,-4708,23,-343,-156,145
759,-7585,21,334,-4699,23,-332,-151,141
760,-7552,9,369,-4721,23,-357,-154,127
761,-7575,0,363,-4712,23,-350,-149,138
762,-7569,-7,365,-4706,23,-367,-158,131
763,-7554,6,326,-4689,23,-344,-142,131
764,-7559,14,343,-4710,23,-347,-159,126
765,-7575,5,309,-4702,23,-338,-167,144
766,-7580,-15,303,-4707,23,-349,-158,133
767,-7584,27,407,-4706,23,-359,-149,142
768,-7570,15,421,-4708,23,-349,-146,143
769,-7600,-28,361,-4718,23,-347,-170,145
770,-7573,4,374,-4709,23,-352,-157,133
771,-7615,-5,361,-4700,23,-347,-154,147
772,-7545,-21,425,-4705,23,-343,-148,140
773,-7590,3,354,-4719,23,-350,-146,141
774,-7558,-11,412,-4712,23,-352,-162,145
775,-7589,-3,402,-4709,23,-345,-149,141
776,-7583,3,349,-4713,23,-346,-155,139
777,-7592,28,316,-4706,23,-359,-161,130
778,-7579,-4,373,-4698,23,-354,-156,144
779,-7579,-39,374,-4711,23,-356,-146,144
780,-7563,-44,360,-4707,23,-344,-152,141
781,-7565,-3,401,-4709,23,-349,-153,134
782,-7581,-10,353,-4716,23,-341,-144,141
783,-7582,4,358,-4708,23,-339,-162,136
784,-7578,-9,366,-4706,23,-346,-143,142
785,-7578,21,378,-4705,23,-350,-144,144
786,-7572,-11,355,-4702,23,-352,-161,154
787,-7569,-15,379,-4708,23,-338,-171,135
788,-7584,-3,379,-4703,23,-353,-160,132
789,-7588,-37,371,-4709,23,-349,-143,128
790,-7562,20,388,-4711,23,-338,-149,147
791,-7585,-26,351,-4704,23,-349,-149,152
792,-7595,-4,375,-4707,23,-348,-145,141
793,-7574,-23,328,-4713,23,-331,-140,142
794,-7557,9,354,-4714,23,-344,-145,140
795,-7604,-31,380,-4716,23,-339,-160,132
796,-7546,0,381,-4708,23,-344,-152,145
797,-7552,-3,392,-4713,23,-343,-156,135
798,-7584,-13,400,-4702,23,-342,-154,145
799,-7581,-9,393,-4703,23,-354,-171,141
800,-7590,-28,359,-4712,23,-342,-153,144
801,-7577,2,380,-4705,23,-336,-151,130
802,-7570,-13,388,-4700,23,-347,-153,142
803,-7574,23,400,-4707,23,-346,-145,150
804,-7570,-9,383,-4707,23,-337,-156,134
805,-7594,-10,352,-4707,23,-336,-161,141
806,-7567,-19,353,-4709,23,-337,-154,159
807,-7570,-26,357,-4709,23,-348,-151,139
808,-7584,3,298,-4696,23,-350,-165,141
809,-7586,5,376,-4715,23,-358,-142,141
810,-7552,-22,371,-4705,23,-361,-158,135
811,-7540,-6,369,-4703,23,-341,-142,143
812,-7571,-7,404,-4705,23,-344,-146,134
813,-7592,23,401,-4707,23,-341,-162,145
814,-7568,16,381,-4717,23,-338,-157,143
815,-7567,17,384,-4704,23,-340,-147,124
816,-7564,13,379,-4699,23,-354,-151,143
817,-7556,-6,362,-4710,23,-360,-161,139
818,-7577,-7,377,-4709,23,-352,-156,146
819,-7593,21,369,-4711,23,-332,-150,138
820,-7559,28,355,-4707,23,-338,-145,145
821,-7592,-8,380,-4712,23,-352,-158,140
822,-7551,0,412,-4702,23,-360,-164,131
823,-7552,-19,401,-4711,23,-360,-151,136
824,-7594,2,366,-4703,23,-353,-150,154
825,-7572,10,400,-4705,23,-348,-134,133
826,-7601,20,381,-4705,23,-346,-142,138
827,-7564,-1,418,-4706,23,-334,-147,121
828,-7568,-30,403,-4708,23,-359,-161,148
829,-7585,-11,368,-4698,23,-337,-148,150
830,-7596,4,357,-4698,23,-342,-152,135
831,-7595,21,363,-4704,23,-336,-141,145
832,-7568,-18,403,-4710,23,-362,-147,136
833,-7562,-6,391,-4719,23,-327,-158,135
834,-7603,34,374,-4697,23,-346,-154,136
835,-7589,4,375,-4701,23,-355,-160,143
836,-7595,3,328,-4701,23,-336,-152,145
837,-7587,-20,405,-4713,23,-342,-147,133
838,-7587,-47,361,-4708,23,-349,-148,155
839,-7564,10,354,-4710,23,-337,-161,147
840,-7586,-20,348,-4714,23,-339,-155,138
841,-7582,-12,445,-4702,23,-348,-143,136
842,-7558,15,329,-4709,23,-355,-159,149
843,-7563,7,382,-4708,23,-342,-158,140
844,-7597,-46,406,-4706,23,-346,-162,139
845,-7587,34,360,-4704,23,-337,-149,135
846,-7571,-3,373,-4702,23,-337,-145,128
847,-7590,24,429,-4707,23,-350,-149,135
848,-7566,-30,387,-4699,23,-365,-138,134
849,-7586,-34,372,-4710,23,-351,-166,134
850,-7558,-1,392,-4701,23,-341,-141,147
851,-7566,-6,345,-4703,23,-341,-149,154
852,-7562,-21,377,-4701,23,-344,-136,135
853,-7591,-13,351,-4708,23,-358,-151,147
854,-7579,8,347,-4707,23,-356,-152,150
855,-7575,12,373,-4709,23,-342,-155,148
856,-7551,-24,407,-4702,23,-347,-145,137
857,-7559,-4,367,-4705,23,-350,-151,144
858,-7582,-21,424,-4707,23,-347,-144,142
859,-7566,3,385,-4691,23,-342,-138,147
860,-7580,15,368,-4692,23,-342,-148,144
861,-7595,28,404,-4708,23,-339,-158,144
862,-7568,-13,398,-4698,23,-360,-148,138
863,-7611,-9,370,-4708,23,-353,-139,145
864,-7571,16,352,-4714,23,-348,-151,144
865,-7574,-19,348,-4702,23,-359,-163,149
866,-7596,-2,369,-4696,23,-348,-155,144
867,-7561,-12,350,-4704,23,-356,-154,144
868,-7570,-20,368,-4695,23,-348,-155,143
869,-7538,-19,396,-4702,23,-352,-147,138
870,-7578,-11,366,-4707,23,-359,-158,138
871,-7581,-20,370,-4702,23,-361,-160,145
872,-7569,-23,389,-4705,23,-343,-140,135
873,-7599,0,374,-4699,23,-344,-147,145
874,-7575,-3,352,-4703,23,-351,-170,144
875,-7570,-26,371,-4706,23,-341,-148,123
876,-7583,-9,378,-4700,23,-353,-151,138
877,-7585,-21,371,-4711,23,-336,-158,142
878,-7588,0,384,-4719,23,-351,-142,125
879,-7575,-8,386,-4698,23,-344,-162,133
880,-7553,-29,410,-4703,23,-347,-150,129
881,-7546,3,343,-4716,23,-348,-155,129
882,-7562,16,408,-4710,23,-335,-158,138
883,-7576,-21,369,-4699,23,-350,-161,146
884,-7567,11,383,-4714,23,-350,-160,136
885,-7560,15,371,-4701,23,-346,-183,134
886,-7585,3,380,-4703,23,-340,-149,136
887,-7561,15,391,-4708,23,-352,-154,142
888,-7573,2,428,-4708,23,-352,-154,133
889,-7543,-13,378,-4723,23,-347,-142,138
890,-7586,-3,352,-4717,23,-337,-155,132
891,-7555,-14,400,-4712,23,-360,-144,145
892,-7585,31,396,-4716,23,-353,-148,150
893,-7575,4,351,-4708,23,-353,-163,140
894,-7584,-12,373,-4702,23,-343,-165,142
895,-7579,-18,341,-4709,23,-336,-148,131
896,-7581,-5,362,-4705,23,-351,-145,129
897,-7581,-29,376,-4716,23,-338,-150,139
898,-7584,1,400,-4700,23,-336,-169,143
899,-7577,10,384,-4711,23,-349,-140,139
900,-7568,-5,351,-4714,23,-336,-149,134
901,-7564,17,399,-4700,23,-335,-163,139
902,-7560,-18,387,-4707,23,-340,-150,145
903,-7562,-16,425,-4709,23,-342,-164,142
904,-7584,12,390,-4709,23,-352,-146,138
905,-7582,-29,363,-4704,23,-341,-164,148
906,-7582,8,368,-4708,23,-359,-161,140
907,-7566,21,356,-4707,23,-360,-158,139
908,-7556,-27,424,-4693,23,-353,-171,135
909,-7576,-12,414,-4706,23,-347,-152,146
910,-7568,-11,410,-4705,23,-341,-165,127
911,-7551,-2,342,-4708,23,-351,-147,145
912,-7580,-10,363,-4704,23,-346,-159,132
913,-7557,-58,369,-4709,23,-348,-148,138
914,-7566,-26,381,-4709,23,-351,-175,135
915,-7599,32,394,-4712,23,-341,-170,152
916,-7598,-10,368,-4712,23,-348,-168,145
917,-7589,-12,332,-4710,23,-350,-145,154
918,-7604,-6,381,-4706,23,-350,-148,129
919,-7568,-17,352,-4702,23,-354,-160,135
920,-7594,12,366,-4716,23,-345,-158,142
921,-7601,13,416,-4710,23,-348,-144,146
922,-7582,15,360,-4705,23,-338,-156,132
923,-7608,9,358,-4706,23,-345,-147,136
924,-7561,-11,377,-4696,23,-361,-149,153
925,-7603,34,356,-4699,23,-345,-156,129
926,-7562,-8,344,-4713,23,-343,-152,137
927,-7583,3,354,-4714,23,-348,-163,135
928,-7585,-30,376,-4704,23,-336,-168,140
929,-7621,24,352,-4704,23,-339,-157,150
930,-7601,-41,383,-4704,23,-355,-140,148
931,-7599,-8,387,-4691,23,-332,-158,135
932,-7598,-2,396,-4702,23,-342,-156,148
933,-7586,-41,378,-4706,23,-355,-159,143
934,-7590,-4,385,-4704,23,-353,-154,135
935,-7570,-7,368,-4690,23,-343,-155,150
936,-7574,2,371,-4707,23,-347,-150,142
937,-7592,29,331,-4697,23,-341,-164,138
938,-7572,-8,363,-4701,23,-340,-157,130
939,-7572,4,361,-4701,23,-355,-152,142
940,-7559,29,349,-4705,23,-348,-150,137
941,-7583,-19,356,-4703,23,-337,-160,144
942,-7574,-2,334,-4701,23,-346,-144,139
943,-7569,-10,388,-4699,23,-333,-156,147
944,-7581,-5,388,-4702,23,-349,-160,130
945,-7587,-13,361,-4713,23,-360,-142,141
946,-7586,0,400,-4707,23,-360,-164,135
947,-7590,-2,385,-4710,23,-332,-157,128
948,-7556,11,360,-4699,23,-332,-160,157
949,-7565,13,388,-4709,23,-335,-160,139
950,-7578,9,382,-4709,23,-338,-157,129
951,-7577,18,381,-4694,23,-346,-166,135
952,-7608,3,413,-4710,23,-348,-145,142
953,-7606,-5,376,-4706,23,-357,-152,141
954,-7590,-45,393,-4707,23,-356,-154,136
955,-7583,-19,326,-4705,23,-352,-139,142
956,-7595,-18,349,-4710,23,-338,-151,131
957,-7585,-9,383,-4705,23,-340,-158,132
958,-7607,-11,382,-4695,23,-350,-167,146
959,-7610,-7,363,-4707,23,-348,-158,133
960,-7555,-28,375,-4704,23,-349,-158,129
961,-7565,-29,402,-4715,23,-345,-149,150
962,-7590,20,355,-4703,23,-338,-163,137
963,-7576,-3,323,-4700,23,-351,-156,142
964,-7567,-1,348,-4712,23,-334,-151,132
965,-7557,-15,384,-4707,23,-360,-151,129
966,-7555,-10,359,-4704,23,-353,-149,134
967,-7586,-5,376,-4719,23,-345,-154,144
968,-7598,-11,387,-4707,23,-350,-153,152
969,-7572,-4,344,-4712,23,-346,-158,135
970,-7609,-28,358,-4707,23,-347,-155,145
971,-7591,7,373,-4702,23,-357,-144,142
972,-7573,-1,364,-4708,23,-348,-155,134
973,-7561,-33,396,-4718,23,-341,-140,125
974,-7582,-5,372,-4706,23,-336,-159,143
975,-7562,-15,378,-4695,23,-353,-149,143
976,-7589,8,343,-4704,23,-339,-158,131
977,-7586,2,343,-4706,23,-347,-169,141
978,-7594,5,403,-4711,23,-338,-137,136
979,-7600,-6,342,-4706,23,-353,-169,128
980,-7597,-19,342,-4710,23,-361,-148,142
981,-7592,28,370,-4711,23,-333,-154,137
982,-7567,-11,343,-4707,23,-343,-162,153
983,-7587,14,392,-4716,23,-338,-156,136
984,-7585,-15,404,-4710,23,-342,-155,140
985,-7560,13,385,-4699,23,-352,-165,131
986,-7612,3,350,-4708,23,-359,-137,140
987,-7565,-8,334,-4705,23,-338,-150,137
988,-7573,-8,378,-4706,23,-340,-153,134
989,-7586,-18,375,-4717,23,-346,-155,132
990,-7581,-22,371,-4706,23,-345,-148,147
991,-7588,-2,360,-4703,23,-359,-167,129
992,-7566,1,366,-4715,23,-343,-151,141
993,-7589,-26,385,-4712,23,-345,-146,134
994,-7593,-37,414,-4708,23,-349,-145,143
995,-7568,-5,378,-4710,23,-347,-151,133
996,-7571,-14,449,-4705,23,-365,-158,149
997,-7583,8,354,-4704,23,-363,-142,146
998,-7555,1,360,-4704,23,-339,-149,137
