,acc_X,acc_Y,acc_Z,temp,tempC,gyr_X,gyr_Y,gyr_Z
0,-15160,-16,736,-4899,22,-87,-38,34
1,-15158,-20,722,-4899,22,-87,-38,34
2,-15160,-16,734,-4899,22,-86,-38,34
3,-15152,-18,740,-4899,22,-87,-38,34
4,-15146,-20,742,-4900,22,-87,-38,34
5,-15146,-16,730,-4899,22,-87,-39,34
6,-15150,-8,732,-4899,22,-87,-39,34
7,-15160,-10,726,-4895,22,-87,-39,35
8,-15156,-18,748,-4894,22,-86,-39,35
9,-15154,-14,750,-4894,22,-86,-39,35
10,-15150,-12,756,-4893,22,-86,-39,34
11,-15154,2,760,-4893,22,-86,-39,34
12,-15164,-4,756,-4894,22,-85,-39,35
13,-15170,-6,772,-4894,22,-85,-39,34
14,-15166,-8,762,-4894,22,-85,-39,35
15,-15160,-4,760,-4893,22,-85,-39,35
16,-15156,-14,776,-4892,22,-85,-39,35
17,-15150,-18,768,-4892,22,-85,-38,35
18,-15158,-22,764,-4891,22,-86,-39,35
19,-15142,-22,766,-4890,22,-85,-38,34
20,-15150,-26,772,-4889,22,-86,-38,34
21,-15152,-22,776,-4887,22,-86,-38,35
22,-15154,-28,776,-4889,22,-86,-38,35
23,-15146,-22,764,-4889,22,-86,-38,35
24,-15148,-6,752,-4888,22,-87,-38,35
25,-15144,-6,742,-4888,22,-87,-38,35
26,-15150,-12,740,-4888,22,-86,-38,35
27,-15148,-6,740,-4888,22,-87,-38,35
28,-15150,-12,758,-4889,22,-87,-38,35
29,-15148,-10,754,-4891,22,-86,-39,35
30,-15138,-10,734,-4890,22,-86,-39,34
31,-15154,-4,740,-4888,22,-86,-38,35
32,-15148,-6,744,-4887,22,-86,-39,35
33,-15158,0,740,-4888,22,-87,-38,35
34,-15150,-4,718,-4888,22,-87,-38,34
35,-15154,-8,720,-4887,22,-87,-38,35
36,-15156,-14,724,-4886,22,-87,-38,34
37,-15160,-6,712,-4883,22,-86,-37,35
38,-15150,4,726,-4885,22,-86,-38,34
39,-15140,-10,732,-4886,22,-86,-38,34
40,-15148,-8,736,-4885,22,-86,-39,34
41,-15154,-14,746,-4884,22,-86,-38,34
42,-15160,-14,752,-4884,22,-86,-39,34
43,-15162,-4,764,-4884,22,-86,-39,34
44,-15164,-8,758,-4884,22,-87,-39,34
45,-15172,-14,746,-4884,22,-86,-39,34
46,-15170,0,748,-4882,22,-86,-38,34
47,-15172,4,746,-4883,22,-86,-38,34
48,-15166,8,738,-4882,22,-86,-38,34
49,-15168,-2,732,-4883,22,-86,-38,34
50,-15158,0,734,-4883,22,-87,-37,34
51,-15146,-6,742,-4883,22,-86,-37,34
52,-15148,-12,752,-4882,22,-86,-37,34
53,-15150,-8,756,-4881,22,-85,-38,34
54,-15154,-10,776,-4882,22,-86,-38,34
55,-15152,-18,754,-4881,22,-86,-38,34
56,-15156,-20,748,-4881,22,-86,-38,35
57,-15154,-20,752,-4881,22,-86,-39,35
58,-15154,-30,750,-4881,22,-86,-38,34
59,-15156,-34,754,-4880,22,-86,-37,34
60,-15150,-32,746,-4880,22,-86,-37,34
61,-15154,-28,758,-4878,22,-86,-37,34
62,-15154,-18,754,-4877,22,-86,-38,34
63,-15146,-16,750,-4878,22,-86,-37,34
64,-15140,-22,736,-4879,22,-86,-37,34
65,-15136,-20,740,-4878,22,-87,-38,34
66,-15142,-14,754,-4877,22,-87,-38,33
67,-15146,-14,744,-4877,22,-87,-38,34
68,-15150,-8,748,-4876,22,-87,-38,34
69,-15152,-4,742,-4876,22,-87,-39,34
70,-15154,-2,724,-4876,22,-87,-39,34
71,-15140,-4,716,-4877,22,-87,-39,34
72,-15140,-4,720,-4874,22,-87,-39,34
73,-15148,-2,722,-4874,22,-87,-39,34
74,-15142,-2,738,-4875,22,-87,-38,35
75,-15146,2,734,-4874,22,-87,-38,35
76,-15136,-14,740,-4874,22,-87,-38,35
77,-15140,-16,736,-4875,22,-86,-38,35
78,-15138,-22,748,-4875,22,-86,-38,35
79,-15146,-10,754,-4874,22,-87,-38,35
80,-15144,-10,754,-4872,22,-87,-38,35
81,-15136,-20,776,-4872,22,-87,-37,35
82,-15146,-8,768,-4870,22,-86,-37,35
83,-15150,-10,766,-4870,22,-86,-37,35
84,-15154,-12,756,-4871,22,-86,-38,34
85,-15148,-2,744,-4870,22,-87,-38,35
86,-15150,-8,738,-4870,22,-86,-38,34
87,-15154,-12,726,-4871,22,-86,-39,34
88,-15152,-16,730,-4872,22,-86,-39,34
89,-15138,-20,728,-4870,22,-86,-39,34
90,-15140,-18,734,-4870,22,-86,-40,35
91,-15144,-6,732,-4871,22,-86,-40,34
92,-15146,-2,742,-4872,22,-86,-39,34
93,-15142,-8,742,-4870,22,-85,-38,34
94,-15138,-18,752,-4870,22,-85,-38,34
95,-15130,-12,754,-4871,22,-86,-38,34
96,-15134,-24,750,-4869,22,-87,-38,34
97,-15136,-32,758,-4869,22,-86,-38,35
98,-15132,-28,762,-4868,22,-86,-38,34
99,-15134,-26,772,-4869,22,-87,-38,35
100,-15142,-20,762,-4869,22,-86,-38,35
101,-15144,-30,750,-4868,22,-86,-38,34
102,-15150,-40,758,-4869,22,-86,-39,34
103,-15146,-34,756,-4868,22,-86,-39,34
104,-15146,-28,752,-4868,22,-87,-38,34
105,-15148,-32,752,-4867,22,-86,-37,34
106,-15140,-28,762,-4868,22,-87,-38,34
107,-15136,-32,766,-4868,22,-86,-38,35
108,-15136,-24,752,-4867,22,-86,-38,34
109,-15128,-12,756,-4868,22,-86,-38,34
110,-15134,-24,754,-4867,22,-85,-38,34
111,-15140,-20,742,-4866,22,-86,-38,34
112,-15148,-8,738,-4866,22,-86,-39,34
113,-15152,-16,752,-4865,22,-86,-39,34
114,-15146,-10,746,-4865,22,-86,-38,34
115,-15152,-16,734,-4863,22,-86,-38,33
116,-15146,-20,752,-4865,22,-86,-38,33
117,-15148,-20,748,-4865,22,-86,-38,34
118,-15150,-18,748,-4865,22,-87,-38,34
119,-15142,-8,732,-4866,22,-86,-38,33
120,-15138,-8,734,-4867,22,-86,-38,34
121,-15148,-8,728,-4868,22,-86,-38,34
122,-15158,-2,732,-4867,22,-86,-38,34
123,-15156,-2,732,-4866,22,-86,-38,34
124,-15156,2,734,-4867,22,-86,-39,34
125,-15164,4,742,-4865,22,-86,-39,34
126,-15160,-4,728,-4865,22,-86,-39,34
127,-15156,-10,730,-4862,22,-87,-39,35
128,-15162,-22,732,-4863,22,-87,-39,35
129,-15164,-16,740,-4862,22,-86,-39,35
130,-15154,-24,730,-4862,22,-86,-39,35
131,-15152,-24,736,-4863,22,-85,-38,35
132,-15158,-22,730,-4863,22,-86,-38,35
133,-15166,-34,752,-4863,22,-86,-38,35
134,-15162,-26,762,-4862,22,-86,-39,35
135,-15164,-30,766,-4861,22,-86,-38,35
136,-15152,-30,758,-4861,22,-86,-38,35
137,-15146,-22,762,-4862,22,-86,-38,35
138,-15154,-14,750,-4862,22,-86,-38,35
139,-15166,-18,740,-4862,22,-86,-38,34
140,-15158,-12,736,-4863,22,-86,-39,34
141,-15158,-18,730,-4863,22,-86,-39,34
142,-15156,-16,722,-4864,22,-87,-39,34
143,-15156,-28,726,-4864,22,-87,-39,35
144,-15150,-36,726,-4862,22,-87,-39,35
145,-15152,-30,726,-4864,22,-87,-39,35
146,-15156,-24,726,-4862,22,-87,-39,34
147,-15154,-18,720,-4860,22,-86,-39,34
148,-15154,-20,706,-4862,22,-86,-40,34
149,-15146,-12,700,-4863,22,-87,-40,34
150,-15146,-16,720,-4861,22,-87,-39,34
151,-15146,-10,730,-4862,22,-86,-39,34
152,-15138,-6,732,-4864,22,-86,-39,34
153,-15140,-12,734,-4861,22,-86,-39,34
154,-15142,-6,736,-4860,22,-87,-40,35
155,-15164,-6,752,-4860,22,-87,-39,35
156,-15168,-6,738,-4857,22,-87,-40,34
157,-15160,-4,748,-4854,22,-87,-39,34
158,-15160,-8,754,-4853,22,-87,-40,33
159,-15162,-12,744,-4855,22,-87,-40,34
160,-15154,-4,736,-4853,22,-86,-40,34
161,-15154,-8,736,-4854,22,-87,-39,34
162,-15164,-20,736,-4857,22,-86,-39,34
163,-15162,-18,746,-4858,22,-86,-39,34
164,-15154,-10,738,-4857,22,-86,-39,34
165,-15148,-14,736,-4858,22,-86,-39,34
166,-15134,0,742,-4859,22,-86,-39,34
167,-15138,6,736,-4860,22,-86,-40,34
168,-15134,-2,734,-4861,22,-86,-40,34
169,-15132,-2,728,-4859,22,-87,-40,34
170,-15134,-2,742,-4858,22,-87,-40,34
171,-15132,-4,748,-4856,22,-86,-39,34
172,-15140,-2,750,-4856,22,-86,-39,34
173,-15138,-6,734,-4857,22,-87,-39,34
174,-15144,-12,732,-4856,22,-86,-39,34
175,-15140,-18,732,-4854,22,-86,-39,34
176,-15150,-10,722,-4854,22,-86,-39,34
177,-15150,-24,728,-4854,22,-86,-39,34
178,-15146,-24,738,-4856,22,-87,-38,34
179,-15140,-26,744,-4856,22,-86,-38,34
180,-15142,-20,742,-4857,22,-86,-38,34
181,-15142,-14,750,-4857,22,-86,-38,34
182,-15140,-18,756,-4856,22,-86,-38,34
183,-15142,-18,752,-4856,22,-86,-39,34
184,-15138,-12,746,-4855,22,-86,-38,34
185,-15140,-4,736,-4856,22,-86,-39,34
186,-15152,-8,744,-4854,22,-86,-39,34
187,-15156,-8,746,-4854,22,-86,-39,34
188,-15156,-20,734,-4854,22,-87,-40,35
189,-15156,-18,738,-4853,22,-87,-39,34
190,-15154,-14,740,-4851,22,-86,-39,34
191,-15152,-14,728,-4851,22,-86,-39,34
192,-15156,-2,744,-4851,22,-86,-38,34
193,-15164,-2,740,-4851,22,-86,-38,34
194,-15162,-2,736,-4852,22,-86,-38,34
195,-15168,2,736,-4852,22,-86,-39,34
196,-15178,-14,754,-4851,22,-86,-39,34
197,-15174,-18,750,-4851,22,-86,-39,35
198,-15180,-16,746,-4851,22,-86,-38,35
199,-15170,-18,748,-4852,22,-86,-38,35
200,-15164,-28,746,-4851,22,-86,-39,35
201,-15156,-24,752,-4851,22,-87,-38,35
202,-15154,-26,744,-4847,22,-87,-38,34
203,-15152,-22,754,-4848,22,-87,-39,34
204,-15164,-34,744,-4848,22,-87,-40,35
205,-15160,-30,742,-4850,22,-87,-39,34
206,-15144,-28,748,-4851,22,-86,-38,34
207,-15140,-28,734,-4851,22,-86,-38,34
208,-15138,-20,736,-4849,22,-88,-38,35
209,-15146,-34,724,-4850,22,-87,-38,35
210,-15142,-30,744,-4848,22,-87,-38,34
211,-15140,-30,742,-4849,22,-87,-39,34
212,-15160,-32,752,-4849,22,-86,-38,34
213,-15148,-26,748,-4850,22,-86,-38,34
214,-15142,-16,748,-4849,22,-86,-38,34
215,-15142,-26,730,-4848,22,-86,-38,35
216,-15140,-26,740,-4848,22,-86,-38,34
217,-15152,-22,754,-4848,22,-86,-39,34
218,-15152,-30,744,-4848,22,-86,-38,34
219,-15154,-30,752,-4848,22,-86,-39,35
220,-15156,-30,752,-4849,22,-86,-38,35
221,-15160,-32,732,-4849,22,-86,-38,35
222,-15166,-24,736,-4849,22,-86,-38,35
223,-15162,-20,740,-4850,22,-86,-38,35
224,-15152,-20,744,-4850,22,-86,-38,35
225,-15146,-20,746,-4850,22,-86,-38,35
226,-15154,-28,750,-4850,22,-87,-38,35
227,-15158,-36,750,-4849,22,-87,-38,35
228,-15154,-42,754,-4848,22,-87,-38,35
229,-15158,-30,746,-4849,22,-87,-38,35
230,-15158,-24,758,-4848,22,-87,-38,34
231,-15148,-18,760,-4849,22,-86,-39,35
232,-15150,-16,760,-4850,22,-86,-39,35
233,-15148,-16,750,-4851,22,-86,-39,34
234,-15144,-16,746,-4849,22,-86,-39,34
235,-15144,-12,726,-4850,22,-87,-39,34
236,-15150,-12,730,-4848,22,-87,-39,34
237,-15148,-12,720,-4847,22,-87,-39,33
238,-15150,-18,730,-4848,22,-86,-39,34
239,-15156,-16,736,-4848,22,-86,-39,34
240,-15152,-14,732,-4849,22,-85,-39,34
241,-15150,-10,736,-4847,22,-85,-39,34
242,-15156,-16,748,-4845,22,-86,-38,34
243,-15154,-22,746,-4846,22,-86,-39,34
244,-15158,-26,746,-4846,22,-86,-38,35
245,-15158,-14,752,-4846,22,-85,-38,35
246,-15160,-8,766,-4846,22,-86,-38,34
247,-15164,-8,758,-4846,22,-86,-38,34
248,-15158,-4,768,-4848,22,-87,-38,34
249,-15154,-6,766,-4847,22,-87,-38,34
250,-15158,-12,758,-4847,22,-87,-39,34
251,-15156,-16,754,-4846,22,-87,-39,34
252,-15166,-20,762,-4845,22,-86,-40,34
253,-15162,-24,774,-4844,22,-87,-40,34
254,-15166,-28,774,-4841,22,-87,-40,34
255,-15168,-18,764,-4842,22,-87,-40,33
256,-15154,-14,764,-4843,22,-88,-39,34
257,-15144,-14,766,-4843,22,-87,-39,34
258,-15148,-18,766,-4843,22,-87,-39,33
259,-15150,-24,758,-4842,22,-87,-39,33
260,-15160,-6,758,-4842,22,-87,-39,33
261,-15158,-6,746,-4842,22,-87,-39,34
262,-15156,-4,740,-4843,22,-87,-39,33
263,-15156,-10,730,-4841,22,-87,-39,33
264,-15152,-14,734,-4841,22,-87,-39,34
265,-15148,-16,758,-4843,22,-87,-39,34
266,-15148,-16,752,-4844,22,-87,-39,34
267,-15152,-10,742,-4842,22,-87,-40,34
268,-15144,-8,744,-4840,22,-87,-39,34
269,-15146,2,730,-4838,22,-88,-39,34
270,-15146,0,746,-4839,22,-87,-38,34
271,-15148,8,752,-4837,22,-87,-39,34
272,-15154,8,754,-4838,22,-87,-39,34
273,-15150,4,762,-4840,22,-87,-38,34
274,-15140,0,752,-4839,22,-86,-38,33
275,-15138,0,742,-4840,22,-86,-38,34
276,-15144,2,758,-4840,22,-86,-38,34
277,-15156,8,764,-4840,22,-86,-38,34
278,-15156,8,762,-4839,22,-87,-38,34
279,-15152,-4,758,-4839,22,-87,-38,34
280,-15156,8,776,-4840,22,-87,-38,34
281,-15158,2,764,-4840,22,-87,-38,34
282,-15156,-4,778,-4841,22,-87,-38,34
283,-15158,2,766,-4841,22,-87,-38,35
284,-15150,8,758,-4843,22,-87,-39,35
285,-15156,8,758,-4843,22,-86,-38,35
286,-15164,8,752,-4841,22,-87,-38,34
287,-15166,2,756,-4842,22,-86,-39,34
288,-15166,-4,750,-4840,22,-86,-39,34
289,-15168,-6,756,-4840,22,-86,-39,35
290,-15162,-18,752,-4838,22,-86,-39,34
291,-15164,-18,748,-4838,22,-86,-39,34
292,-15150,-20,742,-4838,22,-87,-38,34
293,-15140,-14,742,-4836,22,-87,-38,33
294,-15136,-8,750,-4838,22,-87,-39,34
295,-15140,-10,744,-4838,22,-87,-39,34
296,-15140,-22,744,-4840,22,-87,-38,34
297,-15140,-16,736,-4840,22,-88,-38,34
298,-15150,-8,738,-4841,22,-88,-38,34
299,-15150,-8,750,-4840,22,-88,-38,34
300,-15154,-16,744,-4840,22,-88,-38,34
301,-15162,-14,734,-4841,22,-88,-38,34
302,-15164,-14,742,-4843,22,-87,-38,34
303,-15170,-18,756,-4841,22,-87,-38,34
304,-15170,-16,744,-4842,22,-87,-39,34
305,-15172,-10,738,-4841,22,-87,-39,34
306,-15154,-8,738,-4840,22,-87,-39,35
307,-15148,0,740,-4840,22,-87,-38,35
308,-15150,-8,746,-4839,22,-87,-38,34
309,-15154,-8,732,-4840,22,-87,-38,33
310,-15158,2,726,-4840,22,-87,-38,34
311,-15156,-2,732,-4839,22,-87,-38,34
312,-15150,-6,750,-4839,22,-87,-38,34
313,-15150,-8,746,-4839,22,-87,-39,34
314,-15150,-10,740,-4839,22,-86,-39,34
315,-15150,-12,742,-4840,22,-86,-39,34
316,-15148,-10,746,-4840,22,-87,-39,34
317,-15140,-10,766,-4838,22,-86,-38,34
318,-15138,-14,776,-4839,22,-86,-38,35
319,-15144,-8,768,-4839,22,-85,-38,35
320,-15142,-10,772,-4839,22,-86,-39,34
321,-15140,-12,764,-4838,22,-86,-39,34
322,-15152,-14,764,-4838,22,-86,-39,34
323,-15150,-10,756,-4838,22,-86,-39,34
324,-15154,2,756,-4839,22,-87,-39,34
325,-15152,-6,762,-4839,22,-87,-39,34
326,-15150,4,754,-4839,22,-86,-39,34
327,-15154,-2,756,-4839,22,-86,-40,35
328,-15162,0,752,-4838,22,-86,-39,34
329,-15168,2,760,-4837,22,-86,-39,34
330,-15152,-8,754,-4836,22,-86,-39,34
331,-15156,-16,756,-4836,22,-86,-39,34
332,-15160,-10,754,-4836,22,-86,-39,34
333,-15150,-4,754,-4837,22,-86,-39,34
334,-15148,-10,740,-4837,22,-86,-39,34
335,-15148,-14,740,-4837,22,-85,-39,34
336,-15154,-10,728,-4836,22,-86,-38,34
337,-15160,-6,724,-4838,22,-86,-38,35
338,-15162,-8,716,-4838,22,-86,-38,34
339,-15164,-14,722,-4834,22,-86,-39,34
340,-15162,-12,724,-4835,22,-86,-38,34
341,-15156,-4,720,-4834,22,-86,-38,34
342,-15154,-18,722,-4835,22,-87,-39,34
343,-15150,-14,728,-4836,22,-87,-39,34
344,-15146,-6,744,-4836,22,-87,-39,34
345,-15144,-4,750,-4834,22,-87,-38,34
346,-15136,-4,754,-4833,22,-86,-38,35
347,-15148,-6,762,-4834,22,-86,-38,34
348,-15148,-20,756,-4836,22,-86,-37,34
349,-15146,-16,736,-4835,22,-86,-39,35
350,-15148,-18,742,-4837,22,-86,-39,35
351,-15146,-14,740,-4836,22,-86,-39,35
352,-15154,-6,736,-4836,22,-86,-39,34
353,-15154,-10,728,-4835,22,-86,-39,34
354,-15158,-8,726,-4835,22,-86,-39,34
355,-15158,-16,728,-4835,22,-87,-39,34
356,-15154,-16,734,-4836,22,-87,-39,34
357,-15154,-16,734,-4837,22,-87,-39,34
358,-15158,-20,736,-4834,22,-87,-39,33
359,-15156,-16,738,-4833,22,-87,-39,34
360,-15158,-16,736,-4833,22,-87,-38,34
361,-15162,-14,738,-4833,22,-87,-38,34
362,-15160,-8,728,-4834,22,-87,-39,33
363,-15158,-12,726,-4835,22,-87,-39,34
364,-15160,-14,732,-4836,22,-86,-39,34
365,-15156,-4,724,-4835,22,-86,-39,34
366,-15156,-14,724,-4834,22,-87,-39,34
367,-15150,-20,728,-4835,22,-86,-39,34
368,-15150,-22,738,-4833,22,-86,-38,34
369,-15144,-12,740,-4834,22,-87,-38,34
370,-15152,-16,750,-4835,22,-87,-38,34
371,-15142,-12,736,-4831,22,-87,-39,35
372,-15142,-4,734,-4832,22,-86,-39,34
373,-15144,-6,742,-4831,22,-86,-39,34
374,-15146,-8,740,-4832,22,-87,-39,34
375,-15150,-12,746,-4832,22,-87,-39,34
376,-15154,-14,746,-4833,22,-87,-39,34
377,-15140,-22,746,-4832,22,-86,-39,34
378,-15140,-20,744,-4832,22,-86,-39,34
379,-15138,-26,746,-4833,22,-86,-39,34
380,-15140,-26,738,-4831,22,-86,-39,34
381,-15144,-26,740,-4831,22,-87,-39,34
382,-15150,-26,738,-4832,22,-86,-39,33
383,-15154,-28,724,-4833,22,-86,-39,33
384,-15146,-26,720,-4831,22,-86,-39,34
385,-15144,-22,722,-4832,22,-86,-39,34
386,-15144,-22,712,-4834,22,-86,-39,34
387,-15138,-10,708,-4834,22,-87,-39,34
388,-15142,-14,716,-4833,22,-87,-39,34
389,-15140,-20,712,-4833,22,-87,-39,34
390,-15150,-8,724,-4832,22,-87,-40,34
391,-15150,-10,720,-4831,22,-86,-39,34
392,-15154,-8,734,-4831,22,-86,-39,34
393,-15152,-12,734,-4830,22,-87,-38,34
394,-15150,-20,728,-4829,22,-87,-38,34
395,-15144,-18,724,-4832,22,-87,-38,35
396,-15148,-16,710,-4833,22,-86,-38,34
397,-15150,-10,706,-4835,22,-86,-38,35
398,-15152,-18,716,-4836,22,-86,-38,34
399,-15152,-16,714,-4835,22,-86,-38,34
400,-15146,-12,718,-4833,22,-86,-38,34
401,-15142,-10,730,-4833,22,-86,-38,34
402,-15140,-14,736,-4832,22,-86,-39,35
403,-15144,-6,744,-4833,22,-86,-39,34
404,-15144,-10,744,-4833,22,-86,-39,34
405,-15142,-6,748,-4835,22,-86,-38,34
406,-15158,-2,750,-4837,22,-86,-38,34
407,-15154,0,758,-4836,22,-86,-38,34
408,-15150,2,746,-4834,22,-86,-38,34
409,-15142,-2,762,-4835,22,-86,-38,34
410,-15146,-8,742,-4836,22,-87,-38,34
411,-15154,-8,748,-4834,22,-87,-38,34
412,-15152,0,758,-4832,22,-86,-39,34
413,-15154,-6,754,-4831,22,-86,-38,34
414,-15154,-10,740,-4830,22,-86,-38,34
415,-15166,-10,746,-4828,22,-86,-38,34
416,-15162,-18,732,-4829,22,-85,-37,34
417,-15154,-6,738,-4830,22,-86,-38,34
418,-15154,-8,742,-4828,22,-86,-38,34
419,-15156,-6,740,-4830,22,-86,-38,34
420,-15154,-20,740,-4829,22,-86,-38,35
421,-15158,-16,736,-4829,22,-86,-38,35
422,-15162,-8,730,-4830,22,-86,-37,35
423,-15164,-10,738,-4830,22,-86,-37,35
424,-15164,-24,740,-4830,22,-86,-38,35
425,-15168,-24,732,-4830,22,-86,-39,34
426,-15156,-18,728,-4828,22,-87,-39,34
427,-15156,-12,734,-4829,22,-87,-39,35
428,-15150,-18,728,-4829,22,-87,-38,34
429,-15148,-20,722,-4830,22,-87,-39,34
430,-15142,-18,730,-4831,22,-87,-39,34
431,-15138,-18,732,-4828,22,-87,-39,34
432,-15140,-22,732,-4829,22,-87,-39,33
433,-15144,-24,732,-4830,22,-87,-38,34
434,-15152,-22,726,-4828,22,-87,-38,34
435,-15160,-16,738,-4827,22,-86,-38,35
436,-15154,-14,736,-4827,22,-86,-38,35
437,-15158,-18,740,-4828,22,-86,-38,35
438,-15146,-16,726,-4831,22,-86,-38,35
439,-15140,-20,718,-4830,22,-86,-39,35
440,-15156,-8,718,-4831,22,-86,-39,35
441,-15156,6,710,-4831,22,-86,-39,35
442,-15158,4,730,-4833,22,-86,-38,35
443,-15160,-4,734,-4831,22,-86,-38,34
444,-15158,-14,740,-4828,22,-86,-39,34
445,-15162,-18,742,-4828,22,-86,-38,34
446,-15166,-14,740,-4829,22,-85,-38,34
447,-15160,-14,726,-4829,22,-86,-38,34
448,-15144,-10,738,-4831,22,-86,-38,34
449,-15156,-8,730,-4831,22,-86,-38,34
450,-15156,-2,742,-4828,22,-86,-39,34
451,-15158,2,746,-4827,22,-86,-39,35
452,-15152,0,750,-4826,22,-86,-40,34
453,-15160,-6,760,-4825,22,-86,-39,34
454,-15160,-8,770,-4826,22,-86,-39,33
455,-15158,-16,758,-4822,22,-86,-39,34
456,-15154,-10,762,-4823,22,-87,-39,34
457,-15154,-2,756,-4824,22,-86,-38,35
458,-15148,-8,762,-4823,22,-86,-39,35
459,-15146,-6,762,-4823,22,-86,-38,34
460,-15150,-10,758,-4826,22,-86,-38,34
461,-15162,-6,760,-4825,22,-86,-38,34
462,-15156,-12,762,-4826,22,-86,-38,34
463,-15154,-12,760,-4825,22,-86,-38,34
464,-15160,-22,754,-4824,22,-86,-39,34
465,-15152,-22,742,-4825,22,-86,-38,34
466,-15146,-22,738,-4825,22,-86,-39,33
467,-15152,-20,742,-4825,22,-86,-38,33
468,-15160,-20,746,-4825,22,-86,-39,33
469,-15160,-8,734,-4825,22,-86,-39,33
470,-15160,2,734,-4823,22,-87,-39,34
471,-15154,-2,740,-4824,22,-87,-39,33
472,-15156,-8,726,-4824,22,-87,-38,34
473,-15158,-10,738,-4824,22,-86,-39,34
474,-15172,-4,744,-4824,22,-87,-38,34
475,-15174,6,756,-4825,22,-87,-38,34
476,-15162,-8,758,-4826,22,-87,-38,33
477,-15166,6,756,-4827,22,-87,-38,33
478,-15162,4,754,-4827,22,-86,-38,34
479,-15154,6,748,-4826,22,-86,-38,34
480,-15162,4,742,-4825,22,-86,-38,34
481,-15150,2,746,-4825,22,-86,-38,33
482,-15150,0,738,-4828,22,-86,-38,34
483,-15158,-2,736,-4828,22,-86,-39,33
484,-15160,-8,726,-4828,22,-86,-39,34
485,-15148,-12,730,-4826,22,-86,-38,34
486,-15158,-22,732,-4826,22,-86,-38,34
487,-15156,-24,742,-4826,22,-86,-38,34
488,-15158,-22,740,-4825,22,-86,-38,34
489,-15152,-14,738,-4827,22,-86,-39,34
490,-15146,-18,730,-4827,22,-87,-38,34
491,-15142,-18,730,-4826,22,-87,-39,34
492,-15150,-12,736,-4827,22,-87,-40,34
493,-15150,-16,722,-4828,22,-86,-39,35
494,-15158,-16,728,-4826,22,-86,-38,34
495,-15156,-18,726,-4826,22,-86,-38,34
496,-15160,-10,728,-4826,22,-86,-38,34
497,-15168,-4,726,-4826,22,-87,-38,35
498,-15166,-8,720,-4826,22,-87,-38,34
499,-15158,-8,720,-4827,22,-87,-38,34
500,-15156,-8,728,-4825,22,-87,-38,33
501,-15154,-4,724,-4826,22,-87,-38,34
502,-15160,-14,732,-4826,22,-87,-38,34
503,-15152,-16,720,-4825,22,-87,-38,34
504,-15156,-14,728,-4823,22,-87,-38,34
505,-15156,-10,740,-4822,22,-87,-38,34
506,-15156,-10,732,-4823,22,-86,-38,33
507,-15150,-8,730,-4822,22,-87,-38,34
508,-15158,0,732,-4825,22,-87,-39,34
509,-15158,2,728,-4825,22,-87,-39,34
510,-15162,-10,740,-4824,22,-86,-39,35
511,-15152,-12,750,-4827,22,-86,-38,34
512,-15156,-12,752,-4825,22,-86,-38,34
513,-15156,-10,756,-4826,22,-86,-38,34
514,-15158,-4,756,-4825,22,-86,-38,34
515,-15156,2,750,-4824,22,-86,-38,34
516,-15146,-4,752,-4824,22,-86,-38,34
517,-15142,-2,754,-4822,22,-87,-38,34
518,-15142,-4,730,-4823,22,-86,-38,34
519,-15136,-6,742,-4825,22,-86,-38,34
520,-15140,-10,744,-4825,22,-86,-38,34
521,-15136,4,742,-4826,22,-86,-39,34
522,-15140,6,742,-4825,22,-85,-38,34
523,-15158,-2,742,-4823,22,-86,-38,34
524,-15164,-2,744,-4825,22,-86,-38,34
525,-15156,4,736,-4826,22,-85,-39,34
526,-15154,-2,736,-4825,22,-86,-39,34
527,-15158,8,732,-4824,22,-86,-39,34
528,-15142,4,732,-4824,22,-86,-39,34
529,-15150,2,730,-4824,22,-86,-38,33
530,-15156,0,720,-4825,22,-86,-38,33
531,-15162,2,736,-4825,22,-86,-38,33
532,-15170,-6,742,-4825,22,-86,-38,34
533,-15164,-12,730,-4826,22,-86,-38,34
534,-15154,-20,732,-4827,22,-85,-38,34
535,-15156,-22,728,-4826,22,-86,-38,34
536,-15144,-22,724,-4824,22,-86,-38,34
537,-15148,-26,724,-4821,22,-86,-38,35
538,-15144,-14,738,-4820,22,-86,-39,34
539,-15148,-10,740,-4821,22,-86,-39,34
540,-15156,-8,740,-4820,22,-86,-39,34
541,-15166,-12,734,-4820,22,-87,-39,34
542,-15160,-22,744,-4820,22,-87,-39,34
543,-15162,-26,742,-4820,22,-87,-39,35
544,-15162,-28,744,-4820,22,-88,-39,35
545,-15154,-32,740,-4819,22,-87,-39,35
546,-15152,-24,746,-4821,22,-87,-39,35
547,-15144,-18,728,-4820,22,-87,-38,35
548,-15148,-16,734,-4819,22,-87,-39,35
549,-15140,-22,728,-4820,22,-87,-39,35
550,-15138,-16,718,-4821,22,-87,-39,35
551,-15138,-26,714,-4822,22,-87,-38,35
552,-15132,-32,732,-4823,22,-87,-39,34
553,-15130,-24,736,-4824,22,-87,-39,34
554,-15140,-22,728,-4822,22,-86,-38,35
555,-15146,-8,718,-4821,22,-86,-38,34
556,-15146,-8,716,-4823,22,-86,-38,34
557,-15150,-2,730,-4822,22,-86,-38,34
558,-15156,0,730,-4823,22,-86,-39,33
559,-15146,-4,734,-4823,22,-86,-39,34
560,-15162,0,746,-4822,22,-87,-39,33
561,-15162,2,738,-4820,22,-87,-38,34
562,-15162,8,734,-4819,22,-87,-38,33
563,-15154,-4,712,-4818,22,-87,-38,33
564,-15152,0,730,-4818,22,-87,-38,34
565,-15146,-6,732,-4820,22,-87,-38,34
566,-15150,-4,742,-4820,22,-87,-39,34
567,-15152,-2,760,-4820,22,-86,-39,34
568,-15148,-2,742,-4820,22,-86,-39,34
569,-15138,-10,750,-4818,22,-86,-39,34
570,-15136,-12,734,-4817,22,-86,-39,34
571,-15140,-14,738,-4817,22,-86,-39,34
572,-15148,-18,734,-4817,22,-86,-39,34
573,-15154,-22,734,-4817,22,-86,-38,34
574,-15148,-30,742,-4819,22,-87,-39,34
575,-15154,-20,740,-4820,22,-87,-39,34
576,-15154,-20,746,-4820,22,-87,-39,34
577,-15152,-18,728,-4819,22,-87,-38,33
578,-15136,-18,724,-4818,22,-86,-39,33
579,-15142,-10,714,-4819,22,-86,-39,33
580,-15150,-4,728,-4819,22,-86,-38,34
581,-15152,-16,732,-4817,22,-86,-38,34
582,-15148,-18,730,-4817,22,-86,-38,34
583,-15158,-12,744,-4817,22,-87,-38,34
584,-15162,-12,740,-4817,22,-87,-38,34
585,-15152,-8,742,-4817,22,-87,-38,34
586,-15152,-14,734,-4816,22,-87,-38,34
587,-15162,-8,726,-4818,22,-87,-38,34
588,-15154,-4,730,-4817,22,-87,-38,34
589,-15154,-12,734,-4818,22,-87,-38,34
590,-15156,-18,744,-4819,22,-87,-39,34
591,-15164,-12,748,-4820,22,-87,-39,34
592,-15162,-10,738,-4820,22,-87,-39,34
593,-15150,-6,748,-4820,22,-87,-39,34
594,-15158,6,740,-4818,22,-87,-39,34
595,-15156,4,752,-4815,22,-88,-39,34
596,-15144,4,742,-4815,22,-88,-38,34
597,-15146,6,742,-4818,22,-87,-38,34
598,-15152,4,736,-4817,22,-87,-38,33
599,-15150,10,742,-4816,22,-87,-38,34
600,-15144,2,744,-4816,22,-87,-38,34
601,-15148,-8,738,-4818,22,-87,-39,34
602,-15156,-12,736,-4817,22,-86,-39,34
603,-15170,-20,740,-4815,22,-86,-38,35
604,-15172,-32,732,-4814,22,-87,-38,34
605,-15174,-24,720,-4814,22,-86,-38,34
606,-15176,-26,726,-4814,22,-87,-38,34
607,-15174,-22,738,-4814,22,-87,-38,34
608,-15170,-22,728,-4815,22,-87,-38,34
609,-15158,-22,730,-4813,22,-87,-38,34
610,-15148,-22,740,-4813,22,-87,-38,34
611,-15146,-18,724,-4813,22,-88,-38,35
612,-15154,-14,744,-4814,22,-87,-38,34
613,-15162,-12,742,-4812,22,-88,-38,34
614,-15154,-6,744,-4814,22,-88,-38,34
615,-15156,-10,752,-4814,22,-88,-39,34
616,-15154,-12,756,-4813,22,-88,-38,35
617,-15146,-22,758,-4813,22,-88,-38,34
618,-15152,-2,762,-4815,22,-87,-38,34
619,-15146,-12,764,-4816,22,-87,-38,34
620,-15134,-10,770,-4816,22,-88,-38,34
621,-15144,-8,760,-4817,22,-88,-38,34
622,-15146,-6,754,-4818,22,-88,-38,34
623,-15152,8,758,-4817,22,-87,-38,34
624,-15154,8,762,-4816,22,-87,-39,34
625,-15158,4,754,-4817,22,-87,-38,34
626,-15160,2,750,-4817,22,-87,-39,34
627,-15152,2,746,-4818,22,-87,-38,34
628,-15156,-6,746,-4815,22,-87,-39,34
629,-15154,-6,754,-4813,22,-87,-38,34
630,-15150,-4,772,-4814,22,-87,-38,33
631,-15156,-6,772,-4815,22,-87,-38,33
632,-15154,-6,766,-4817,22,-87,-38,33
633,-15148,-4,764,-4818,22,-87,-38,34
634,-15152,-2,754,-4817,22,-87,-39,34
635,-15150,-14,754,-4817,22,-87,-39,34
636,-15156,-14,744,-4816,22,-87,-38,34
637,-15164,-22,762,-4815,22,-87,-38,34
638,-15160,-20,774,-4815,22,-87,-38,35
639,-15150,-20,772,-4814,22,-87,-38,35
640,-15150,-16,760,-4813,22,-87,-38,34
641,-15148,-12,758,-4812,22,-87,-38,35
642,-15154,-18,750,-4812,22,-87,-39,35
643,-15160,-14,732,-4813,22,-87,-38,35
644,-15152,-10,720,-4815,22,-87,-38,35
645,-15154,-16,728,-4815,22,-87,-39,34
646,-15150,-18,730,-4815,22,-87,-38,34
647,-15154,-22,730,-4815,22,-86,-38,34
648,-15148,-30,736,-4815,22,-87,-39,34
649,-15144,-20,738,-4814,22,-87,-39,34
650,-15146,-14,728,-4815,22,-87,-38,34
651,-15160,-22,734,-4814,22,-87,-38,34
652,-15154,-12,716,-4815,22,-87,-38,35
653,-15152,-2,712,-4816,22,-87,-38,34
654,-15152,-6,700,-4816,22,-86,-39,34
655,-15150,-4,706,-4815,22,-87,-38,34
656,-15148,-6,704,-4815,22,-87,-38,35
657,-15144,-14,714,-4816,22,-87,-38,35
658,-15136,-14,740,-4816,22,-87,-38,34
659,-15140,-14,734,-4814,22,-87,-37,34
660,-15146,-20,736,-4816,22,-87,-38,34
661,-15154,-18,730,-4816,22,-87,-38,34
662,-15160,-20,730,-4815,22,-87,-38,35
663,-15158,-10,732,-4816,22,-87,-38,34
664,-15162,-10,728,-4815,22,-87,-38,34
665,-15156,-16,734,-4813,22,-87,-39,34
666,-15154,-16,732,-4815,22,-87,-39,34
667,-15154,-20,736,-4815,22,-87,-39,34
668,-15152,-14,726,-4815,22,-87,-39,34
669,-15146,-12,724,-4815,22,-87,-39,34
670,-15138,-16,728,-4814,22,-87,-38,34
671,-15132,-12,740,-4812,22,-87,-38,34
672,-15146,-18,738,-4814,22,-87,-38,34
673,-15150,-16,734,-4815,22,-87,-38,34
674,-15152,-16,736,-4816,22,-87,-38,34
675,-15156,-2,748,-4815,22,-86,-39,34
676,-15148,-16,742,-4815,22,-86,-39,34
677,-15142,-20,746,-4815,22,-86,-39,34
678,-15154,-20,748,-4814,22,-87,-39,34
679,-15144,-20,762,-4813,22,-87,-39,34
680,-15138,-22,762,-4812,22,-87,-39,34
681,-15136,-20,756,-4811,22,-87,-39,34
682,-15142,-10,750,-4812,22,-87,-39,34
683,-15148,-10,752,-4813,22,-87,-39,34
684,-15150,-8,746,-4815,22,-87,-39,35
685,-15150,-10,762,-4815,22,-87,-38,35
686,-15140,-4,756,-4813,22,-87,-39,35
687,-15150,-10,754,-4812,22,-87,-38,35
688,-15156,-2,752,-4812,22,-86,-38,35
689,-15160,2,742,-4812,22,-87,-39,35
690,-15160,-2,730,-4811,22,-86,-39,35
691,-15158,-2,740,-4810,22,-86,-39,35
692,-15162,0,730,-4811,22,-86,-39,34
693,-15156,-4,726,-4810,22,-86,-39,35
694,-15158,-8,730,-4810,22,-87,-39,35
695,-15158,-14,728,-4811,22,-87,-39,34
696,-15152,-10,728,-4811,22,-87,-39,34
697,-15152,6,712,-4811,22,-87,-39,34
698,-15150,6,716,-4813,22,-87,-39,35
699,-15154,8,732,-4811,22,-87,-39,34
700,-15148,4,734,-4812,22,-87,-39,34
701,-15152,-2,734,-4812,22,-86,-40,34
702,-15154,-2,720,-4811,22,-86,-40,34
703,-15154,0,746,-4812,22,-86,-39,34
704,-15156,2,724,-4811,22,-87,-39,34
705,-15168,6,738,-4813,22,-87,-39,33
706,-15172,4,740,-4813,22,-87,-38,33
707,-15176,-2,732,-4813,22,-87,-38,33
708,-15168,0,720,-4812,22,-87,-38,34
709,-15160,-4,718,-4812,22,-88,-39,33
710,-15166,-12,714,-4812,22,-87,-39,34
711,-15166,-8,716,-4811,22,-87,-40,33
712,-15158,-16,748,-4813,22,-86,-40,33
713,-15156,-12,758,-4813,22,-86,-39,33
714,-15150,-10,756,-4813,22,-86,-39,34
715,-15148,-18,756,-4813,22,-86,-38,34
716,-15150,-18,746,-4812,22,-87,-39,34
717,-15150,-12,738,-4812,22,-86,-39,34
718,-15152,-8,748,-4813,22,-86,-39,34
719,-15156,-20,748,-4812,22,-86,-40,34
720,-15148,-8,724,-4812,22,-86,-39,34
721,-15156,-12,738,-4810,22,-87,-38,34
722,-15158,-14,742,-4811,22,-87,-38,34
723,-15156,-10,752,-4812,22,-87,-38,34
724,-15150,-14,746,-4811,22,-87,-38,34
725,-15150,-20,740,-4811,22,-88,-38,34
726,-15154,-16,748,-4810,22,-87,-38,34
727,-15154,-16,752,-4809,22,-87,-38,34
728,-15162,-16,740,-4812,22,-87,-38,34
729,-15150,-20,758,-4813,22,-86,-38,33
730,-15142,-20,752,-4814,22,-86,-38,34
731,-15148,-18,742,-4813,22,-86,-39,34
732,-15152,-16,752,-4812,22,-86,-39,34
733,-15146,-14,754,-4811,22,-87,-39,34
734,-15140,-18,770,-4811,22,-87,-38,34
735,-15132,-18,768,-4810,22,-86,-38,34
736,-15142,-18,760,-4810,22,-87,-38,34
737,-15142,-22,744,-4811,22,-87,-38,34
738,-15144,-30,730,-4809,22,-87,-38,34
739,-15150,-38,740,-4809,22,-87,-38,34
740,-15150,-30,734,-4811,22,-87,-38,34
741,-15144,-18,734,-4811,22,-86,-39,34
742,-15140,-22,726,-4811,22,-87,-39,34
743,-15140,-20,732,-4810,22,-86,-39,34
744,-15138,-16,742,-4811,22,-86,-39,34
745,-15132,-14,738,-4810,22,-86,-39,34
746,-15132,-8,754,-4809,22,-86,-39,34
747,-15134,-20,754,-4810,22,-86,-38,34
748,-15136,-16,748,-4809,22,-86,-38,34
749,-15148,-16,752,-4811,22,-86,-38,34
750,-15154,-22,744,-4809,22,-86,-39,34
751,-15150,-22,738,-4808,22,-87,-38,34
752,-15152,-24,740,-4808,22,-86,-38,34
753,-15156,-20,750,-4808,22,-86,-38,35
754,-15156,-14,738,-4807,22,-86,-38,34
755,-15156,-12,738,-4807,22,-85,-38,35
756,-15156,-6,738,-4811,22,-86,-38,34
757,-15162,0,728,-4811,22,-86,-38,34
758,-15158,2,724,-4808,22,-85,-37,34
759,-15152,-2,722,-4808,22,-85,-38,34
760,-15144,4,746,-4809,22,-86,-38,34
761,-15142,4,744,-4808,22,-86,-38,35
762,-15148,-6,756,-4808,22,-86,-38,34
763,-15146,-4,750,-4808,22,-86,-38,34
764,-15136,-8,744,-4809,22,-86,-38,34
765,-15150,-10,758,-4809,22,-86,-39,34
766,-15148,-14,760,-4808,22,-86,-39,34
767,-15146,-16,768,-4808,22,-86,-39,34
768,-15146,-8,762,-4808,22,-86,-39,34
769,-15150,-8,764,-4809,22,-86,-39,34
770,-15152,-12,756,-4810,22,-86,-38,34
771,-15150,-18,744,-4810,22,-86,-38,34
772,-15148,-20,736,-4808,22,-86,-38,34
773,-15152,-20,726,-4807,22,-87,-38,34
774,-15154,-12,726,-4808,22,-87,-38,35
775,-15144,-12,732,-4811,22,-87,-38,34
776,-15140,-6,730,-4811,22,-87,-38,34
777,-15142,-2,732,-4811,22,-87,-38,34
778,-15140,-2,714,-4811,22,-87,-39,34
779,-15138,-8,716,-4812,22,-88,-39,34
780,-15146,-8,714,-4813,22,-87,-39,34
781,-15148,-16,716,-4813,22,-86,-38,34
782,-15154,-12,716,-4814,22,-86,-39,34
783,-15162,-14,734,-4813,22,-87,-38,34
784,-15164,-18,742,-4811,22,-86,-38,34
785,-15154,-14,748,-4809,22,-86,-38,34
786,-15146,-16,766,-4809,22,-86,-38,34
787,-15148,-22,740,-4809,22,-86,-38,34
788,-15146,-20,734,-4811,22,-87,-39,34
789,-15140,-28,742,-4811,22,-87,-38,34
790,-15148,-24,722,-4811,22,-87,-38,34
791,-15148,-20,726,-4810,22,-86,-38,34
792,-15148,-16,736,-4810,22,-86,-38,34
793,-15148,-20,730,-4808,22,-87,-38,34
794,-15146,-12,734,-4808,22,-87,-38,34
795,-15148,-18,732,-4808,22,-87,-38,34
796,-15154,-22,742,-4807,22,-87,-37,34
797,-15164,-18,738,-4808,22,-87,-38,34
798,-15160,-6,740,-4812,22,-87,-38,34
799,-15158,-4,732,-4812,22,-87,-38,35
800,-15158,-6,730,-4814,22,-87,-39,35
801,-15158,-10,734,-4812,22,-87,-38,35
802,-15162,-10,744,-4811,22,-86,-39,34
803,-15166,-12,750,-4811,22,-86,-39,35
804,-15152,-14,750,-4809,22,-86,-39,35
805,-15160,-8,756,-4809,22,-86,-39,35
806,-15154,-8,760,-4809,22,-86,-38,35
807,-15152,-6,764,-4810,22,-86,-38,34
808,-15156,-14,758,-4810,22,-86,-39,34
809,-15158,-12,758,-4807,22,-86,-39,34
810,-15164,-12,754,-4807,22,-87,-39,34
811,-15168,-14,762,-4805,22,-86,-39,34
812,-15162,-14,744,-4806,22,-86,-39,34
813,-15172,-16,738,-4806,22,-86,-39,34
814,-15170,-20,740,-4804,22,-87,-39,35
815,-15168,-16,746,-4803,22,-86,-38,35
816,-15164,-6,736,-4803,22,-87,-38,35
817,-15172,-4,760,-4803,22,-87,-38,35
818,-15166,4,756,-4806,22,-87,-39,34
819,-15174,-8,754,-4807,22,-87,-39,34
820,-15170,-10,770,-4805,22,-87,-39,35
821,-15164,-6,764,-4804,22,-87,-38,34
822,-15170,0,760,-4806,22,-87,-38,34
823,-15168,-4,744,-4807,22,-86,-38,35
824,-15168,-2,734,-4807,22,-86,-38,34
825,-15166,4,738,-4808,22,-86,-38,34
826,-15166,8,728,-4807,22,-86,-38,34
827,-15168,4,740,-4808,22,-87,-38,34
828,-15164,4,732,-4808,22,-87,-38,34
829,-15160,10,730,-4808,22,-87,-38,34
830,-15150,0,732,-4806,22,-87,-38,34
831,-15150,-4,724,-4806,22,-87,-38,34
832,-15150,-12,728,-4807,22,-87,-37,34
833,-15152,-20,728,-4806,22,-87,-37,34
834,-15152,-22,738,-4806,22,-86,-38,34
835,-15164,-14,740,-4806,22,-87,-38,33
836,-15148,-14,744,-4805,22,-87,-38,33
837,-15144,-16,738,-4807,22,-87,-37,34
838,-15156,-12,732,-4807,22,-87,-37,34
839,-15162,-8,728,-4807,22,-87,-38,34
840,-15172,-8,724,-4805,22,-87,-38,34
841,-15174,-22,748,-4804,22,-87,-38,34
842,-15172,-18,766,-4805,22,-87,-38,34
843,-15164,-16,760,-4804,22,-87,-38,34
844,-15162,-12,768,-4803,22,-87,-38,34
845,-15162,-16,770,-4802,22,-87,-38,33
846,-15162,-20,764,-4802,22,-87,-38,34
847,-15164,-20,752,-4801,22,-87,-38,34
848,-15152,-6,744,-4803,22,-87,-39,34
849,-15154,-6,744,-4802,22,-87,-39,34
850,-15150,-8,746,-4804,22,-87,-39,34
851,-15148,10,750,-4804,22,-87,-39,34
852,-15138,0,744,-4802,22,-87,-39,35
853,-15136,-8,748,-4802,22,-87,-39,35
854,-15140,-24,748,-4801,22,-87,-39,35
855,-15136,-22,740,-4801,22,-87,-38,35
856,-15136,-16,742,-4801,22,-86,-38,35
857,-15138,-16,744,-4804,22,-86,-38,35
858,-15144,-8,736,-4803,22,-86,-38,35
859,-15148,-8,728,-4803,22,-86,-37,35
860,-15154,0,750,-4802,22,-86,-38,35
861,-15150,-2,760,-4802,22,-87,-38,35
862,-15150,-10,758,-4802,22,-87,-38,35
863,-15154,-8,776,-4803,22,-87,-38,35
864,-15160,-4,782,-4802,22,-87,-37,35
865,-15150,-8,770,-4804,22,-86,-38,35
866,-15148,-16,760,-4802,22,-86,-37,34
867,-15152,-20,752,-4803,22,-87,-37,34
868,-15148,-26,750,-4802,22,-86,-38,35
869,-15154,-24,746,-4799,22,-87,-39,35
870,-15152,-16,750,-4802,22,-87,-38,34
871,-15154,-24,746,-4802,22,-86,-38,34
872,-15162,-18,752,-4802,22,-87,-38,34
873,-15160,-14,750,-4800,22,-87,-38,34
874,-15166,-18,746,-4802,22,-87,-38,34
875,-15172,-20,746,-4802,22,-86,-37,34
876,-15166,-22,740,-4802,22,-87,-38,33
877,-15158,-14,752,-4802,22,-87,-38,33
878,-15152,2,756,-4801,22,-86,-38,33
879,-15146,2,766,-4802,22,-86,-37,33
880,-15148,-2,762,-4803,22,-87,-37,33
881,-15148,-14,752,-4802,22,-87,-37,33
882,-15160,-20,750,-4802,22,-87,-37,34
883,-15168,-16,746,-4802,22,-87,-38,34
884,-15168,-20,734,-4803,22,-87,-38,34
885,-15166,-18,732,-4805,22,-87,-38,34
886,-15162,-20,746,-4802,22,-87,-38,34
887,-15162,-26,730,-4803,22,-87,-38,34
888,-15164,-32,716,-4804,22,-87,-38,34
889,-15164,-28,734,-4802,22,-87,-38,34
890,-15162,-18,738,-4803,22,-87,-38,34
891,-15162,-16,732,-4803,22,-87,-38,35
892,-15162,-16,734,-4803,22,-87,-39,34
893,-15162,-10,724,-4801,22,-87,-38,35
894,-15160,-10,722,-4801,22,-86,-38,35
895,-15152,-16,734,-4802,22,-86,-38,35
896,-15148,-20,746,-4802,22,-86,-38,35
897,-15142,-36,734,-4803,22,-86,-39,34
898,-15142,-20,726,-4803,22,-86,-39,33
899,-15150,-26,720,-4805,22,-87,-39,34
900,-15148,-26,724,-4804,22,-86,-39,34
901,-15142,-22,724,-4804,22,-87,-39,34
902,-15152,-26,730,-4804,22,-87,-39,34
903,-15150,-20,738,-4806,22,-87,-38,34
904,-15154,-24,738,-4805,22,-88,-39,34
905,-15162,-16,724,-4804,22,-87,-39,34
906,-15160,-16,718,-4805,22,-88,-39,34
907,-15150,-18,726,-4805,22,-88,-38,34
908,-15152,-12,736,-4804,22,-87,-38,34
909,-15156,-18,736,-4804,22,-87,-39,34
910,-15158,-16,720,-4807,22,-87,-38,34
911,-15158,-6,736,-4804,22,-87,-38,35
912,-15166,-10,740,-4803,22,-87,-39,35
913,-15164,-6,732,-4804,22,-87,-39,35
914,-15166,0,730,-4802,22,-87,-39,35
915,-15166,-2,722,-4801,22,-87,-39,34
916,-15166,-10,714,-4800,22,-87,-38,35
917,-15158,-24,718,-4801,22,-87,-39,34
918,-15154,-20,732,-4801,22,-87,-38,34
919,-15148,-24,730,-4802,22,-87,-39,34
920,-15132,-20,736,-4804,22,-87,-39,34
921,-15126,-8,746,-4804,22,-87,-39,35
922,-15128,-8,748,-4803,22,-87,-39,35
923,-15130,-4,740,-4802,22,-87,-39,35
924,-15124,2,736,-4801,22,-87,-38,34
925,-15128,-2,742,-4802,22,-87,-39,34
926,-15146,-2,730,-4801,22,-86,-40,34
927,-15152,-8,728,-4801,22,-87,-39,34
928,-15154,-4,726,-4801,22,-87,-39,34
929,-15158,-4,736,-4800,22,-87,-39,34
930,-15164,-2,736,-4801,22,-87,-39,34
931,-15160,8,750,-4799,22,-87,-38,34
932,-15164,-4,766,-4799,22,-87,-39,34
933,-15160,-10,762,-4800,22,-87,-39,34
934,-15152,-14,760,-4800,22,-88,-40,34
935,-15152,-4,778,-4799,22,-88,-40,34
936,-15150,-10,774,-4801,22,-87,-40,34
937,-15150,-14,776,-4799,22,-87,-40,34
938,-15144,-6,764,-4802,22,-87,-40,34
939,-15146,0,766,-4801,22,-87,-39,34
940,-15148,-2,776,-4801,22,-87,-39,34
941,-15148,-4,772,-4802,22,-87,-39,34
942,-15140,2,784,-4801,22,-87,-39,34
943,-15138,-2,798,-4802,22,-87,-38,34
944,-15142,0,782,-4803,22,-87,-38,34
945,-15142,-2,766,-4804,22,-86,-38,34
946,-15142,-2,754,-4803,22,-87,-39,34
947,-15158,2,762,-4802,22,-87,-39,35
948,-15152,-2,744,-4801,22,-86,-39,35
949,-15158,-6,734,-4800,22,-86,-39,34
950,-15148,-6,726,-4798,22,-87,-39,34
951,-15148,-12,734,-4798,22,-87,-39,34
952,-15154,-10,744,-4798,22,-87,-39,34
953,-15168,-16,744,-4797,22,-87,-39,34
954,-15166,-12,740,-4796,22,-87,-39,34
955,-15168,-16,736,-4797,22,-87,-39,34
956,-15154,-16,748,-4795,22,-87,-38,34
957,-15168,-10,752,-4795,22,-87,-38,34
958,-15166,-2,748,-4795,22,-87,-38,34
959,-15152,8,742,-4796,22,-87,-38,33
960,-15148,10,738,-4795,22,-87,-38,33
961,-15144,-4,734,-4796,22,-87,-38,34
962,-15146,4,738,-4797,22,-87,-38,34
963,-15152,-8,742,-4799,22,-87,-38,34
964,-15160,0,738,-4799,22,-87,-39,34
965,-15162,-4,740,-4801,22,-87,-39,34
966,-15154,-14,750,-4800,22,-87,-39,34
967,-15140,-2,752,-4799,22,-87,-39,34
968,-15142,4,750,-4800,22,-88,-39,34
969,-15136,2,750,-4802,22,-88,-39,34
970,-15148,4,754,-4802,22,-88,-39,34
971,-15160,8,762,-4802,22,-87,-39,34
972,-15162,-2,758,-4802,22,-87,-39,34
973,-15162,-12,746,-4803,22,-87,-39,34
974,-15160,-20,748,-4804,22,-87,-39,34
975,-15158,-32,744,-4804,22,-87,-39,34
976,-15156,-28,746,-4803,22,-87,-39,34
977,-15162,-18,746,-4804,22,-87,-38,34
978,-15164,-28,752,-4803,22,-87,-38,34
979,-15152,-24,764,-4802,22,-87,-39,34
980,-15144,-18,758,-4802,22,-86,-39,34
981,-15154,-24,762,-4802,22,-87,-38,34
982,-15160,-22,764,-4801,22,-86,-39,34
983,-15154,-18,742,-4802,22,-86,-39,34
984,-15152,-12,746,-4802,22,-86,-39,35
985,-15148,-8,740,-4801,22,-87,-39,34
986,-15150,-10,726,-4801,22,-86,-39,34
987,-15144,4,714,-4800,22,-86,-39,34
988,-15138,-6,718,-4799,22,-86,-39,34
989,-15134,-8,734,-4799,22,-87,-39,34
990,-15140,-12,724,-4799,22,-87,-39,35
991,-15146,-2,734,-4799,22,-87,-39,35
992,-15140,-2,732,-4800,22,-87,-39,35
993,-15140,-4,740,-4799,22,-87,-39,35
994,-15136,-2,744,-4799,22,-87,-38,35
995,-15140,-12,748,-4800,22,-87,-39,35
