,acc_X,acc_Y,acc_Z,temp,tempC,gyr_X,gyr_Y,gyr_Z
0,-7574,4,369,-4626,23,-87,-37,35
1,-7578,-7,384,-4622,23,-88,-37,36
2,-7575,-10,374,-4620,23,-87,-38,35
3,-7584,-3,366,-4620,23,-87,-39,35
4,-7588,-3,362,-4621,23,-87,-39,35
5,-7580,0,376,-4624,23,-86,-39,35
6,-7581,-8,372,-4624,23,-87,-38,35
7,-7582,-8,373,-4624,23,-87,-39,35
8,-7569,-7,384,-4621,23,-87,-38,36
9,-7574,-4,376,-4620,23,-87,-38,36
10,-7575,-4,382,-4624,23,-87,-39,35
11,-7573,-1,371,-4621,23,-87,-39,35
12,-7569,-7,358,-4618,23,-88,-39,35
13,-7572,-4,376,-4619,23,-88,-38,34
14,-7578,-1,371,-4622,23,-89,-38,34
15,-7577,-3,370,-4622,23,-88,-38,34
16,-7574,-6,375,-4618,23,-88,-38,34
17,-7579,-6,372,-4619,23,-88,-38,35
18,-7580,4,364,-4622,23,-88,-37,34
19,-7580,-4,374,-4621,23,-88,-38,34
20,-7574,3,370,-4616,23,-88,-40,34
21,-7565,-5,372,-4618,23,-88,-39,36
22,-7563,-8,384,-4618,23,-86,-39,37
23,-7575,-4,390,-4617,23,-87,-39,37
24,-7576,-3,381,-4620,23,-88,-39,36
25,-7577,-4,378,-4618,23,-87,-39,35
26,-7577,-9,383,-4620,23,-87,-39,35
27,-7570,-10,385,-4620,23,-87,-39,35
28,-7574,-2,387,-4621,23,-87,-39,35
29,-7572,-2,397,-4620,23,-87,-39,35
30,-7565,-1,378,-4620,23,-89,-38,34
31,-7571,3,371,-4619,23,-88,-38,34
32,-7568,-3,370,-4617,23,-87,-39,36
33,-7576,-14,375,-4617,23,-88,-39,36
34,-7570,-9,376,-4617,23,-87,-38,35
35,-7582,-7,374,-4617,23,-87,-38,35
36,-7581,-6,381,-4619,23,-88,-40,35
37,-7577,-10,382,-4618,23,-89,-39,35
38,-7576,-5,385,-4617,23,-88,-38,34
39,-7576,-12,373,-4617,23,-89,-39,34
40,-7576,-10,366,-4618,23,-89,-39,33
41,-7579,-16,374,-4619,23,-87,-39,34
42,-7583,-8,366,-4620,23,-87,-39,34
43,-7575,-12,358,-4620,23,-86,-38,35
44,-7572,-12,345,-4621,23,-88,-38,34
45,-7570,-10,365,-4623,23,-88,-38,35
46,-7570,4,400,-4622,23,-88,-38,35
47,-7574,-10,397,-4620,23,-88,-39,34
48,-7571,-6,394,-4622,23,-87,-39,34
49,-7567,-3,381,-4622,23,-88,-39,34
50,-7573,-13,381,-4618,23,-89,-39,35
51,-7571,-8,386,-4617,23,-89,-38,35
52,-7574,0,389,-4614,23,-89,-38,35
53,-7577,-2,388,-4613,23,-89,-39,36
54,-7576,-5,395,-4615,23,-89,-40,35
55,-7570,-7,394,-4616,23,-88,-39,34
56,-7563,-15,376,-4619,23,-88,-38,34
57,-7569,-11,374,-4619,23,-88,-38,34
58,-7573,-19,367,-4619,23,-87,-39,34
59,-7573,-22,361,-4620,23,-87,-38,34
60,-7578,-21,361,-4624,23,-88,-38,35
61,-7580,-21,358,-4621,23,-88,-38,35
62,-7569,-12,365,-4620,23,-88,-39,34
63,-7571,-15,363,-4619,23,-87,-38,35
64,-7572,-8,369,-4621,23,-87,-37,34
65,-7574,-4,377,-4619,23,-88,-39,34
66,-7578,-2,353,-4616,23,-87,-38,34
67,-7568,-2,359,-4617,23,-87,-39,33
68,-7561,3,352,-4616,23,-88,-39,34
69,-7566,-2,368,-4616,23,-88,-39,34
70,-7580,-6,374,-4619,23,-87,-39,34
71,-7576,0,366,-4618,23,-87,-39,34
72,-7570,-10,375,-4616,23,-88,-38,34
73,-7578,-7,374,-4617,23,-88,-39,34
74,-7585,-7,374,-4616,23,-87,-39,35
75,-7593,-7,373,-4617,23,-87,-39,35
76,-7587,-8,380,-4617,23,-87,-39,35
77,-7588,-4,375,-4620,23,-87,-40,35
78,-7590,-6,364,-4622,23,-87,-39,34
79,-7586,-5,367,-4621,23,-88,-39,35
80,-7588,-7,383,-4619,23,-87,-39,35
81,-7578,-3,394,-4618,23,-87,-39,34
82,-7583,-7,384,-4618,23,-87,-38,34
83,-7580,-9,378,-4617,23,-88,-38,34
84,-7578,-10,372,-4618,23,-88,-38,34
85,-7568,-2,375,-4617,23,-87,-38,34
86,-7570,-8,383,-4618,23,-88,-38,34
87,-7582,-14,386,-4618,23,-88,-39,34
88,-7578,-14,382,-4622,23,-89,-39,34
89,-7586,-23,377,-4617,23,-88,-40,34
90,-7576,-13,388,-4619,23,-88,-39,33
91,-7581,-13,380,-4617,23,-88,-38,34
92,-7581,-6,378,-4616,23,-87,-39,34
93,-7578,-13,374,-4616,23,-88,-39,36
94,-7582,-11,362,-4616,23,-88,-39,35
95,-7575,-2,361,-4617,23,-87,-38,34
96,-7584,-8,366,-4614,23,-88,-39,34
97,-7579,-2,374,-4615,23,-89,-38,34
98,-7570,1,369,-4616,23,-89,-38,35
99,-7579,2,368,-4615,23,-89,-38,35
100,-7569,8,378,-4616,23,-88,-39,34
101,-7572,-2,388,-4619,23,-88,-39,34
102,-7575,-1,390,-4620,23,-88,-38,34
103,-7574,-4,387,-4618,23,-88,-38,34
104,-7580,-3,379,-4619,23,-89,-38,36
105,-7585,-6,377,-4620,23,-89,-38,35
106,-7581,-1,378,-4618,23,-89,-38,35
107,-7578,-4,379,-4619,23,-88,-38,35
108,-7581,-10,362,-4619,23,-88,-40,35
109,-7570,-3,362,-4622,23,-86,-39,35
110,-7583,-2,380,-4619,23,-87,-39,35
111,-7583,4,391,-4621,23,-89,-39,35
112,-7599,0,389,-4619,23,-88,-39,35
113,-7591,-3,388,-4618,23,-88,-38,35
114,-7579,2,380,-4618,23,-89,-39,35
115,-7577,6,370,-4616,23,-87,-38,36
116,-7575,2,360,-4617,23,-87,-38,35
117,-7582,2,371,-4616,23,-88,-38,34
118,-7577,9,377,-4617,23,-88,-39,34
119,-7578,3,375,-4615,23,-87,-38,34
120,-7581,-4,388,-4620,23,-86,-38,35
121,-7577,-7,375,-4617,23,-86,-39,34
122,-7573,-12,392,-4615,23,-87,-39,35
123,-7579,-11,396,-4614,23,-87,-39,35
124,-7574,0,385,-4614,23,-88,-39,34
125,-7579,-11,389,-4618,23,-88,-39,34
126,-7574,-7,384,-4617,23,-88,-38,34
127,-7582,-9,381,-4617,23,-89,-38,35
128,-7587,-1,371,-4618,23,-88,-39,36
129,-7575,-5,381,-4617,23,-88,-39,35
130,-7580,-4,375,-4618,23,-87,-39,35
131,-7581,-9,376,-4617,23,-87,-38,35
132,-7573,-10,371,-4618,23,-88,-37,35
133,-7577,-9,370,-4617,23,-89,-38,34
134,-7579,-3,374,-4619,23,-88,-38,34
135,-7576,-12,364,-4623,23,-87,-38,35
136,-7577,-8,364,-4622,23,-88,-39,35
137,-7573,-10,367,-4623,23,-87,-39,34
138,-7574,-12,376,-4621,23,-89,-38,34
139,-7575,-7,380,-4619,23,-87,-38,34
140,-7577,-10,374,-4618,23,-87,-38,35
141,-7583,-4,377,-4617,23,-87,-38,34
142,-7586,-10,380,-4616,23,-88,-38,35
143,-7582,-10,384,-4617,23,-87,-38,35
144,-7579,-1,386,-4616,23,-87,-37,35
145,-7578,2,385,-4616,23,-88,-37,35
146,-7578,1,378,-4614,23,-87,-38,36
147,-7584,-3,382,-4615,23,-87,-39,37
148,-7582,0,381,-4613,23,-87,-38,36
149,-7583,-5,382,-4610,23,-87,-39,35
150,-7579,0,371,-4614,23,-87,-38,35
151,-7573,-1,381,-4614,23,-87,-39,35
152,-7583,-9,392,-4614,23,-87,-39,35
153,-7582,-5,387,-4615,23,-87,-40,36
154,-7577,-2,385,-4615,23,-87,-38,35
155,-7577,-2,382,-4615,23,-86,-40,35
156,-7574,-8,391,-4616,23,-87,-40,36
157,-7572,-6,392,-4618,23,-87,-39,36
158,-7571,4,398,-4618,23,-87,-39,36
159,-7578,0,411,-4617,23,-88,-39,36
160,-7581,0,403,-4618,23,-87,-39,35
161,-7579,5,390,-4618,23,-87,-39,36
162,-7580,7,372,-4616,23,-87,-39,35
163,-7584,8,373,-4617,23,-89,-39,35
164,-7581,14,386,-4617,23,-89,-38,35
165,-7569,6,384,-4619,23,-88,-38,35
166,-7577,4,369,-4618,23,-87,-39,35
167,-7572,1,381,-4617,23,-87,-38,34
168,-7571,-2,385,-4616,23,-88,-39,35
169,-7581,-11,371,-4611,23,-87,-39,36
170,-7585,-10,369,-4612,23,-87,-39,35
171,-7575,-10,369,-4611,23,-87,-39,34
172,-7571,-12,366,-4613,23,-87,-39,34
173,-7577,-9,368,-4615,23,-87,-39,35
174,-7566,-11,376,-4617,23,-87,-40,33
175,-7566,0,385,-4617,23,-88,-39,34
176,-7573,-15,384,-4618,23,-87,-38,35
177,-7571,-10,381,-4617,23,-87,-38,34
178,-7578,-15,379,-4619,23,-88,-39,33
179,-7578,-17,379,-4615,23,-88,-39,34
180,-7583,-6,389,-4615,23,-88,-38,34
181,-7573,-2,381,-4616,23,-88,-40,35
182,-7575,1,392,-4615,23,-88,-39,34
183,-7579,-6,394,-4616,23,-88,-39,35
184,-7577,-4,399,-4614,23,-88,-39,36
185,-7584,-11,388,-4615,23,-88,-39,36
186,-7583,-13,394,-4616,23,-87,-38,35
187,-7583,-1,393,-4619,23,-86,-38,35
188,-7580,-4,397,-4615,23,-86,-38,34
189,-7583,-6,390,-4617,23,-87,-38,33
190,-7577,-9,371,-4617,23,-86,-39,33
191,-7580,-3,379,-4621,23,-86,-39,34
192,-7579,-5,377,-4620,23,-87,-38,35
193,-7575,0,378,-4621,23,-87,-38,35
194,-7577,3,381,-4620,23,-88,-38,34
195,-7579,-4,366,-4618,23,-87,-39,34
196,-7582,3,377,-4614,23,-87,-39,35
197,-7583,-1,374,-4615,23,-87,-38,35
198,-7580,1,380,-4617,23,-88,-39,36
199,-7582,-2,373,-4619,23,-87,-38,35
200,-7589,-9,376,-4619,23,-87,-38,34
201,-7594,-6,382,-4616,23,-87,-39,35
202,-7590,-4,376,-4619,23,-87,-38,35
203,-7594,-5,381,-4615,23,-88,-38,36
204,-7584,-7,376,-4614,23,-88,-39,35
205,-7579,-17,380,-4614,23,-89,-39,36
206,-7573,-9,381,-4612,23,-89,-39,35
207,-7573,-4,365,-4614,23,-89,-39,34
208,-7578,1,369,-4616,23,-89,-38,34
209,-7579,1,364,-4614,23,-89,-39,34
210,-7577,8,367,-4613,23,-89,-40,34
211,-7575,-2,372,-4611,23,-89,-38,35
212,-7577,-1,365,-4620,23,-88,-39,35
213,-7566,-4,365,-4619,23,-88,-39,35
214,-7574,-6,362,-4615,23,-88,-40,35
215,-7578,-7,362,-4615,23,-88,-40,34
216,-7578,-3,362,-4616,23,-87,-39,34
217,-7576,0,369,-4617,23,-87,-38,34
218,-7577,-4,375,-4617,23,-88,-40,34
219,-7586,-6,373,-4618,23,-87,-39,34
220,-7584,3,384,-4618,23,-88,-39,34
221,-7579,-2,390,-4618,23,-88,-39,34
222,-7579,-1,389,-4619,23,-88,-39,34
223,-7576,-9,387,-4618,23,-87,-38,34
224,-7581,-8,395,-4617,23,-88,-39,35
225,-7583,-5,391,-4617,23,-88,-39,34
226,-7580,-11,392,-4611,23,-87,-38,35
227,-7579,-2,382,-4611,23,-87,-38,35
228,-7568,1,377,-4610,23,-87,-38,35
229,-7572,-9,383,-4609,23,-87,-39,34
230,-7568,-6,385,-4610,23,-87,-39,34
231,-7569,5,388,-4611,23,-87,-38,35
232,-7569,4,385,-4615,23,-88,-39,35
233,-7567,3,381,-4615,23,-87,-39,35
234,-7567,0,379,-4616,23,-87,-40,35
235,-7567,-4,387,-4619,23,-87,-40,34
236,-7580,-12,391,-4618,23,-87,-40,35
237,-7575,-8,379,-4613,23,-87,-40,35
238,-7573,-4,390,-4611,23,-88,-39,36
239,-7581,-4,376,-4609,23,-88,-40,36
240,-7582,3,380,-4609,23,-87,-41,36
241,-7578,6,374,-4612,23,-87,-39,36
242,-7581,-1,372,-4615,23,-89,-38,35
243,-7581,-3,373,-4618,23,-88,-38,35
244,-7572,3,365,-4617,23,-88,-38,34
245,-7574,-5,383,-4616,23,-88,-37,35
246,-7576,-5,386,-4617,23,-88,-38,34
247,-7572,-8,387,-4615,23,-88,-37,33
248,-7581,-8,392,-4614,23,-88,-39,34
249,-7585,-14,367,-4614,23,-89,-39,35
250,-7582,-10,363,-4618,23,-88,-39,35
251,-7577,-3,365,-4616,23,-88,-39,35
252,-7570,-11,374,-4615,23,-87,-40,35
253,-7573,-16,368,-4617,23,-88,-39,35
254,-7580,-17,371,-4616,23,-88,-38,35
255,-7578,-10,383,-4616,23,-85,-37,35
256,-7576,-7,382,-4615,23,-86,-38,33
257,-7582,-4,383,-4613,23,-86,-38,34
258,-7579,-1,381,-4613,23,-88,-38,35
259,-7576,3,375,-4616,23,-88,-38,35
260,-7580,6,387,-4614,23,-87,-37,36
261,-7580,-4,368,-4617,23,-87,-38,35
262,-7585,2,373,-4615,23,-87,-39,35
263,-7592,-4,376,-4615,23,-88,-38,34
264,-7592,-4,375,-4614,23,-87,-38,35
265,-7586,-8,366,-4614,23,-88,-38,34
266,-7574,-7,372,-4616,23,-87,-38,35
267,-7578,-2,371,-4615,23,-87,-38,34
268,-7579,-4,382,-4615,23,-87,-40,34
269,-7572,-1,386,-4612,23,-87,-39,34
270,-7575,4,377,-4611,23,-87,-39,34
271,-7577,-2,370,-4611,23,-87,-39,34
272,-7595,-9,365,-4613,23,-87,-38,34
273,-7582,-10,380,-4614,23,-87,-38,34
274,-7583,-11,385,-4615,23,-87,-38,35
275,-7582,-15,379,-4614,23,-87,-39,34
276,-7577,-2,369,-4615,23,-88,-39,35
277,-7584,1,370,-4613,23,-86,-39,35
278,-7581,-1,380,-4610,23,-86,-39,35
279,-7583,1,382,-4615,23,-87,-39,35
280,-7582,-14,383,-4618,23,-87,-38,35
281,-7581,-8,366,-4616,23,-87,-37,34
282,-7576,-15,368,-4614,23,-87,-38,35
283,-7572,-19,384,-4612,23,-87,-39,34
284,-7583,-13,384,-4614,23,-87,-40,34
285,-7593,-6,386,-4615,23,-88,-39,34
286,-7592,-8,381,-4613,23,-88,-39,35
287,-7584,-11,388,-4610,23,-88,-38,36
288,-7584,-8,394,-4614,23,-88,-38,36
289,-7588,-6,398,-4611,23,-89,-37,35
290,-7584,-2,400,-4614,23,-88,-38,35
291,-7575,-4,393,-4614,23,-88,-38,35
292,-7574,-4,398,-4613,23,-87,-38,35
293,-7558,-12,371,-4616,23,-87,-39,34
294,-7565,-7,376,-4614,23,-87,-38,34
295,-7571,-9,376,-4613,23,-88,-38,35
296,-7584,-14,380,-4615,23,-88,-39,34
297,-7578,-8,388,-4612,23,-88,-39,35
298,-7581,-11,385,-4616,23,-87,-38,35
299,-7579,-11,377,-4616,23,-89,-37,34
300,-7575,-6,377,-4613,23,-89,-37,35
301,-7582,-6,358,-4612,23,-89,-38,35
302,-7586,4,361,-4614,23,-89,-37,36
303,-7576,1,374,-4614,23,-89,-38,35
304,-7573,-8,390,-4615,23,-89,-38,35
305,-7578,-8,387,-4615,23,-88,-39,35
306,-7579,-9,379,-4618,23,-88,-38,34
307,-7576,-10,384,-4616,23,-89,-39,35
308,-7564,-7,388,-4617,23,-87,-39,35
309,-7567,-1,381,-4616,23,-88,-38,34
310,-7579,2,386,-4618,23,-88,-39,34
311,-7571,-4,395,-4616,23,-88,-39,34
312,-7578,-7,378,-4614,23,-89,-38,34
313,-7581,-11,390,-4614,23,-88,-40,34
314,-7585,-12,386,-4616,23,-88,-39,34
315,-7584,-7,385,-4616,23,-87,-39,34
316,-7589,1,376,-4615,23,-88,-39,35
317,-7581,-4,376,-4612,23,-87,-39,34
318,-7570,5,361,-4612,23,-87,-39,34
319,-7579,-1,357,-4607,23,-88,-39,34
320,-7571,3,372,-4610,23,-87,-39,35
321,-7571,6,363,-4614,23,-87,-39,35
322,-7570,5,364,-4614,23,-87,-39,34
323,-7571,-1,374,-4612,23,-87,-40,35
324,-7575,-3,377,-4610,23,-88,-39,35
325,-7572,-7,384,-4613,23,-87,-39,35
326,-7570,2,386,-4615,23,-88,-39,35
327,-7579,1,374,-4616,23,-88,-39,35
328,-7574,-6,383,-4616,23,-88,-38,35
329,-7570,-6,391,-4616,23,-89,-39,35
330,-7572,-1,383,-4616,23,-88,-39,34
331,-7575,1,389,-4614,23,-88,-39,34
332,-7570,-1,378,-4610,23,-87,-39,35
333,-7578,-2,379,-4612,23,-88,-39,33
334,-7578,-2,380,-4612,23,-88,-38,35
335,-7575,3,374,-4612,23,-88,-39,35
336,-7575,4,389,-4609,23,-87,-38,35
337,-7567,-4,385,-4609,23,-88,-38,35
338,-7585,-9,395,-4609,23,-88,-38,35
339,-7587,0,391,-4607,23,-88,-37,35
340,-7584,-13,375,-4610,23,-88,-39,35
341,-7585,-10,384,-4608,23,-89,-39,35
342,-7579,-10,382,-4606,23,-89,-39,34
343,-7567,-18,381,-4611,23,-89,-39,35
344,-7567,-16,380,-4611,23,-88,-39,34
345,-7566,-17,372,-4611,23,-88,-40,35
346,-7576,-7,375,-4612,23,-88,-40,34
347,-7579,-4,375,-4613,23,-87,-39,34
348,-7577,-7,383,-4614,23,-86,-39,34
349,-7582,-6,387,-4616,23,-87,-39,35
350,-7588,-11,388,-4617,23,-87,-38,35
351,-7579,-8,395,-4613,23,-87,-39,36
352,-7586,-7,395,-4614,23,-88,-39,34
353,-7589,-7,389,-4614,23,-89,-39,36
354,-7590,-12,392,-4614,23,-88,-39,35
355,-7584,-4,377,-4614,23,-88,-38,35
356,-7584,6,385,-4613,23,-88,-39,33
357,-7581,4,389,-4612,23,-88,-39,33
358,-7578,2,387,-4614,23,-87,-39,34
359,-7584,-4,368,-4614,23,-87,-38,34
360,-7579,-5,357,-4614,23,-88,-38,34
361,-7576,-10,355,-4616,23,-88,-37,35
362,-7578,-12,367,-4615,23,-88,-37,33
363,-7585,-13,362,-4613,23,-88,-38,33
364,-7585,-20,369,-4612,23,-87,-39,35
365,-7586,-18,384,-4615,23,-87,-39,35
366,-7588,-11,371,-4615,23,-88,-39,35
367,-7585,-8,362,-4613,23,-88,-38,33
368,-7583,-2,363,-4612,23,-88,-39,33
369,-7581,3,364,-4612,23,-88,-40,34
370,-7577,-1,364,-4613,23,-88,-40,35
371,-7570,-5,377,-4611,23,-87,-40,34
372,-7570,-12,377,-4612,23,-87,-40,34
373,-7565,-10,373,-4613,23,-87,-39,34
374,-7576,-5,384,-4614,23,-88,-38,35
375,-7574,-7,382,-4619,23,-88,-39,35
376,-7572,-11,390,-4617,23,-87,-40,35
377,-7574,-5,399,-4617,23,-88,-39,34
378,-7572,2,402,-4616,23,-87,-39,35
379,-7576,2,396,-4616,23,-87,-40,35
380,-7586,-7,381,-4613,23,-87,-40,34
381,-7587,-5,376,-4610,23,-87,-40,34
382,-7585,1,372,-4608,23,-88,-40,33
383,-7581,-3,375,-4610,23,-87,-40,34
384,-7574,-10,378,-4611,23,-87,-38,34
385,-7575,2,368,-4611,23,-88,-40,34
386,-7574,-5,376,-4614,23,-88,-40,34
387,-7574,-4,366,-4616,23,-88,-39,34
388,-7571,-6,379,-4612,23,-87,-40,33
389,-7578,-7,376,-4610,23,-87,-38,34
390,-7579,-15,375,-4611,23,-88,-39,34
391,-7574,-13,376,-4611,23,-88,-39,33
392,-7570,-12,379,-4608,23,-88,-39,34
393,-7576,-9,380,-4607,23,-88,-38,34
394,-7584,-9,388,-4609,23,-88,-38,34
395,-7583,-5,381,-4609,23,-86,-39,35
396,-7583,-6,371,-4609,23,-87,-39,35
397,-7584,0,370,-4609,23,-87,-39,35
398,-7585,-2,379,-4610,23,-87,-39,35
399,-7588,-6,390,-4609,23,-87,-39,34
400,-7571,-3,395,-4608,23,-87,-39,34
401,-7572,-1,392,-4613,23,-87,-40,35
402,-7575,-2,371,-4611,23,-87,-40,35
403,-7581,-4,370,-4609,23,-88,-39,35
404,-7587,-8,382,-4610,23,-89,-39,34
405,-7584,-7,379,-4610,23,-89,-38,34
406,-7584,-5,371,-4611,23,-88,-38,34
407,-7581,-1,373,-4610,23,-88,-38,34
408,-7581,-9,382,-4612,23,-88,-39,34
409,-7588,-5,384,-4612,23,-88,-39,35
410,-7591,-13,389,-4610,23,-88,-39,35
411,-7584,-9,378,-4609,23,-88,-39,36
412,-7580,-6,382,-4609,23,-88,-40,36
413,-7580,3,385,-4613,23,-89,-39,35
414,-7581,-3,377,-4614,23,-88,-40,35
415,-7571,-9,362,-4613,23,-88,-40,35
416,-7583,-7,375,-4612,23,-89,-40,33
417,-7584,-3,368,-4613,23,-88,-40,34
418,-7581,-5,382,-4614,23,-88,-40,36
419,-7577,-4,360,-4616,23,-88,-40,35
420,-7578,-13,372,-4616,23,-88,-40,35
421,-7576,-10,371,-4620,23,-88,-40,36
422,-7574,-4,364,-4619,23,-89,-39,36
423,-7574,-6,374,-4619,23,-88,-39,35
424,-7582,-3,371,-4620,23,-86,-39,37
425,-7572,-6,365,-4619,23,-87,-38,36
426,-7574,-5,379,-4616,23,-87,-38,36
427,-7574,-6,377,-4618,23,-88,-38,35
428,-7572,-6,368,-4614,23,-89,-38,35
429,-7584,-4,366,-4615,23,-88,-39,35
430,-7586,-11,369,-4616,23,-87,-39,36
431,-7584,-10,370,-4612,23,-87,-39,35
432,-7574,-6,374,-4611,23,-87,-39,35
433,-7574,-15,395,-4610,23,-88,-39,35
434,-7575,-21,401,-4612,23,-88,-39,35
435,-7579,-14,396,-4610,23,-88,-38,35
436,-7586,-7,394,-4610,23,-87,-39,34
437,-7591,-8,384,-4611,23,-87,-38,34
438,-7584,-6,390,-4613,23,-87,-39,34
439,-7581,-6,379,-4612,23,-87,-39,35
440,-7576,0,374,-4612,23,-87,-39,35
441,-7573,7,370,-4611,23,-88,-40,34
442,-7572,6,377,-4607,23,-87,-39,34
443,-7575,4,365,-4610,23,-88,-38,34
444,-7577,-2,372,-4610,23,-88,-38,34
445,-7576,-4,384,-4611,23,-88,-39,34
446,-7576,-5,378,-4614,23,-87,-41,35
447,-7579,-14,381,-4610,23,-88,-39,35
448,-7574,-14,392,-4615,23,-88,-39,34
449,-7569,-8,384,-4614,23,-87,-38,35
450,-7569,-2,381,-4611,23,-86,-37,34
451,-7568,-3,379,-4615,23,-87,-37,34
452,-7573,3,379,-4613,23,-87,-38,34
453,-7575,-4,387,-4612,23,-88,-39,33
454,-7568,-1,377,-4611,23,-87,-39,33
455,-7570,-1,379,-4610,23,-88,-40,34
456,-7577,-7,377,-4610,23,-89,-39,35
457,-7578,-12,374,-4609,23,-88,-38,36
458,-7580,-4,378,-4610,23,-88,-39,35
459,-7574,-9,384,-4611,23,-88,-39,36
460,-7583,-9,378,-4610,23,-89,-40,36
461,-7577,-5,383,-4609,23,-88,-40,36
462,-7586,-2,379,-4610,23,-86,-40,36
463,-7585,-5,371,-4610,23,-87,-39,36
464,-7580,2,381,-4612,23,-87,-39,35
465,-7577,-6,384,-4612,23,-88,-39,35
466,-7568,-10,375,-4610,23,-88,-39,34
467,-7569,-11,367,-4610,23,-88,-39,35
468,-7573,-18,361,-4612,23,-87,-39,34
469,-7573,-13,367,-4611,23,-87,-38,34
470,-7571,-10,360,-4610,23,-87,-39,34
471,-7577,-1,363,-4611,23,-88,-39,34
472,-7578,-6,367,-4614,23,-88,-39,35
473,-7580,-15,366,-4611,23,-88,-37,34
474,-7574,-17,379,-4610,23,-88,-37,35
475,-7574,-10,370,-4606,23,-87,-38,34
476,-7571,-6,364,-4610,23,-88,-38,35
477,-7571,-10,371,-4611,23,-88,-39,34
478,-7578,-13,377,-4609,23,-87,-38,34
479,-7579,-13,372,-4609,23,-87,-39,35
480,-7564,-12,375,-4610,23,-87,-38,36
481,-7571,-8,374,-4610,23,-87,-38,35
482,-7566,-11,378,-4605,23,-87,-39,35
483,-7571,-4,371,-4607,23,-88,-39,35
484,-7575,-7,374,-4609,23,-88,-38,34
485,-7582,-7,371,-4613,23,-87,-38,35
486,-7578,-7,367,-4616,23,-88,-39,35
487,-7576,-8,360,-4619,23,-88,-39,35
488,-7579,-14,367,-4616,23,-88,-39,35
489,-7571,-9,370,-4614,23,-87,-39,34
490,-7576,-12,357,-4614,23,-88,-38,34
491,-7587,-12,368,-4610,23,-88,-38,34
492,-7584,-13,368,-4610,23,-87,-39,33
493,-7590,-20,367,-4609,23,-87,-39,34
494,-7578,-13,381,-4608,23,-87,-37,34
495,-7580,-13,380,-4606,23,-88,-37,35
496,-7584,-3,387,-4605,23,-87,-37,35
497,-7575,1,390,-4609,23,-88,-38,35
498,-7576,0,389,-4611,23,-88,-37,35
499,-7580,4,390,-4613,23,-87,-38,35
500,-7581,12,383,-4609,23,-87,-38,34
501,-7583,5,378,-4609,23,-86,-38,35
502,-7588,-5,380,-4609,23,-87,-38,34
503,-7576,1,373,-4608,23,-88,-39,34
504,-7574,-3,368,-4605,23,-87,-39,34
505,-7579,-10,387,-4605,23,-86,-39,33
506,-7578,-9,380,-4607,23,-88,-38,34
507,-7579,-23,381,-4607,23,-88,-38,35
508,-7569,-10,381,-4609,23,-88,-38,35
509,-7568,-1,383,-4608,23,-88,-39,34
510,-7571,-10,382,-4607,23,-88,-39,34
511,-7565,-6,371,-4607,23,-87,-39,35
512,-7567,-10,374,-4605,23,-87,-40,34
513,-7580,-18,375,-4610,23,-88,-39,34
514,-7578,-19,379,-4613,23,-88,-39,34
515,-7583,-12,379,-4614,23,-87,-38,34
516,-7577,-8,380,-4612,23,-88,-38,34
517,-7588,-10,382,-4611,23,-88,-37,35
518,-7581,-11,397,-4610,23,-89,-37,34
519,-7580,5,388,-4611,23,-89,-38,34
520,-7575,6,377,-4610,23,-89,-38,35
521,-7566,8,364,-4608,23,-89,-39,35
522,-7566,-5,364,-4609,23,-88,-38,35
523,-7578,-13,368,-4608,23,-87,-38,35
524,-7576,-9,369,-4607,23,-87,-38,34
525,-7577,-13,367,-4608,23,-87,-38,34
526,-7578,-8,362,-4608,23,-87,-38,34
527,-7581,-7,361,-4607,23,-87,-38,34
528,-7576,-6,375,-4608,23,-88,-38,35
529,-7579,-8,379,-4610,23,-88,-39,35
530,-7576,-7,387,-4612,23,-88,-40,36
531,-7575,-16,390,-4615,23,-89,-39,36
532,-7586,-10,384,-4614,23,-89,-38,35
533,-7579,-5,382,-4612,23,-89,-38,35
534,-7575,2,381,-4612,23,-88,-39,35
535,-7576,-5,386,-4611,23,-89,-39,36
536,-7577,-12,382,-4609,23,-88,-38,36
537,-7575,-6,389,-4611,23,-87,-38,36
538,-7569,-7,390,-4608,23,-88,-38,36
539,-7579,-6,388,-4608,23,-89,-39,35
540,-7576,-5,384,-4611,23,-88,-40,35
541,-7575,-2,378,-4613,23,-88,-39,34
542,-7574,5,391,-4613,23,-88,-39,35
543,-7584,-5,378,-4612,23,-89,-38,35
544,-7579,8,382,-4609,23,-88,-38,35
545,-7572,-2,377,-4611,23,-88,-38,35
546,-7578,4,370,-4611,23,-88,-38,34
547,-7580,-2,374,-4611,23,-89,-38,35
548,-7577,-10,385,-4611,23,-88,-38,36
549,-7575,-8,364,-4609,23,-88,-38,34
550,-7576,-16,378,-4606,23,-89,-39,34
551,-7566,-3,369,-4606,23,-90,-40,34
552,-7572,-10,383,-4606,23,-88,-40,35
553,-7580,-6,385,-4606,23,-88,-40,35
554,-7582,-7,382,-4607,23,-88,-40,35
555,-7584,-4,374,-4608,23,-88,-39,36
556,-7583,-3,378,-4608,23,-89,-39,36
557,-7579,2,372,-4610,23,-88,-38,36
558,-7577,0,374,-4611,23,-88,-37,35
559,-7577,4,369,-4611,23,-88,-39,36
560,-7568,-9,384,-4613,23,-88,-39,36
561,-7567,0,372,-4614,23,-88,-39,35
562,-7573,2,376,-4616,23,-88,-40,35
563,-7576,-3,371,-4617,23,-88,-39,36
564,-7580,-5,389,-4617,23,-88,-38,35
565,-7581,-4,391,-4615,23,-87,-38,35
566,-7579,0,388,-4612,23,-88,-38,36
567,-7575,2,391,-4611,23,-88,-38,34
568,-7572,-2,374,-4611,23,-88,-38,34
569,-7577,-4,378,-4609,23,-88,-39,34
570,-7571,-13,366,-4611,23,-88,-39,35
571,-7574,-14,376,-4610,23,-89,-39,35
572,-7579,-9,383,-4608,23,-88,-39,36
573,-7578,-6,371,-4609,23,-88,-40,35
574,-7584,0,367,-4608,23,-87,-40,36
575,-7586,-9,373,-4610,23,-88,-40,35
576,-7579,-5,375,-4612,23,-88,-40,34
577,-7587,-7,386,-4612,23,-87,-40,35
578,-7577,-3,383,-4612,23,-87,-40,35
579,-7576,-7,381,-4608,23,-87,-39,34
580,-7582,-4,376,-4608,23,-86,-39,34
581,-7572,-1,378,-4608,23,-87,-39,34
582,-7573,-4,385,-4608,23,-88,-39,35
583,-7578,-2,377,-4608,23,-89,-39,35
584,-7583,1,382,-4609,23,-88,-38,33
585,-7586,0,366,-4609,23,-88,-38,34
586,-7574,7,372,-4608,23,-88,-38,34
587,-7581,3,386,-4609,23,-88,-39,34
588,-7576,3,391,-4610,23,-87,-39,33
589,-7575,-7,396,-4611,23,-88,-39,35
590,-7575,-14,386,-4611,23,-87,-39,35
591,-7572,-11,380,-4610,23,-88,-39,34
592,-7574,-1,380,-4608,23,-88,-39,34
593,-7574,-1,379,-4607,23,-87,-38,34
594,-7583,-2,372,-4610,23,-87,-39,34
595,-7582,-8,381,-4610,23,-87,-38,34
596,-7583,-19,369,-4611,23,-87,-38,35
597,-7584,-6,367,-4610,23,-86,-38,35
598,-7576,-5,376,-4612,23,-87,-38,33
599,-7572,-4,378,-4610,23,-86,-39,34
600,-7582,-1,375,-4613,23,-87,-39,34
601,-7581,-7,370,-4610,23,-87,-40,35
602,-7578,-8,381,-4611,23,-87,-39,35
603,-7578,-8,393,-4612,23,-88,-39,35
604,-7583,-6,389,-4611,23,-88,-38,35
605,-7581,-8,377,-4614,23,-88,-38,35
606,-7569,-14,381,-4612,23,-89,-38,34
607,-7572,-16,374,-4614,23,-88,-39,34
608,-7575,-18,388,-4611,23,-87,-39,35
609,-7581,-12,391,-4613,23,-88,-39,35
610,-7578,-12,395,-4611,23,-88,-39,35
611,-7570,-18,376,-4614,23,-88,-39,35
612,-7572,-22,363,-4612,23,-88,-39,35
613,-7576,-12,368,-4613,23,-88,-40,35
614,-7578,-9,374,-4611,23,-87,-38,34
615,-7587,-19,368,-4609,23,-89,-38,34
616,-7584,-12,365,-4609,23,-88,-39,34
617,-7591,-12,368,-4608,23,-88,-38,35
618,-7589,-18,372,-4609,23,-89,-39,35
619,-7593,-20,361,-4613,23,-89,-39,35
620,-7580,-25,375,-4611,23,-89,-39,34
621,-7571,-15,386,-4609,23,-89,-37,34
622,-7570,-10,378,-4609,23,-88,-38,35
623,-7581,-3,373,-4609,23,-88,-39,35
624,-7578,3,364,-4610,23,-88,-38,35
625,-7583,-6,372,-4612,23,-88,-39,34
626,-7574,-5,382,-4611,23,-87,-40,34
627,-7575,0,383,-4614,23,-87,-39,35
628,-7569,-13,384,-4613,23,-87,-40,35
629,-7571,-16,390,-4614,23,-87,-39,35
630,-7577,-9,379,-4613,23,-87,-39,35
631,-7579,-8,367,-4615,23,-87,-38,35
632,-7564,-4,361,-4613,23,-88,-37,34
633,-7567,-6,360,-4611,23,-87,-37,35
634,-7572,-8,359,-4610,23,-87,-38,34
635,-7566,-6,375,-4612,23,-88,-38,34
636,-7570,-8,371,-4613,23,-89,-38,35
637,-7576,-11,377,-4613,23,-88,-39,35
638,-7581,-8,385,-4612,23,-87,-38,35
639,-7584,-9,374,-4612,23,-87,-37,34
640,-7580,-7,377,-4613,23,-89,-38,35
641,-7570,-5,371,-4608,23,-88,-38,34
642,-7583,-6,367,-4608,23,-87,-38,35
643,-7584,-1,377,-4611,23,-88,-39,34
644,-7577,-4,386,-4615,23,-87,-39,34
645,-7582,-8,386,-4615,23,-87,-39,34
646,-7575,7,376,-4616,23,-87,-39,35
647,-7568,0,366,-4613,23,-87,-39,35
648,-7557,5,384,-4614,23,-89,-38,34
649,-7566,-3,383,-4610,23,-88,-38,35
650,-7573,1,377,-4609,23,-88,-37,35
651,-7579,-5,384,-4613,23,-88,-37,35
652,-7579,-8,376,-4612,23,-88,-36,35
653,-7575,-12,376,-4611,23,-88,-37,34
654,-7582,-7,358,-4608,23,-88,-38,34
655,-7584,-4,364,-4609,23,-87,-37,35
656,-7585,-1,377,-4609,23,-87,-38,34
657,-7585,4,386,-4609,23,-88,-39,34
658,-7582,6,386,-4611,23,-88,-39,35
659,-7580,1,365,-4609,23,-87,-39,34
660,-7577,-14,370,-4608,23,-88,-39,34
661,-7571,-11,372,-4609,23,-87,-39,34
662,-7578,-11,373,-4606,23,-87,-39,34
663,-7585,-5,372,-4605,23,-89,-39,35
664,-7577,-9,368,-4610,23,-89,-38,36
665,-7567,-4,377,-4613,23,-89,-39,36
666,-7574,-6,375,-4615,23,-88,-38,34
667,-7571,-6,381,-4610,23,-88,-38,34
668,-7568,-6,390,-4612,23,-87,-38,35
669,-7570,-10,382,-4615,23,-88,-38,36
670,-7575,-10,379,-4615,23,-88,-37,35
671,-7577,-10,388,-4608,23,-88,-38,35
672,-7578,-9,393,-4605,23,-88,-38,35
673,-7581,-13,387,-4604,23,-88,-38,34
674,-7569,-9,386,-4606,23,-87,-39,35
675,-7574,0,387,-4604,23,-87,-38,34
676,-7583,-3,381,-4605,23,-87,-38,36
677,-7580,-3,378,-4605,23,-88,-37,35
678,-7577,-13,378,-4605,23,-88,-38,35
679,-7579,-10,393,-4608,23,-87,-39,35
680,-7572,-7,385,-4610,23,-87,-39,34
681,-7567,-3,377,-4609,23,-87,-38,34
682,-7574,-4,384,-4609,23,-87,-38,34
683,-7576,-1,376,-4610,23,-86,-39,34
684,-7571,-8,367,-4610,23,-86,-39,35
685,-7575,2,365,-4607,23,-87,-39,36
686,-7580,2,377,-4608,23,-88,-40,36
687,-7575,4,388,-4606,23,-87,-39,35
688,-7571,-6,392,-4606,23,-87,-40,35
689,-7573,-26,387,-4608,23,-87,-39,34
690,-7575,-19,380,-4608,23,-86,-38,34
691,-7576,-8,376,-4608,23,-87,-39,35
692,-7581,-10,387,-4608,23,-86,-38,35
693,-7580,0,379,-4606,23,-87,-38,36
694,-7579,-6,383,-4605,23,-86,-38,35
695,-7585,-3,379,-4604,23,-85,-37,35
696,-7576,9,383,-4608,23,-86,-38,34
697,-7570,0,380,-4610,23,-87,-39,33
698,-7576,-1,375,-4609,23,-87,-39,34
699,-7575,2,382,-4609,23,-87,-38,34
700,-7585,0,393,-4608,23,-88,-38,35
701,-7576,1,396,-4606,23,-88,-38,34
702,-7584,2,396,-4610,23,-89,-39,34
703,-7577,-1,385,-4609,23,-89,-39,34
704,-7570,-12,377,-4607,23,-89,-39,33
705,-7576,-8,382,-4612,23,-89,-39,34
706,-7579,-1,387,-4608,23,-88,-39,33
707,-7583,-3,365,-4609,23,-87,-38,34
708,-7580,-5,370,-4607,23,-88,-38,34
709,-7578,-9,378,-4607,23,-88,-38,34
710,-7588,-13,377,-4607,23,-88,-39,35
711,-7593,0,378,-4606,23,-88,-38,34
712,-7594,-4,383,-4607,23,-88,-38,35
713,-7590,-7,385,-4607,23,-88,-38,34
714,-7576,-5,390,-4610,23,-87,-38,34
715,-7578,-12,391,-4607,23,-88,-38,34
716,-7576,-4,397,-4609,23,-88,-38,35
717,-7581,-10,391,-4608,23,-87,-38,35
718,-7577,-10,386,-4606,23,-87,-38,33
719,-7569,-8,380,-4605,23,-88,-38,34
720,-7570,-11,388,-4603,23,-88,-38,34
721,-7567,-9,378,-4603,23,-87,-38,34
722,-7563,-4,371,-4606,23,-87,-38,34
723,-7566,-2,379,-4605,23,-88,-38,35
724,-7569,2,386,-4603,23,-87,-39,35
725,-7574,-1,376,-4604,23,-87,-39,34
726,-7572,-6,378,-4605,23,-87,-39,34
727,-7575,-13,371,-4608,23,-88,-38,35
728,-7579,-14,376,-4605,23,-87,-38,36
729,-7579,-19,364,-4608,23,-87,-38,35
730,-7582,-14,371,-4611,23,-88,-37,35
731,-7583,-11,372,-4611,23,-87,-38,34
732,-7583,-12,379,-4607,23,-87,-38,35
733,-7583,-9,392,-4606,23,-87,-38,35
734,-7584,-14,393,-4606,23,-87,-39,35
735,-7586,-15,394,-4605,23,-87,-38,34
736,-7580,-11,389,-4607,23,-87,-39,34
737,-7576,-3,379,-4607,23,-87,-39,35
738,-7586,-5,382,-4605,23,-87,-39,34
739,-7576,-7,392,-4600,23,-88,-40,34
740,-7572,-9,386,-4603,23,-88,-39,35
741,-7569,-11,380,-4602,23,-87,-40,35
742,-7574,-9,374,-4603,23,-87,-40,35
743,-7573,-5,383,-4604,23,-87,-40,35
744,-7567,-12,379,-4604,23,-88,-39,36
745,-7575,-1,380,-4605,23,-89,-40,35
746,-7583,-1,376,-4606,23,-88,-39,35
747,-7577,-7,385,-4607,23,-88,-38,35
748,-7584,-3,391,-4608,23,-89,-38,34
749,-7584,-10,379,-4608,23,-89,-40,34
750,-7581,-19,389,-4611,23,-88,-40,35
751,-7579,-8,389,-4609,23,-87,-39,34
752,-7575,-8,376,-4608,23,-87,-38,35
753,-7574,0,388,-4607,23,-88,-38,35
754,-7579,1,380,-4607,23,-89,-38,34
755,-7573,1,379,-4608,23,-88,-39,34
756,-7576,-2,373,-4608,23,-88,-38,34
757,-7586,1,379,-4610,23,-88,-40,34
758,-7588,4,364,-4610,23,-89,-41,34
759,-7589,-1,369,-4608,23,-88,-41,34
760,-7591,-6,369,-4604,23,-87,-40,34
761,-7590,-3,354,-4604,23,-86,-39,34
762,-7579,-7,355,-4605,23,-88,-39,34
763,-7581,-7,368,-4606,23,-88,-37,34
764,-7584,-13,373,-4605,23,-87,-39,34
765,-7584,-18,370,-4602,23,-88,-38,35
766,-7578,-8,367,-4603,23,-88,-38,35
767,-7581,-8,363,-4604,23,-88,-38,34
768,-7586,-9,375,-4607,23,-88,-37,34
769,-7576,-13,367,-4607,23,-88,-38,34
770,-7576,-5,362,-4607,23,-88,-39,34
771,-7578,2,375,-4608,23,-87,-39,34
772,-7572,-3,379,-4609,23,-87,-37,34
773,-7577,-5,375,-4604,23,-86,-38,34
774,-7574,-5,368,-4606,23,-86,-38,34
775,-7577,-1,375,-4609,23,-87,-39,34
776,-7579,3,373,-4610,23,-87,-38,35
777,-7571,-6,373,-4610,23,-87,-38,35
778,-7571,-9,377,-4609,23,-86,-38,34
779,-7571,-5,389,-4607,23,-86,-39,35
780,-7577,-2,391,-4608,23,-86,-39,34
781,-7578,-3,386,-4609,23,-86,-39,35
782,-7578,0,375,-4609,23,-86,-39,35
783,-7577,3,367,-4610,23,-86,-39,35
784,-7582,2,362,-4610,23,-87,-38,35
785,-7578,-11,365,-4613,23,-87,-39,35
786,-7566,-16,372,-4613,23,-86,-39,36
787,-7575,-17,372,-4613,23,-88,-40,36
788,-7583,-6,376,-4609,23,-89,-39,35
789,-7578,-8,374,-4608,23,-88,-39,35
790,-7581,-8,374,-4609,23,-88,-38,34
791,-7581,-9,367,-4609,23,-88,-39,35
792,-7572,-8,369,-4609,23,-88,-38,35
793,-7569,-5,382,-4609,23,-88,-39,35
794,-7574,-17,377,-4606,23,-88,-39,35
795,-7579,-14,369,-4608,23,-88,-39,34
796,-7581,-15,371,-4606,23,-87,-40,34
797,-7579,-11,385,-4609,23,-87,-41,35
798,-7576,-10,383,-4608,23,-86,-41,35
799,-7574,-4,376,-4610,23,-87,-40,36
800,-7586,-2,374,-4609,23,-87,-40,36
801,-7592,-9,381,-4608,23,-86,-39,35
802,-7588,-4,393,-4610,23,-87,-37,35
803,-7579,-3,383,-4612,23,-87,-37,35
804,-7586,-3,381,-4611,23,-87,-38,35
805,-7577,0,379,-4611,23,-89,-38,36
806,-7583,-5,372,-4608,23,-88,-38,35
807,-7581,0,368,-4604,23,-88,-38,34
808,-7586,2,380,-4605,23,-89,-38,34
809,-7575,-6,366,-4604,23,-88,-39,34
810,-7576,-2,368,-4605,23,-88,-39,35
811,-7574,0,377,-4607,23,-87,-38,34
812,-7569,-7,375,-4610,23,-88,-40,34
813,-7573,-5,377,-4607,23,-88,-39,35
814,-7585,-9,367,-4604,23,-88,-38,35
815,-7582,-5,362,-4604,23,-87,-38,35
816,-7577,-5,378,-4608,23,-87,-39,35
817,-7571,-12,374,-4610,23,-87,-38,35
818,-7570,-13,374,-4608,23,-87,-38,35
819,-7576,-9,366,-4608,23,-88,-39,34
820,-7581,-8,380,-4611,23,-88,-40,34
821,-7579,-8,379,-4607,23,-87,-41,34
822,-7574,-8,372,-4611,23,-87,-40,34
823,-7582,-7,364,-4608,23,-87,-40,33
824,-7581,-6,358,-4607,23,-88,-40,34
825,-7581,9,357,-4608,23,-88,-40,35
826,-7581,4,364,-4610,23,-87,-39,35
827,-7587,-7,372,-4607,23,-86,-39,36
828,-7579,-8,362,-4607,23,-87,-39,35
829,-7579,-3,373,-4606,23,-87,-39,35
830,-7591,-5,379,-4610,23,-86,-38,36
831,-7589,-9,361,-4608,23,-86,-39,35
832,-7582,-7,371,-4608,23,-87,-39,35
833,-7585,-4,370,-4606,23,-86,-40,35
834,-7583,6,378,-4610,23,-87,-38,34
835,-7584,0,374,-4610,23,-87,-38,34
836,-7586,3,374,-4609,23,-88,-37,34
837,-7583,1,383,-4609,23,-87,-38,35
838,-7583,3,379,-4610,23,-86,-38,34
839,-7578,0,369,-4606,23,-87,-39,35
840,-7579,-2,373,-4605,23,-87,-40,34
841,-7581,-2,366,-4609,23,-87,-39,34
842,-7589,-4,358,-4610,23,-87,-39,34
843,-7585,-11,381,-4609,23,-87,-39,36
844,-7584,-6,388,-4607,23,-87,-39,35
845,-7581,-4,375,-4605,23,-88,-38,35
846,-7582,-4,377,-4603,23,-88,-38,35
847,-7583,-1,373,-4601,23,-88,-38,34
848,-7579,-9,376,-4601,23,-88,-39,35
849,-7577,-12,386,-4602,23,-87,-40,35
850,-7567,-5,381,-4607,23,-88,-40,35
851,-7572,-10,386,-4607,23,-88,-40,34
852,-7569,-9,369,-4606,23,-87,-39,34
853,-7574,-5,380,-4607,23,-88,-40,33
854,-7580,-11,380,-4605,23,-88,-40,33
855,-7577,2,375,-4610,23,-88,-39,35
856,-7578,-9,378,-4607,23,-88,-39,36
857,-7577,-12,371,-4606,23,-87,-41,35
858,-7571,-11,367,-4605,23,-88,-41,35
859,-7567,-11,374,-4606,23,-87,-39,34
860,-7579,-9,374,-4607,23,-88,-38,34
861,-7566,-10,370,-4609,23,-87,-39,35
862,-7570,-6,378,-4609,23,-87,-38,35
863,-7575,1,376,-4607,23,-88,-38,37
864,-7573,0,376,-4608,23,-87,-38,35
865,-7571,2,369,-4609,23,-87,-38,35
866,-7574,0,365,-4610,23,-86,-38,35
867,-7576,-1,372,-4607,23,-86,-38,35
868,-7577,5,384,-4606,23,-87,-39,35
869,-7573,10,389,-4607,23,-87,-38,36
870,-7563,-2,395,-4603,23,-87,-39,35
871,-7561,-1,411,-4605,23,-87,-38,34
872,-7561,-5,396,-4605,23,-87,-38,34
873,-7561,-16,376,-4609,23,-87,-38,34
874,-7572,-22,374,-4610,23,-88,-38,34
875,-7574,-10,362,-4607,23,-88,-38,34
876,-7575,-10,366,-4606,23,-87,-39,34
877,-7581,-7,376,-4606,23,-87,-40,34
878,-7581,-8,368,-4608,23,-87,-40,34
879,-7577,-7,368,-4606,23,-88,-39,33
880,-7575,-4,377,-4606,23,-88,-38,34
881,-7581,-4,380,-4606,23,-88,-39,34
882,-7579,-6,371,-4605,23,-88,-40,34
883,-7585,-12,383,-4606,23,-88,-39,35
884,-7576,0,377,-4609,23,-87,-39,34
885,-7570,-10,377,-4608,23,-88,-39,34
886,-7574,-7,381,-4610,23,-87,-40,35
887,-7576,-2,386,-4607,23,-87,-41,35
888,-7575,-10,380,-4609,23,-87,-39,35
889,-7577,-6,380,-4608,23,-87,-40,35
890,-7577,-18,385,-4611,23,-87,-40,34
891,-7573,-16,383,-4609,23,-87,-40,34
892,-7571,-22,372,-4611,23,-86,-39,34
893,-7569,-18,379,-4612,23,-87,-39,34
894,-7562,-12,383,-4609,23,-89,-39,34
895,-7567,-13,381,-4612,23,-89,-38,34
896,-7581,-11,391,-4610,23,-89,-39,34
897,-7583,-7,384,-4607,23,-88,-38,35
898,-7590,-9,376,-4608,23,-88,-37,34
899,-7582,-9,365,-4606,23,-89,-38,35
900,-7586,-7,370,-4605,23,-88,-37,34
901,-7584,-11,373,-4610,23,-88,-38,34
902,-7578,-9,361,-4606,23,-88,-38,35
903,-7588,-17,376,-4607,23,-88,-38,35
904,-7584,-15,393,-4608,23,-87,-38,35
905,-7577,-20,380,-4609,23,-86,-38,35
906,-7577,-17,379,-4612,23,-86,-38,35
907,-7588,-10,377,-4615,23,-87,-41,34
908,-7581,-15,384,-4613,23,-88,-40,35
909,-7578,-10,384,-4613,23,-87,-40,35
910,-7576,-7,378,-4613,23,-87,-40,34
911,-7573,-3,377,-4611,23,-88,-40,34
912,-7574,-7,379,-4612,23,-88,-40,35
913,-7583,-10,384,-4613,23,-88,-39,33
914,-7589,-9,393,-4611,23,-88,-39,34
915,-7586,-6,377,-4609,23,-88,-38,35
916,-7583,-8,382,-4612,23,-87,-38,35
917,-7588,-5,385,-4609,23,-88,-39,35
918,-7587,0,400,-4609,23,-88,-38,35
919,-7581,3,390,-4610,23,-88,-40,35
920,-7582,2,370,-4607,23,-88,-39,34
921,-7585,2,379,-4611,23,-88,-39,34
922,-7584,-1,378,-4611,23,-88,-39,34
923,-7592,-3,376,-4610,23,-87,-38,34
924,-7583,10,377,-4613,23,-87,-39,34
925,-7575,-1,379,-4610,23,-87,-38,34
926,-7568,-13,379,-4609,23,-88,-39,34
927,-7578,-13,383,-4612,23,-89,-39,34
928,-7585,-19,405,-4613,23,-88,-39,34
929,-7574,-14,390,-4614,23,-88,-39,35
930,-7573,-8,392,-4610,23,-87,-40,36
931,-7585,-1,408,-4610,23,-87,-39,35
932,-7578,-8,395,-4611,23,-87,-40,35
933,-7574,-8,389,-4612,23,-88,-40,35
934,-7575,-4,386,-4609,23,-88,-40,36
935,-7577,-14,374,-4604,23,-88,-40,35
936,-7577,-8,380,-4603,23,-87,-40,35
937,-7577,-3,377,-4605,23,-88,-40,34
938,-7577,-4,373,-4607,23,-88,-39,35
939,-7573,-9,366,-4604,23,-88,-40,34
940,-7576,-12,369,-4606,23,-87,-39,35
941,-7572,-13,374,-4608,23,-87,-38,35
942,-7578,-18,379,-4607,23,-87,-38,35
943,-7573,-16,370,-4608,23,-87,-39,35
944,-7573,-16,377,-4608,23,-87,-39,35
945,-7580,-8,376,-4605,23,-88,-40,35
946,-7587,-3,375,-4606,23,-88,-39,35
947,-7580,-7,367,-4605,23,-87,-39,34
948,-7583,-7,363,-4603,23,-87,-39,36
949,-7574,-7,377,-4607,23,-88,-39,34
950,-7577,-4,366,-4602,23,-87,-39,35
951,-7577,0,376,-4603,23,-87,-39,35
952,-7581,-5,370,-4606,23,-88,-39,35
953,-7580,-5,370,-4604,23,-88,-40,35
954,-7573,-14,384,-4602,23,-89,-40,35
955,-7576,-9,381,-4605,23,-88,-39,35
956,-7575,-6,388,-4606,23,-88,-39,35
957,-7571,-2,391,-4605,23,-87,-40,34
958,-7570,-15,406,-4608,23,-88,-39,35
959,-7575,-6,395,-4603,23,-87,-39,34
960,-7577,-6,387,-4603,23,-88,-38,34
961,-7577,-7,388,-4603,23,-87,-38,33
962,-7570,-13,381,-4605,23,-88,-38,32
963,-7565,-10,385,-4603,23,-88,-38,33
964,-7565,-12,391,-4604,23,-88,-38,34
965,-7561,-13,384,-4606,23,-89,-39,34
966,-7571,-8,378,-4606,23,-87,-38,34
967,-7576,-3,370,-4603,23,-87,-38,36
968,-7579,-2,379,-4606,23,-88,-39,35
969,-7583,-10,379,-4606,23,-89,-39,35
970,-7580,-4,367,-4604,23,-89,-37,34
971,-7579,-7,364,-4603,23,-88,-39,34
972,-7573,-9,378,-4603,23,-89,-39,35
973,-7570,-18,383,-4607,23,-89,-38,34
974,-7570,-17,381,-4607,23,-89,-38,34
975,-7574,-13,381,-4607,23,-88,-38,34
976,-7576,-14,377,-4605,23,-88,-38,35
977,-7581,-10,374,-4604,23,-87,-39,34
978,-7577,-14,377,-4603,23,-88,-39,34
979,-7582,-10,384,-4602,23,-88,-39,34
980,-7579,-12,389,-4601,23,-87,-38,34
981,-7579,-12,374,-4602,23,-87,-38,34
982,-7574,-7,375,-4605,23,-87,-38,34
983,-7566,-7,373,-4605,23,-86,-39,34
984,-7572,-9,380,-4604,23,-87,-39,33
985,-7578,-6,370,-4605,23,-88,-39,35
986,-7580,-2,376,-4604,23,-88,-38,35
987,-7576,-4,388,-4606,23,-89,-37,35
988,-7575,-7,378,-4603,23,-89,-38,34
989,-7579,-10,388,-4606,23,-89,-38,34
990,-7576,-19,375,-4606,23,-89,-38,34
991,-7581,-14,370,-4607,23,-89,-38,33
992,-7578,-23,382,-4602,23,-88,-38,33
993,-7581,-20,367,-4603,23,-87,-39,35
994,-7588,-13,370,-4605,23,-87,-39,35
995,-7584,-3,379,-4602,23,-87,-39,34
996,-7592,-6,375,-4601,23,-87,-39,33
997,-7587,-1,385,-4602,23,-87,-39,33
998,-7586,-12,392,-4602,23,-87,-39,34
