,acc_X,acc_Y,acc_Z,temp,tempC,gyr_X,gyr_Y,gyr_Z
0,-3785,-4,183,-4728,23,-172,-76,70
1,-3787,-4,183,-4728,23,-172,-76,70
2,-3787,-3,186,-4728,23,-172,-76,69
3,-3786,-4,187,-4729,23,-173,-75,70
4,-3787,-4,188,-4729,23,-172,-76,70
5,-3786,-7,188,-4728,23,-172,-75,70
6,-3787,-7,187,-4728,23,-171,-75,70
7,-3786,-6,188,-4728,23,-172,-75,70
8,-3787,-6,189,-4727,23,-173,-76,69
9,-3788,-4,188,-4727,23,-174,-77,69
10,-3789,-2,187,-4728,23,-173,-77,70
11,-3786,-4,190,-4728,23,-173,-77,70
12,-3787,-5,189,-4726,23,-174,-77,70
13,-3787,-4,188,-4725,23,-174,-77,70
14,-3787,-1,184,-4726,23,-173,-76,70
15,-3788,0,186,-4726,23,-173,-76,70
16,-3787,0,187,-4727,23,-173,-77,71
17,-3787,1,186,-4727,23,-175,-76,71
18,-3789,0,187,-4727,23,-174,-75,70
19,-3787,0,184,-4727,23,-173,-75,70
20,-3789,-2,186,-4727,23,-173,-76,69
21,-3790,-4,186,-4727,23,-173,-76,69
22,-3788,-3,185,-4727,23,-173,-76,70
23,-3788,-3,181,-4726,23,-173,-76,71
24,-3785,-2,180,-4727,23,-173,-76,71
25,-3786,-4,183,-4726,23,-172,-76,70
26,-3786,-4,185,-4724,23,-173,-76,70
27,-3786,-5,189,-4724,23,-173,-76,70
28,-3786,-5,187,-4725,23,-173,-76,71
29,-3786,-5,186,-4724,23,-172,-78,70
30,-3785,-1,188,-4724,23,-173,-77,70
31,-3787,-1,187,-4723,23,-174,-77,69
32,-3789,2,189,-4724,23,-174,-79,69
33,-3790,2,187,-4722,23,-174,-77,71
34,-3790,3,187,-4721,23,-174,-77,71
35,-3792,3,186,-4720,23,-174,-78,70
36,-3793,0,191,-4720,23,-174,-77,69
37,-3792,-2,190,-4720,23,-174,-74,69
38,-3787,-3,185,-4719,23,-174,-74,70
39,-3786,-5,186,-4720,23,-174,-73,69
40,-3785,-6,187,-4719,23,-174,-74,69
41,-3785,-6,186,-4718,23,-174,-74,68
42,-3786,-5,186,-4718,23,-174,-75,69
43,-3785,-3,188,-4718,23,-173,-75,69
44,-3786,-2,193,-4718,23,-174,-76,70
45,-3785,1,187,-4717,23,-172,-76,70
46,-3784,1,188,-4716,23,-173,-76,70
47,-3786,0,189,-4717,23,-173,-76,70
48,-3787,0,190,-4714,23,-173,-76,70
49,-3788,0,192,-4716,23,-174,-77,70
50,-3787,-1,191,-4716,23,-173,-77,70
51,-3787,-2,187,-4715,23,-173,-78,70
52,-3786,0,190,-4716,23,-172,-78,70
53,-3785,-1,189,-4715,23,-173,-77,71
54,-3786,0,188,-4713,23,-173,-76,70
55,-3787,-2,186,-4714,23,-173,-77,71
56,-3787,-2,186,-4714,23,-173,-77,70
57,-3789,-3,187,-4713,23,-174,-77,70
58,-3790,-5,188,-4713,23,-173,-78,70
59,-3790,-3,185,-4711,23,-174,-77,69
60,-3791,-2,184,-4712,23,-172,-77,69
61,-3790,-5,184,-4710,23,-173,-75,68
62,-3789,-4,186,-4707,23,-171,-75,69
63,-3787,-2,186,-4710,23,-172,-77,69
64,-3784,1,188,-4709,23,-172,-78,69
65,-3786,1,191,-4709,23,-173,-78,68
66,-3785,0,186,-4708,23,-172,-78,68
67,-3785,-2,183,-4708,23,-172,-78,69
68,-3786,-2,185,-4709,23,-172,-78,70
69,-3786,0,185,-4707,23,-171,-79,70
70,-3786,-1,184,-4708,23,-172,-78,71
71,-3787,-1,182,-4708,23,-172,-77,70
72,-3788,-2,184,-4708,23,-173,-77,70
73,-3790,-4,183,-4708,23,-173,-77,70
74,-3789,-2,187,-4707,23,-174,-77,70
75,-3790,-3,188,-4707,23,-174,-78,70
76,-3790,1,189,-4709,23,-174,-77,70
77,-3793,-2,186,-4709,23,-174,-77,70
78,-3793,-4,188,-4710,23,-174,-77,70
79,-3792,-4,184,-4709,23,-172,-77,70
80,-3789,-4,184,-4709,23,-172,-77,70
81,-3790,-1,183,-4707,23,-173,-77,69
82,-3792,0,185,-4708,23,-173,-77,69
83,-3789,0,182,-4706,23,-173,-77,70
84,-3789,0,186,-4706,23,-173,-78,71
85,-3789,-3,186,-4705,23,-172,-78,70
86,-3789,-3,190,-4705,23,-171,-77,70
87,-3789,-4,189,-4704,23,-172,-77,70
88,-3789,-4,187,-4705,23,-172,-76,70
89,-3790,-3,184,-4706,23,-173,-76,70
90,-3790,-2,188,-4704,23,-172,-75,70
91,-3788,-3,187,-4702,23,-173,-77,69
92,-3787,-6,186,-4703,23,-173,-77,69
93,-3787,-5,189,-4705,23,-174,-77,69
94,-3788,-5,189,-4704,23,-174,-77,69
95,-3789,-5,190,-4705,23,-174,-76,69
96,-3787,-4,190,-4704,23,-174,-76,69
97,-3788,-5,187,-4701,23,-175,-76,69
98,-3787,-3,184,-4701,23,-176,-78,68
99,-3787,-5,187,-4702,23,-176,-78,68
100,-3788,-4,186,-4703,23,-176,-76,69
101,-3787,-5,190,-4700,23,-174,-77,69
102,-3787,-3,187,-4701,23,-175,-76,69
103,-3787,-3,184,-4701,23,-174,-75,69
104,-3788,-3,184,-4702,23,-174,-75,69
105,-3789,-3,189,-4701,23,-173,-75,69
106,-3788,-1,187,-4702,23,-173,-75,70
107,-3788,-1,189,-4703,23,-172,-75,70
108,-3789,1,185,-4700,23,-172,-75,69
109,-3788,2,186,-4699,23,-173,-76,70
110,-3788,1,188,-4698,23,-173,-77,70
111,-3789,2,185,-4699,23,-173,-77,70
112,-3791,0,185,-4700,23,-173,-78,70
113,-3788,-2,190,-4701,23,-174,-77,70
114,-3787,-4,190,-4701,23,-173,-77,71
115,-3789,-3,196,-4699,23,-175,-77,71
116,-3788,-2,197,-4700,23,-173,-78,71
117,-3788,-2,198,-4699,23,-174,-77,71
118,-3789,-3,193,-4699,23,-174,-77,71
119,-3790,0,191,-4697,23,-175,-77,71
120,-3791,-1,191,-4698,23,-175,-75,71
121,-3791,-1,191,-4698,23,-174,-76,71
122,-3789,-3,191,-4698,23,-173,-76,71
123,-3788,-3,194,-4698,23,-173,-77,71
124,-3788,-4,195,-4697,23,-174,-77,70
125,-3789,0,190,-4698,23,-173,-76,70
126,-3788,0,192,-4700,23,-173,-76,69
127,-3787,-1,191,-4698,23,-173,-77,70
128,-3787,-2,189,-4696,23,-174,-77,70
129,-3788,0,189,-4696,23,-174,-78,70
130,-3790,-3,189,-4696,23,-174,-77,71
131,-3789,-4,187,-4695,23,-176,-78,70
132,-3789,-4,186,-4693,23,-175,-78,70
133,-3789,-5,188,-4693,23,-175,-77,71
134,-3788,-6,186,-4692,23,-175,-77,71
135,-3790,-4,188,-4693,23,-175,-77,70
136,-3791,-4,189,-4694,23,-175,-77,71
137,-3791,-6,190,-4694,23,-175,-77,72
138,-3792,-6,192,-4695,23,-174,-77,70
139,-3790,-6,190,-4693,23,-174,-78,70
140,-3787,-6,187,-4694,23,-173,-78,71
141,-3787,-6,187,-4694,23,-172,-77,71
142,-3790,-5,186,-4696,23,-173,-77,70
143,-3786,-5,186,-4696,23,-173,-77,70
144,-3785,-5,183,-4696,23,-173,-79,72
145,-3786,-3,185,-4696,23,-173,-79,72
146,-3786,-4,186,-4694,23,-172,-78,71
147,-3785,-6,186,-4693,23,-173,-77,72
148,-3786,-5,185,-4691,23,-173,-76,72
149,-3788,-4,187,-4692,23,-174,-75,70
150,-3786,-4,191,-4693,23,-175,-76,70
151,-3787,-5,189,-4694,23,-174,-76,70
152,-3788,-2,192,-4695,23,-174,-75,70
153,-3790,-4,190,-4697,23,-175,-74,71
154,-3788,-4,189,-4695,23,-175,-74,71
155,-3789,-5,192,-4694,23,-174,-74,71
156,-3790,-5,189,-4693,23,-174,-76,70
157,-3791,-4,187,-4692,23,-174,-76,69
158,-3791,-5,186,-4692,23,-174,-77,69
159,-3790,-5,183,-4691,23,-175,-78,69
160,-3791,-2,188,-4692,23,-174,-78,68
161,-3789,-3,186,-4692,23,-174,-77,69
162,-3789,-4,184,-4691,23,-174,-77,69
163,-3788,-3,183,-4691,23,-175,-76,69
164,-3792,-3,184,-4691,23,-174,-78,69
165,-3793,-5,184,-4690,23,-175,-78,70
166,-3793,-3,186,-4689,23,-175,-78,70
167,-3792,-3,187,-4691,23,-175,-77,70
168,-3789,-3,188,-4689,23,-175,-77,70
169,-3786,-6,184,-4689,23,-174,-78,70
170,-3785,-9,185,-4689,23,-174,-78,70
171,-3786,-6,189,-4689,23,-175,-77,70
172,-3787,-4,190,-4689,23,-174,-77,69
173,-3788,-2,185,-4690,23,-174,-77,70
174,-3787,-2,180,-4690,23,-175,-77,69
175,-3788,-3,179,-4690,23,-174,-78,69
176,-3789,-2,183,-4691,23,-173,-78,69
177,-3788,0,182,-4690,23,-173,-79,69
178,-3786,0,182,-4690,23,-173,-77,69
179,-3788,-1,184,-4689,23,-173,-77,68
180,-3786,0,183,-4689,23,-172,-77,70
181,-3788,0,181,-4689,23,-173,-77,70
182,-3788,0,181,-4689,23,-172,-77,70
183,-3787,-2,180,-4688,23,-173,-78,71
184,-3790,-3,182,-4687,23,-174,-77,71
185,-3790,1,185,-4688,23,-173,-77,71
186,-3788,0,185,-4688,23,-173,-76,70
187,-3788,-1,188,-4687,23,-173,-76,70
188,-3787,-2,191,-4688,23,-173,-77,70
189,-3787,0,192,-4688,23,-174,-77,70
190,-3788,-1,190,-4686,23,-172,-77,69
191,-3789,-2,191,-4686,23,-173,-77,70
192,-3789,-1,187,-4687,23,-173,-77,68
193,-3791,-3,187,-4689,23,-174,-77,69
194,-3789,-4,188,-4688,23,-174,-78,70
195,-3787,-4,190,-4689,23,-174,-77,69
196,-3786,-1,190,-4687,23,-173,-78,69
197,-3786,-2,192,-4687,23,-173,-78,69
198,-3787,-2,192,-4687,23,-172,-76,69
199,-3785,-1,189,-4689,23,-173,-76,69
200,-3785,-1,188,-4688,23,-172,-76,70
201,-3785,0,188,-4685,23,-173,-76,70
202,-3787,1,184,-4686,23,-172,-76,70
203,-3788,0,181,-4687,23,-172,-76,70
204,-3785,1,184,-4685,23,-171,-75,69
205,-3789,3,185,-4686,23,-171,-76,70
206,-3791,1,187,-4684,23,-172,-76,70
207,-3790,1,187,-4686,23,-171,-76,70
208,-3789,0,186,-4687,23,-173,-76,69
209,-3790,-1,189,-4687,23,-174,-76,70
210,-3791,-2,188,-4688,23,-173,-74,69
211,-3790,-4,190,-4687,23,-174,-75,68
212,-3790,-3,188,-4686,23,-175,-76,69
213,-3790,0,189,-4686,23,-174,-75,70
214,-3790,1,189,-4686,23,-173,-76,70
215,-3788,0,191,-4684,23,-174,-77,70
216,-3789,0,190,-4683,23,-175,-76,70
217,-3787,-1,188,-4683,23,-174,-76,70
218,-3788,-3,186,-4683,23,-174,-76,70
219,-3786,-5,185,-4683,23,-175,-76,70
220,-3784,-4,182,-4681,23,-175,-76,70
221,-3785,-4,182,-4680,23,-175,-76,70
222,-3784,-2,182,-4683,23,-175,-76,70
223,-3784,-3,185,-4681,23,-176,-75,69
224,-3783,-4,182,-4681,23,-175,-76,69
225,-3784,-2,182,-4681,23,-175,-76,70
226,-3785,-3,184,-4683,23,-175,-76,69
227,-3784,-4,184,-4683,23,-175,-77,70
228,-3785,-4,182,-4681,23,-174,-78,69
229,-3785,-4,180,-4682,23,-174,-78,69
230,-3787,-4,180,-4682,23,-173,-77,69
231,-3786,-2,182,-4682,23,-174,-77,68
232,-3786,0,184,-4682,23,-174,-77,68
233,-3786,1,184,-4681,23,-175,-76,68
234,-3788,2,184,-4680,23,-174,-77,68
235,-3790,3,183,-4680,23,-174,-77,69
236,-3788,3,185,-4680,23,-173,-77,69
237,-3792,4,187,-4680,23,-173,-77,69
238,-3790,2,184,-4681,23,-174,-75,69
239,-3789,3,186,-4680,23,-173,-76,68
240,-3789,2,186,-4680,23,-173,-76,70
241,-3788,1,186,-4679,23,-173,-76,70
242,-3789,0,188,-4680,23,-172,-76,70
243,-3789,-2,190,-4680,23,-173,-78,69
244,-3789,0,187,-4681,23,-173,-76,69
245,-3789,0,189,-4683,23,-173,-77,70
246,-3789,0,188,-4682,23,-172,-76,70
247,-3791,2,186,-4680,23,-172,-76,69
248,-3791,3,188,-4681,23,-172,-76,69
249,-3791,1,187,-4681,23,-173,-76,69
250,-3791,-1,189,-4680,23,-172,-76,69
251,-3790,-2,187,-4679,23,-172,-76,69
252,-3788,1,188,-4679,23,-172,-77,69
253,-3789,2,190,-4678,23,-173,-76,68
254,-3789,1,192,-4679,23,-173,-76,68
255,-3787,-1,192,-4678,23,-173,-77,68
256,-3786,-1,192,-4677,23,-173,-77,70
257,-3788,-2,198,-4677,23,-174,-77,70
258,-3788,-3,199,-4678,23,-174,-77,69
259,-3791,-3,193,-4679,23,-175,-76,69
260,-3790,-5,188,-4680,23,-174,-77,70
261,-3791,-4,191,-4679,23,-174,-76,70
262,-3788,-4,190,-4678,23,-174,-76,70
263,-3788,-4,186,-4681,23,-174,-76,70
264,-3788,-5,187,-4679,23,-174,-76,70
265,-3789,-6,190,-4677,23,-175,-76,70
266,-3789,-3,187,-4677,23,-175,-76,71
267,-3791,-3,185,-4679,23,-175,-77,71
268,-3790,-3,182,-4677,23,-175,-76,70
269,-3792,-2,184,-4677,23,-174,-76,71
270,-3792,-2,183,-4679,23,-174,-75,70
271,-3794,-1,184,-4678,23,-175,-76,70
272,-3794,-5,187,-4678,23,-175,-76,70
273,-3793,-5,185,-4677,23,-175,-77,69
274,-3792,-5,184,-4676,23,-175,-77,71
275,-3790,-4,186,-4677,23,-174,-75,70
276,-3791,-3,189,-4676,23,-174,-76,71
277,-3791,0,188,-4675,23,-175,-76,71
278,-3791,-2,188,-4674,23,-176,-76,71
279,-3788,-2,192,-4676,23,-175,-74,71
280,-3788,0,194,-4678,23,-175,-75,69
281,-3790,0,190,-4678,23,-177,-75,70
282,-3790,0,189,-4678,23,-176,-76,71
283,-3792,-1,186,-4677,23,-175,-76,70
284,-3792,1,187,-4675,23,-175,-76,70
285,-3789,3,187,-4675,23,-174,-76,70
286,-3787,4,190,-4676,23,-175,-75,71
287,-3788,3,191,-4675,23,-174,-76,70
288,-3791,1,191,-4677,23,-174,-76,70
289,-3790,1,192,-4676,23,-173,-76,69
290,-3788,0,192,-4675,23,-173,-77,70
291,-3789,1,193,-4674,23,-174,-78,70
292,-3791,1,188,-4675,23,-174,-78,70
293,-3789,2,187,-4674,23,-175,-77,71
294,-3789,0,188,-4673,23,-175,-78,71
295,-3787,-1,184,-4672,23,-176,-78,70
296,-3787,-1,185,-4674,23,-175,-76,71
297,-3786,1,185,-4673,23,-175,-75,70
298,-3789,-1,188,-4674,23,-174,-77,69
299,-3788,-2,190,-4675,23,-174,-77,69
300,-3787,0,192,-4676,23,-173,-77,69
301,-3788,-2,187,-4674,23,-172,-78,70
302,-3787,-1,185,-4673,23,-173,-76,69
303,-3788,0,184,-4672,23,-173,-78,70
304,-3788,-3,185,-4672,23,-173,-78,69
305,-3788,-3,186,-4672,23,-174,-78,69
306,-3787,-4,191,-4671,23,-173,-78,69
307,-3789,-3,189,-4670,23,-173,-78,70
308,-3788,-5,189,-4668,23,-174,-79,70
309,-3787,-4,187,-4669,23,-174,-77,69
310,-3787,-2,188,-4670,23,-174,-76,69
311,-3787,-1,185,-4670,23,-174,-76,69
312,-3787,-2,188,-4671,23,-175,-76,69
313,-3788,-1,190,-4671,23,-174,-76,70
314,-3788,-1,188,-4670,23,-174,-77,70
315,-3789,-1,191,-4670,23,-174,-76,70
316,-3787,-1,189,-4671,23,-174,-77,70
317,-3788,-2,193,-4671,23,-174,-76,70
318,-3787,-3,190,-4673,23,-174,-77,70
319,-3789,-4,189,-4674,23,-174,-76,70
320,-3786,-6,193,-4673,23,-175,-77,70
321,-3785,-6,193,-4672,23,-174,-77,70
322,-3785,-5,189,-4673,23,-175,-76,69
323,-3786,-3,188,-4671,23,-174,-77,70
324,-3786,-2,188,-4672,23,-174,-77,69
325,-3787,-3,189,-4672,23,-173,-77,69
326,-3786,0,189,-4675,23,-174,-76,70
327,-3788,-3,189,-4674,23,-174,-75,70
328,-3788,-5,193,-4674,23,-174,-75,70
329,-3787,-6,194,-4674,23,-174,-75,70
330,-3786,-7,192,-4675,23,-173,-76,69
331,-3785,-6,192,-4676,23,-174,-76,68
332,-3789,-4,189,-4676,23,-174,-76,69
333,-3789,-4,188,-4675,23,-174,-76,69
334,-3791,-6,184,-4673,23,-174,-76,68
335,-3792,-6,185,-4674,23,-174,-75,69
336,-3789,-6,182,-4674,23,-174,-75,68
337,-3787,-3,181,-4672,23,-174,-76,69
338,-3786,-1,182,-4670,23,-174,-77,69
339,-3787,-1,184,-4669,23,-175,-76,69
340,-3789,-2,189,-4669,23,-176,-76,70
341,-3790,-3,191,-4669,23,-176,-75,71
342,-3793,-1,192,-4671,23,-175,-75,71
343,-3790,-1,194,-4670,23,-176,-76,70
344,-3789,-2,195,-4670,23,-175,-76,71
345,-3791,0,190,-4670,23,-175,-76,71
346,-3790,-1,187,-4670,23,-174,-76,72
347,-3792,-2,187,-4671,23,-175,-76,72
348,-3790,-2,189,-4671,23,-174,-78,72
349,-3790,-3,189,-4669,23,-173,-77,71
350,-3790,-2,188,-4670,23,-173,-77,70
351,-3792,0,185,-4671,23,-175,-77,70
352,-3791,1,186,-4671,23,-175,-76,70
353,-3789,2,187,-4671,23,-174,-77,71
354,-3790,0,188,-4672,23,-175,-76,71
355,-3791,0,188,-4673,23,-174,-77,69
356,-3791,-1,191,-4672,23,-174,-77,69
357,-3790,0,188,-4671,23,-175,-78,69
358,-3792,0,190,-4670,23,-175,-79,69
359,-3790,0,188,-4668,23,-175,-78,69
360,-3791,-4,186,-4669,23,-174,-78,71
361,-3788,-2,185,-4670,23,-175,-78,70
362,-3787,-1,187,-4670,23,-176,-77,70
363,-3786,-4,186,-4671,23,-174,-77,71
364,-3786,-3,186,-4671,23,-176,-76,71
365,-3786,-4,186,-4672,23,-176,-76,70
366,-3786,-2,186,-4672,23,-176,-76,70
367,-3789,-3,190,-4674,23,-177,-78,70
368,-3788,-2,191,-4672,23,-175,-77,71
369,-3788,-2,191,-4670,23,-175,-77,71
370,-3788,-4,189,-4668,23,-174,-77,71
371,-3788,-5,188,-4669,23,-175,-78,71
372,-3790,-3,186,-4670,23,-175,-78,71
373,-3791,-4,189,-4671,23,-176,-78,70
374,-3790,-3,192,-4671,23,-176,-79,71
375,-3790,-5,190,-4670,23,-175,-77,71
376,-3792,-4,189,-4669,23,-174,-77,70
377,-3789,-4,187,-4669,23,-175,-78,71
378,-3788,-3,187,-4669,23,-175,-78,71
379,-3790,-1,191,-4669,23,-175,-77,71
380,-3788,-2,191,-4669,23,-175,-77,70
381,-3789,-1,188,-4669,23,-175,-77,70
382,-3791,-1,189,-4669,23,-176,-77,70
383,-3789,-1,187,-4668,23,-176,-78,70
384,-3788,-2,189,-4668,23,-175,-77,69
385,-3788,-1,189,-4668,23,-176,-77,70
386,-3787,-2,189,-4668,23,-175,-76,71
387,-3788,-3,191,-4669,23,-176,-75,71
388,-3786,-2,190,-4669,23,-175,-75,70
389,-3785,-1,189,-4669,23,-174,-76,71
390,-3785,-2,189,-4669,23,-174,-77,71
391,-3785,-3,190,-4667,23,-174,-76,71
392,-3786,-2,192,-4669,23,-175,-77,71
393,-3786,-3,191,-4669,23,-174,-77,71
394,-3786,-2,194,-4669,23,-174,-76,71
395,-3789,-3,195,-4670,23,-174,-77,72
396,-3791,-4,192,-4670,23,-173,-76,72
397,-3790,-3,191,-4670,23,-173,-77,71
398,-3789,-4,187,-4669,23,-173,-77,71
399,-3790,-6,188,-4670,23,-173,-77,71
400,-3791,-7,187,-4670,23,-173,-76,70
401,-3791,-4,190,-4668,23,-173,-77,70
402,-3793,-2,189,-4668,23,-173,-76,70
403,-3793,-2,189,-4667,23,-174,-76,70
404,-3793,-3,189,-4667,23,-173,-76,70
405,-3792,-3,190,-4667,23,-175,-77,70
406,-3795,-2,192,-4668,23,-173,-76,70
407,-3794,-4,191,-4669,23,-173,-77,70
408,-3794,-5,191,-4668,23,-174,-77,69
409,-3794,-6,193,-4668,23,-173,-78,71
410,-3793,-6,196,-4668,23,-174,-76,70
411,-3790,-5,198,-4668,23,-174,-75,71
412,-3786,-5,197,-4668,23,-173,-75,71
413,-3788,-5,194,-4668,23,-174,-75,71
414,-3785,-6,197,-4668,23,-175,-76,70
415,-3784,-5,193,-4667,23,-175,-75,70
416,-3786,-5,192,-4667,23,-174,-75,70
417,-3787,-3,192,-4666,23,-175,-76,70
418,-3787,-5,195,-4663,23,-175,-76,69
419,-3787,-8,194,-4664,23,-174,-75,70
420,-3789,-5,192,-4666,23,-175,-76,70
421,-3786,-2,190,-4666,23,-175,-77,71
422,-3788,-1,189,-4666,23,-175,-76,71
423,-3787,-2,185,-4665,23,-176,-76,70
424,-3791,0,183,-4667,23,-175,-74,70
425,-3789,0,188,-4669,23,-175,-76,70
426,-3786,-3,186,-4668,23,-175,-75,70
427,-3786,-4,188,-4668,23,-175,-76,70
428,-3787,-3,187,-4667,23,-175,-75,70
429,-3787,-3,190,-4667,23,-173,-76,71
430,-3790,-6,189,-4668,23,-173,-77,70
431,-3790,-5,190,-4668,23,-172,-76,69
432,-3787,-3,190,-4668,23,-172,-76,70
433,-3787,-2,192,-4667,23,-173,-77,69
434,-3787,-4,191,-4667,23,-174,-77,70
435,-3786,-3,194,-4666,23,-173,-77,70
436,-3784,0,195,-4665,23,-173,-76,71
437,-3784,-2,194,-4665,23,-174,-76,71
438,-3785,-1,191,-4664,23,-174,-75,72
439,-3787,-2,190,-4666,23,-175,-77,71
440,-3788,-2,189,-4666,23,-175,-75,72
441,-3785,-1,190,-4666,23,-174,-75,71
442,-3785,-2,188,-4665,23,-174,-74,70
443,-3784,-3,189,-4666,23,-173,-75,71
444,-3785,-2,190,-4665,23,-174,-76,70
445,-3786,-4,188,-4664,23,-174,-76,70
446,-3787,-6,190,-4664,23,-173,-77,70
447,-3789,-6,188,-4664,23,-173,-76,72
448,-3789,-6,186,-4665,23,-173,-78,71
449,-3788,-6,183,-4664,23,-173,-77,71
450,-3789,-7,185,-4664,23,-173,-77,71
451,-3788,-5,185,-4664,23,-175,-76,70
452,-3789,-4,185,-4664,23,-173,-76,70
453,-3788,-4,188,-4665,23,-173,-75,70
454,-3783,-5,189,-4663,23,-173,-75,70
455,-3783,-4,190,-4663,23,-174,-76,70
456,-3785,-3,188,-4663,23,-174,-75,70
457,-3786,-3,191,-4663,23,-174,-75,70
458,-3788,-5,191,-4663,23,-174,-76,70
459,-3791,-6,191,-4662,23,-174,-76,69
460,-3790,-7,194,-4662,23,-175,-76,70
461,-3790,-6,194,-4663,23,-176,-77,69
462,-3788,-4,194,-4664,23,-175,-78,68
463,-3789,-3,191,-4663,23,-176,-77,69
464,-3787,-2,188,-4664,23,-177,-77,69
465,-3788,-3,190,-4664,23,-177,-77,69
466,-3790,-2,192,-4664,23,-177,-77,69
467,-3789,0,190,-4664,23,-176,-76,70
468,-3791,-2,188,-4663,23,-175,-76,69
469,-3789,-3,191,-4663,23,-174,-76,69
470,-3790,-4,189,-4663,23,-175,-77,70
471,-3791,-3,187,-4663,23,-175,-76,70
472,-3789,-2,188,-4661,23,-174,-76,69
473,-3788,-1,187,-4662,23,-174,-76,68
474,-3789,-1,185,-4661,23,-174,-76,69
475,-3791,-1,186,-4660,23,-173,-78,69
476,-3790,0,188,-4660,23,-173,-77,70
477,-3791,-1,187,-4660,23,-174,-77,71
478,-3789,1,188,-4658,23,-174,-77,71
479,-3788,2,188,-4659,23,-175,-76,71
480,-3788,2,185,-4659,23,-175,-77,70
481,-3790,2,187,-4659,23,-175,-76,71
482,-3790,0,189,-4659,23,-174,-76,70
483,-3791,-3,189,-4659,23,-173,-76,70
484,-3791,-1,192,-4660,23,-172,-74,70
485,-3789,-2,194,-4661,23,-173,-75,69
486,-3789,-3,193,-4660,23,-173,-76,69
487,-3791,-2,189,-4660,23,-171,-76,69
488,-3790,-1,191,-4660,23,-171,-76,70
489,-3789,-1,193,-4660,23,-170,-76,69
490,-3790,-2,194,-4660,23,-171,-76,69
491,-3787,-5,189,-4661,23,-172,-75,68
492,-3787,-6,192,-4661,23,-173,-75,69
493,-3787,-6,192,-4661,23,-173,-75,68
494,-3788,-5,191,-4659,23,-172,-76,68
495,-3789,-6,194,-4660,23,-172,-77,69
496,-3791,-6,191,-4659,23,-173,-77,69
497,-3790,-6,191,-4659,23,-172,-77,69
498,-3791,-6,188,-4659,23,-172,-76,69
499,-3791,-7,185,-4659,23,-173,-76,70
500,-3790,-3,183,-4657,23,-174,-77,68
501,-3789,-2,183,-4656,23,-175,-77,69
502,-3788,-4,180,-4659,23,-174,-77,69
503,-3790,-5,178,-4660,23,-173,-77,69
504,-3791,-6,180,-4659,23,-174,-76,69
505,-3790,-7,183,-4659,23,-174,-76,69
506,-3791,-6,189,-4660,23,-175,-77,69
507,-3791,-8,190,-4660,23,-176,-77,69
508,-3789,-7,192,-4661,23,-176,-76,69
509,-3792,-6,193,-4660,23,-175,-76,69
510,-3794,-3,196,-4661,23,-175,-77,70
511,-3792,-2,194,-4659,23,-174,-77,70
512,-3792,-3,195,-4661,23,-174,-76,69
513,-3791,-1,199,-4659,23,-175,-77,70
514,-3789,-5,198,-4659,23,-175,-79,69
515,-3788,-6,197,-4658,23,-176,-76,69
516,-3787,-6,196,-4660,23,-175,-77,69
517,-3787,-5,194,-4659,23,-175,-76,69
518,-3791,-6,192,-4660,23,-174,-77,68
519,-3789,-8,191,-4660,23,-174,-78,69
520,-3788,-5,190,-4659,23,-175,-79,69
521,-3787,-2,187,-4660,23,-174,-79,69
522,-3789,-2,189,-4659,23,-174,-79,69
523,-3788,-1,185,-4658,23,-174,-78,68
524,-3788,0,182,-4657,23,-174,-76,69
525,-3791,0,180,-4658,23,-174,-77,69
526,-3791,0,183,-4657,23,-175,-76,70
527,-3791,-1,185,-4657,23,-175,-76,69
528,-3789,0,188,-4658,23,-174,-76,69
529,-3789,0,188,-4660,23,-174,-76,70
530,-3788,-1,190,-4659,23,-174,-76,70
531,-3788,0,189,-4657,23,-174,-77,71
532,-3788,-1,187,-4659,23,-174,-77,71
533,-3787,0,183,-4659,23,-173,-77,71
534,-3788,0,184,-4660,23,-173,-78,70
535,-3787,0,181,-4658,23,-172,-77,70
536,-3788,0,178,-4659,23,-172,-77,69
537,-3784,1,181,-4659,23,-173,-78,69
538,-3785,1,186,-4658,23,-173,-78,69
539,-3787,0,187,-4655,23,-172,-77,70
540,-3788,0,186,-4658,23,-174,-77,70
541,-3788,-3,185,-4659,23,-175,-77,70
542,-3790,-4,187,-4658,23,-175,-76,71
543,-3789,-3,184,-4657,23,-174,-77,70
544,-3790,-3,186,-4657,23,-174,-77,70
545,-3792,-3,190,-4656,23,-174,-76,70
546,-3792,-1,189,-4655,23,-174,-75,69
547,-3792,-4,189,-4655,23,-175,-74,69
548,-3791,-3,191,-4654,23,-174,-76,69
549,-3793,-3,185,-4654,23,-174,-76,70
550,-3792,-3,184,-4654,23,-174,-77,69
551,-3792,-3,185,-4655,23,-173,-77,69
552,-3790,-3,185,-4655,23,-174,-78,68
553,-3791,-4,188,-4654,23,-175,-78,68
554,-3788,-4,190,-4655,23,-174,-78,68
555,-3790,-5,192,-4655,23,-173,-79,68
556,-3793,-5,190,-4655,23,-174,-78,69
557,-3794,-5,192,-4655,23,-174,-76,69
558,-3792,-3,191,-4655,23,-174,-76,69
559,-3792,-5,186,-4655,23,-174,-75,71
560,-3790,-7,187,-4656,23,-174,-75,70
561,-3788,-8,190,-4654,23,-174,-76,71
562,-3787,-8,188,-4656,23,-175,-76,71
563,-3787,-8,188,-4657,23,-175,-75,70
564,-3788,-10,190,-4657,23,-175,-75,70
565,-3788,-8,194,-4657,23,-175,-75,70
566,-3789,-7,191,-4657,23,-175,-75,70
567,-3788,-7,188,-4658,23,-175,-76,70
568,-3787,-5,193,-4658,23,-175,-76,70
569,-3787,-4,194,-4659,23,-175,-77,71
570,-3787,-4,191,-4659,23,-174,-77,70
571,-3788,-4,192,-4659,23,-174,-77,71
572,-3788,-3,187,-4657,23,-173,-77,70
573,-3787,-3,188,-4656,23,-174,-76,71
574,-3788,-3,185,-4654,23,-174,-77,71
575,-3788,-1,184,-4654,23,-175,-77,70
576,-3786,-1,182,-4656,23,-175,-77,72
577,-3789,1,184,-4655,23,-175,-77,71
578,-3787,-1,184,-4655,23,-176,-77,71
579,-3786,-1,183,-4653,23,-175,-78,70
580,-3786,-3,183,-4652,23,-175,-78,71
581,-3787,-4,182,-4653,23,-176,-78,71
582,-3788,-3,183,-4651,23,-176,-76,71
583,-3791,-4,182,-4652,23,-175,-76,70
584,-3791,-4,183,-4652,23,-175,-74,71
585,-3791,-5,185,-4652,23,-175,-76,69
586,-3789,-5,189,-4653,23,-174,-76,69
587,-3790,-5,190,-4653,23,-175,-76,69
588,-3791,-5,188,-4652,23,-175,-76,69
589,-3788,-3,186,-4653,23,-176,-76,69
590,-3786,-1,185,-4654,23,-175,-75,69
591,-3787,-1,183,-4652,23,-176,-75,69
592,-3787,0,185,-4653,23,-176,-75,69
593,-3786,0,187,-4654,23,-177,-74,70
594,-3787,4,184,-4654,23,-176,-74,70
595,-3787,-1,185,-4655,23,-176,-74,70
596,-3787,0,185,-4653,23,-176,-75,70
597,-3787,0,189,-4652,23,-175,-76,70
598,-3788,-2,192,-4652,23,-175,-75,70
599,-3788,1,190,-4651,23,-174,-75,70
600,-3788,0,190,-4652,23,-173,-76,70
601,-3786,-3,190,-4652,23,-173,-76,70
602,-3782,-2,187,-4653,23,-175,-76,71
603,-3784,-2,186,-4653,23,-175,-76,69
604,-3785,0,184,-4652,23,-175,-75,70
605,-3786,-2,184,-4652,23,-174,-76,69
606,-3787,-3,188,-4651,23,-174,-75,70
607,-3787,-3,188,-4651,23,-175,-75,70
608,-3787,-3,187,-4652,23,-175,-76,71
609,-3785,-2,184,-4652,23,-175,-77,71
610,-3787,-2,183,-4652,23,-175,-77,70
611,-3790,-3,182,-4652,23,-174,-77,70
612,-3789,-3,184,-4652,23,-174,-76,70
613,-3790,-3,183,-4652,23,-175,-77,70
614,-3791,-2,183,-4652,23,-174,-77,71
615,-3790,-1,186,-4653,23,-175,-76,71
616,-3789,-4,189,-4653,23,-174,-77,70
617,-3792,-5,187,-4653,23,-173,-77,70
618,-3793,-6,187,-4652,23,-175,-78,70
619,-3792,-5,187,-4653,23,-175,-77,70
620,-3792,-4,189,-4653,23,-174,-77,70
621,-3793,-5,194,-4654,23,-174,-77,71
622,-3790,-2,192,-4652,23,-173,-76,70
623,-3789,-3,190,-4651,23,-173,-76,70
624,-3789,-2,188,-4652,23,-173,-76,69
625,-3791,-5,183,-4651,23,-172,-76,70
626,-3791,-4,186,-4650,23,-173,-76,70
627,-3791,-3,188,-4652,23,-174,-75,70
628,-3793,-3,189,-4652,23,-173,-75,70
629,-3792,-2,189,-4654,23,-174,-75,70
630,-3791,-3,190,-4653,23,-173,-75,70
631,-3787,-3,187,-4653,23,-174,-76,69
632,-3788,-2,183,-4653,23,-175,-77,70
633,-3789,-4,181,-4652,23,-175,-77,70
634,-3789,-2,183,-4652,23,-175,-77,71
635,-3788,-2,185,-4653,23,-175,-77,70
636,-3791,-4,188,-4653,23,-175,-77,71
637,-3790,-3,184,-4652,23,-174,-76,71
638,-3790,-2,185,-4653,23,-175,-78,71
639,-3790,-2,179,-4653,23,-174,-78,70
640,-3792,-1,182,-4652,23,-175,-78,69
641,-3791,1,182,-4651,23,-175,-77,68
642,-3787,1,180,-4651,23,-175,-77,68
643,-3788,-1,183,-4652,23,-175,-77,68
644,-3790,-2,184,-4652,23,-175,-79,68
645,-3790,-3,185,-4651,23,-175,-77,69
646,-3792,-1,189,-4652,23,-174,-76,68
647,-3790,-2,189,-4652,23,-174,-76,68
648,-3791,-2,191,-4653,23,-173,-75,68
649,-3791,-1,188,-4652,23,-173,-75,67
650,-3790,-3,186,-4652,23,-172,-76,68
651,-3790,-4,191,-4650,23,-173,-77,68
652,-3789,-5,190,-4649,23,-173,-77,68
653,-3786,-5,192,-4650,23,-173,-77,68
654,-3789,-4,192,-4649,23,-174,-75,68
655,-3789,-3,193,-4650,23,-174,-77,68
656,-3789,-3,192,-4650,23,-175,-77,68
657,-3786,-6,191,-4649,23,-175,-77,69
658,-3787,-6,192,-4647,23,-174,-78,70
659,-3792,-3,192,-4647,23,-174,-78,70
660,-3791,-2,192,-4648,23,-175,-77,69
661,-3794,0,192,-4647,23,-175,-78,69
662,-3791,0,192,-4647,23,-175,-78,70
663,-3792,0,190,-4646,23,-174,-77,70
664,-3791,-2,193,-4646,23,-173,-77,69
665,-3788,-2,192,-4647,23,-172,-76,70
666,-3790,-1,190,-4647,23,-172,-76,70
667,-3789,-3,185,-4647,23,-173,-75,69
668,-3787,-3,187,-4646,23,-174,-75,69
669,-3786,-5,184,-4647,23,-173,-75,68
670,-3786,-6,183,-4647,23,-174,-76,69
671,-3786,-5,186,-4648,23,-173,-76,69
672,-3786,-4,186,-4647,23,-175,-77,69
673,-3788,-3,189,-4649,23,-175,-77,69
674,-3787,-6,192,-4650,23,-175,-77,70
675,-3789,-8,188,-4651,23,-175,-76,69
676,-3789,-7,190,-4652,23,-175,-77,69
677,-3790,-5,191,-4650,23,-174,-76,70
678,-3791,-6,189,-4652,23,-173,-76,70
679,-3789,-4,189,-4654,23,-174,-75,69
680,-3788,-3,186,-4655,23,-174,-75,69
681,-3787,-3,187,-4652,23,-175,-76,69
682,-3789,1,186,-4650,23,-175,-75,70
683,-3790,-1,186,-4652,23,-176,-76,70
684,-3790,-1,187,-4650,23,-175,-76,70
685,-3790,-2,187,-4650,23,-175,-77,71
686,-3790,-1,190,-4650,23,-175,-76,70
687,-3787,-4,190,-4650,23,-174,-75,69
688,-3787,-1,186,-4650,23,-174,-75,69
689,-3788,-2,189,-4649,23,-174,-74,69
690,-3789,-4,187,-4649,23,-175,-73,70
691,-3788,-4,188,-4650,23,-175,-75,70
692,-3789,-7,187,-4650,23,-175,-75,71
693,-3789,-4,190,-4650,23,-175,-76,70
694,-3792,-4,185,-4650,23,-175,-75,70
695,-3792,-4,187,-4650,23,-175,-76,70
696,-3790,-3,188,-4649,23,-174,-76,69
697,-3788,-3,191,-4649,23,-174,-76,69
698,-3788,-6,197,-4651,23,-174,-77,69
699,-3790,-5,191,-4650,23,-174,-75,68
700,-3789,-6,191,-4649,23,-175,-75,69
701,-3789,-5,194,-4649,23,-175,-75,68
702,-3788,-6,194,-4650,23,-175,-75,69
703,-3790,-3,196,-4650,23,-175,-76,69
704,-3788,-5,193,-4649,23,-176,-75,70
705,-3786,-5,193,-4651,23,-177,-76,70
706,-3786,-3,193,-4653,23,-176,-77,71
707,-3787,-3,193,-4652,23,-176,-76,69
708,-3784,-4,191,-4652,23,-175,-76,69
709,-3786,-6,187,-4649,23,-176,-77,69
710,-3787,-6,186,-4650,23,-177,-76,69
711,-3787,-4,191,-4649,23,-177,-77,70
712,-3787,-5,190,-4651,23,-176,-77,69
713,-3788,-5,188,-4649,23,-175,-75,70
714,-3788,-6,189,-4649,23,-175,-76,71
715,-3790,-5,185,-4649,23,-175,-76,69
716,-3791,-3,187,-4649,23,-176,-75,69
717,-3789,-3,189,-4649,23,-176,-76,68
718,-3789,-3,188,-4651,23,-175,-77,69
719,-3790,-4,187,-4650,23,-175,-77,69
720,-3793,-3,184,-4650,23,-174,-76,68
721,-3791,-1,185,-4649,23,-175,-76,69
722,-3792,0,187,-4650,23,-174,-75,69
723,-3791,1,187,-4650,23,-174,-76,69
724,-3792,0,189,-4649,23,-175,-76,70
725,-3790,-1,187,-4650,23,-175,-76,70
726,-3788,-1,190,-4649,23,-175,-76,70
727,-3789,0,188,-4650,23,-175,-76,71
728,-3788,-1,192,-4650,23,-174,-76,71
729,-3791,0,193,-4650,23,-173,-77,72
730,-3789,-2,192,-4649,23,-173,-78,71
731,-3787,-4,190,-4651,23,-174,-77,71
732,-3791,-2,188,-4649,23,-174,-76,71
733,-3791,-1,189,-4649,23,-174,-77,70
734,-3791,0,185,-4647,23,-174,-76,69
735,-3787,-3,185,-4648,23,-175,-77,70
736,-3789,-3,187,-4648,23,-175,-77,70
737,-3786,-2,184,-4648,23,-175,-76,69
738,-3787,-1,181,-4648,23,-173,-76,68
739,-3787,-1,181,-4647,23,-173,-76,69
740,-3787,-2,183,-4647,23,-174,-76,69
741,-3788,-3,185,-4646,23,-174,-76,69
742,-3787,-1,187,-4644,23,-173,-76,70
743,-3787,-3,187,-4643,23,-173,-76,69
744,-3785,-4,191,-4643,23,-174,-76,70
745,-3785,0,188,-4642,23,-173,-75,70
746,-3787,-1,187,-4642,23,-173,-76,71
747,-3785,-2,188,-4643,23,-173,-76,71
748,-3785,-1,186,-4645,23,-175,-77,70
749,-3786,0,188,-4645,23,-175,-77,69
750,-3785,0,188,-4644,23,-174,-77,68
751,-3788,0,185,-4645,23,-173,-77,69
752,-3788,-3,188,-4645,23,-174,-78,69
753,-3790,-4,190,-4646,23,-173,-77,71
754,-3792,-4,191,-4645,23,-174,-76,71
755,-3791,-5,190,-4644,23,-174,-77,71
756,-3789,-1,185,-4644,23,-173,-77,70
757,-3787,-1,187,-4642,23,-174,-79,70
758,-3785,-2,190,-4642,23,-174,-78,69
759,-3787,-3,189,-4642,23,-175,-79,69
760,-3786,-2,189,-4643,23,-174,-79,69
761,-3786,1,190,-4643,23,-174,-78,68
762,-3784,1,188,-4644,23,-173,-76,69
763,-3785,3,189,-4645,23,-175,-76,69
764,-3786,0,192,-4644,23,-175,-76,69
765,-3786,-1,194,-4647,23,-175,-76,69
766,-3789,1,196,-4647,23,-174,-76,69
767,-3790,1,196,-4647,23,-174,-76,69
768,-3791,0,195,-4648,23,-174,-77,70
769,-3790,-1,194,-4648,23,-174,-78,70
770,-3789,0,195,-4647,23,-173,-77,70
771,-3790,-1,190,-4647,23,-173,-77,70
772,-3790,-4,190,-4647,23,-173,-77,69
773,-3791,-4,187,-4645,23,-173,-76,68
774,-3793,-5,185,-4644,23,-174,-75,69
775,-3790,-3,183,-4645,23,-174,-75,68
776,-3790,-3,180,-4646,23,-174,-75,69
777,-3789,-3,181,-4645,23,-174,-75,70
778,-3791,-5,183,-4645,23,-175,-76,69
779,-3789,-4,182,-4645,23,-176,-77,70
780,-3788,-3,187,-4645,23,-176,-76,69
781,-3789,-3,189,-4645,23,-177,-77,69
782,-3788,-6,188,-4644,23,-177,-77,68
783,-3789,-5,186,-4643,23,-176,-76,69
784,-3789,-5,187,-4643,23,-175,-78,69
785,-3792,-5,187,-4644,23,-175,-77,70
786,-3789,-5,185,-4645,23,-174,-77,70
787,-3787,-4,187,-4643,23,-174,-77,69
788,-3787,-1,188,-4644,23,-174,-76,68
789,-3789,0,187,-4645,23,-174,-76,68
790,-3788,0,185,-4643,23,-173,-75,69
791,-3785,1,186,-4643,23,-174,-74,68
792,-3788,-1,187,-4645,23,-174,-74,69
793,-3789,-2,189,-4645,23,-174,-74,70
794,-3789,-3,190,-4644,23,-173,-75,70
795,-3786,-3,190,-4643,23,-175,-74,68
796,-3785,-1,191,-4643,23,-175,-75,68
797,-3785,-2,189,-4643,23,-175,-74,69
798,-3788,-1,190,-4644,23,-175,-75,68
799,-3790,-1,190,-4644,23,-176,-76,67
800,-3790,-3,192,-4643,23,-175,-76,68
801,-3792,-2,193,-4645,23,-175,-76,70
802,-3790,-4,194,-4644,23,-177,-77,70
803,-3790,0,192,-4645,23,-176,-76,70
804,-3790,-2,195,-4644,23,-175,-77,71
805,-3790,-2,193,-4643,23,-175,-77,71
806,-3790,-3,194,-4643,23,-175,-76,70
807,-3788,-6,192,-4644,23,-174,-76,70
808,-3787,-5,191,-4644,23,-174,-76,70
809,-3789,-3,191,-4643,23,-175,-75,70
810,-3788,1,189,-4643,23,-175,-76,70
811,-3789,1,190,-4642,23,-174,-76,70
812,-3791,0,191,-4642,23,-173,-76,70
813,-3794,1,192,-4642,23,-174,-75,69
814,-3792,1,190,-4644,23,-174,-76,69
815,-3794,0,187,-4644,23,-173,-76,70
816,-3795,-2,188,-4643,23,-173,-77,70
817,-3793,-2,187,-4644,23,-174,-76,70
818,-3791,-4,192,-4643,23,-173,-76,69
819,-3790,-3,195,-4641,23,-174,-76,69
820,-3790,-1,196,-4642,23,-174,-77,68
821,-3791,1,197,-4642,23,-175,-77,68
822,-3792,1,195,-4641,23,-176,-77,69
823,-3789,1,191,-4640,23,-176,-78,69
824,-3788,-2,191,-4642,23,-176,-78,69
825,-3788,-3,190,-4640,23,-176,-77,69
826,-3789,-2,192,-4641,23,-176,-77,69
827,-3789,-5,190,-4641,23,-175,-76,70
828,-3788,-5,188,-4639,23,-175,-77,70
829,-3787,-2,187,-4637,23,-175,-77,70
830,-3788,-1,183,-4637,23,-176,-77,69
831,-3788,-2,182,-4638,23,-175,-76,69
832,-3790,-4,186,-4638,23,-175,-76,70
833,-3788,-4,185,-4639,23,-174,-77,70
834,-3789,-4,185,-4638,23,-175,-76,70
835,-3789,-4,185,-4638,23,-176,-77,70
836,-3788,-4,186,-4639,23,-175,-77,70
837,-3790,-3,189,-4638,23,-174,-75,70
838,-3789,-3,187,-4638,23,-173,-75,70
839,-3788,-2,189,-4638,23,-174,-75,71
840,-3787,0,190,-4638,23,-174,-76,71
841,-3786,-3,193,-4638,23,-174,-78,70
842,-3787,-5,192,-4636,23,-174,-77,71
843,-3788,-6,190,-4638,23,-174,-77,70
844,-3790,-5,188,-4639,23,-174,-76,70
845,-3789,-5,188,-4640,23,-174,-77,69
846,-3785,-6,189,-4641,23,-174,-77,69
847,-3784,-6,195,-4640,23,-174,-76,69
848,-3786,-6,197,-4640,23,-175,-76,69
849,-3784,-4,194,-4640,23,-175,-76,69
850,-3787,-2,192,-4639,23,-175,-77,68
851,-3785,-2,192,-4637,23,-176,-75,68
852,-3784,0,192,-4639,23,-176,-75,68
853,-3786,-2,193,-4639,23,-175,-75,68
854,-3783,-2,191,-4639,23,-176,-76,68
855,-3786,-2,190,-4639,23,-175,-76,69
856,-3787,-2,189,-4639,23,-174,-76,69
857,-3788,-1,191,-4640,23,-174,-77,69
858,-3787,1,191,-4640,23,-175,-78,69
859,-3790,3,188,-4640,23,-174,-79,70
860,-3789,1,188,-4639,23,-174,-77,70
861,-3789,1,193,-4638,23,-174,-76,70
862,-3791,-1,192,-4638,23,-175,-76,70
863,-3791,-3,188,-4638,23,-176,-75,69
864,-3791,-3,188,-4640,23,-177,-76,69
865,-3790,-4,190,-4640,23,-177,-75,68
866,-3789,-2,191,-4639,23,-177,-76,68
867,-3790,-1,189,-4640,23,-177,-74,69
868,-3789,-2,191,-4640,23,-177,-75,69
869,-3787,-3,188,-4639,23,-177,-75,68
870,-3787,-2,188,-4639,23,-175,-77,69
871,-3788,-2,187,-4640,23,-174,-77,69
872,-3787,0,186,-4638,23,-174,-76,69
873,-3789,-1,189,-4638,23,-174,-76,70
874,-3789,-1,185,-4638,23,-175,-76,70
875,-3789,-1,186,-4638,23,-175,-77,70
876,-3788,0,190,-4639,23,-175,-76,69
877,-3788,-2,189,-4636,23,-175,-75,69
878,-3790,-1,190,-4636,23,-175,-77,69
879,-3790,-1,191,-4636,23,-176,-75,68
880,-3792,-2,193,-4638,23,-174,-77,68
881,-3790,-1,192,-4639,23,-175,-77,69
882,-3789,-1,192,-4638,23,-175,-76,68
883,-3792,-2,191,-4636,23,-175,-77,69
884,-3793,0,189,-4637,23,-175,-78,70
885,-3790,2,193,-4638,23,-174,-77,70
886,-3789,1,191,-4640,23,-175,-78,70
887,-3789,-1,191,-4640,23,-175,-79,70
888,-3789,-1,191,-4640,23,-175,-78,69
889,-3789,-2,190,-4640,23,-174,-76,70
890,-3787,-3,192,-4640,23,-174,-77,70
891,-3787,-3,190,-4641,23,-175,-78,70
892,-3790,-5,188,-4640,23,-176,-76,71
893,-3790,-4,189,-4639,23,-175,-76,71
894,-3791,-5,187,-4639,23,-175,-76,71
895,-3790,-4,190,-4640,23,-176,-75,70
896,-3787,-2,194,-4640,23,-177,-76,70
897,-3788,-3,190,-4640,23,-177,-77,70
898,-3790,-5,191,-4639,23,-176,-77,70
899,-3789,-2,195,-4640,23,-175,-77,69
900,-3790,-2,195,-4641,23,-175,-76,69
901,-3789,-3,189,-4640,23,-175,-75,69
902,-3791,-4,188,-4640,23,-174,-74,69
903,-3787,-5,190,-4640,23,-175,-75,71
904,-3791,-3,193,-4641,23,-174,-75,70
905,-3793,-4,191,-4642,23,-175,-75,70
906,-3793,-3,191,-4642,23,-174,-75,69
907,-3793,-4,193,-4641,23,-175,-75,70
908,-3792,-5,191,-4640,23,-174,-77,69
909,-3790,-6,192,-4639,23,-174,-77,69
910,-3788,-4,190,-4639,23,-174,-79,70
911,-3788,-6,190,-4639,23,-174,-77,70
912,-3788,-6,190,-4641,23,-174,-78,71
913,-3790,-5,191,-4640,23,-174,-77,71
914,-3792,-5,189,-4640,23,-173,-77,70
915,-3791,-6,189,-4640,23,-174,-75,71
916,-3789,-6,187,-4640,23,-175,-75,71
917,-3790,-3,187,-4640,23,-174,-75,71
918,-3791,-4,190,-4640,23,-175,-75,71
919,-3791,-5,190,-4639,23,-175,-75,70
920,-3791,-5,191,-4639,23,-175,-76,70
921,-3790,-5,191,-4641,23,-175,-76,70
922,-3787,-3,191,-4642,23,-175,-77,70
923,-3788,-4,188,-4640,23,-174,-76,71
924,-3790,-7,187,-4641,23,-174,-77,70
925,-3790,-8,184,-4641,23,-175,-76,70
926,-3789,-10,184,-4642,23,-175,-75,70
927,-3787,-9,191,-4641,23,-175,-77,69
928,-3787,-9,194,-4639,23,-175,-77,70
929,-3786,-7,193,-4638,23,-174,-77,70
930,-3787,-5,192,-4640,23,-175,-77,71
931,-3785,-6,194,-4641,23,-175,-76,70
932,-3789,-6,192,-4639,23,-175,-76,69
933,-3790,-7,191,-4639,23,-175,-75,70
934,-3790,-5,191,-4637,23,-175,-75,70
935,-3786,-4,189,-4638,23,-175,-77,69
936,-3787,-2,188,-4639,23,-175,-77,70
937,-3788,-3,185,-4639,23,-175,-77,70
938,-3786,-6,184,-4637,23,-175,-77,70
939,-3785,-6,183,-4637,23,-175,-76,70
940,-3787,-5,183,-4636,23,-174,-76,71
941,-3787,-7,183,-4638,23,-174,-76,70
942,-3788,-9,185,-4638,23,-174,-78,70
943,-3787,-9,185,-4638,23,-175,-77,70
944,-3787,-8,185,-4637,23,-175,-78,70
945,-3788,-7,182,-4637,23,-176,-78,70
946,-3789,-9,184,-4639,23,-176,-78,70
947,-3789,-6,188,-4639,23,-175,-77,70
948,-3788,-4,188,-4639,23,-174,-77,70
949,-3787,-6,186,-4640,23,-175,-77,69
950,-3787,-7,181,-4640,23,-175,-76,70
951,-3787,-6,179,-4641,23,-175,-77,70
952,-3787,-5,180,-4641,23,-175,-76,70
953,-3784,-3,185,-4641,23,-174,-76,70
954,-3784,-5,184,-4640,23,-174,-76,70
955,-3784,-5,183,-4638,23,-173,-76,70
956,-3782,-5,181,-4637,23,-173,-77,70
957,-3783,-5,186,-4636,23,-173,-77,69
958,-3785,-6,188,-4637,23,-174,-77,68
959,-3788,-6,186,-4638,23,-174,-77,68
960,-3785,-4,187,-4639,23,-173,-77,69
961,-3787,-3,189,-4637,23,-173,-77,69
962,-3789,-3,192,-4636,23,-173,-76,69
963,-3789,-3,192,-4637,23,-172,-77,68
964,-3789,-3,189,-4636,23,-171,-76,68
965,-3789,-4,190,-4635,23,-173,-76,68
966,-3789,-3,189,-4635,23,-173,-75,69
967,-3791,-4,189,-4636,23,-173,-75,70
968,-3793,-4,185,-4636,23,-174,-76,70
969,-3795,-6,186,-4636,23,-174,-76,70
970,-3793,-6,186,-4636,23,-175,-77,70
971,-3793,-5,184,-4636,23,-174,-77,70
972,-3793,-3,184,-4637,23,-175,-77,69
973,-3793,-4,188,-4636,23,-176,-78,69
974,-3792,-4,186,-4636,23,-176,-78,70
975,-3793,-5,186,-4638,23,-176,-78,70
976,-3792,-6,184,-4639,23,-176,-77,70
977,-3791,-10,185,-4638,23,-175,-77,70
978,-3791,-5,184,-4638,23,-175,-77,70
979,-3791,-5,184,-4639,23,-175,-77,70
980,-3789,-5,184,-4640,23,-175,-76,70
981,-3789,-4,181,-4639,23,-176,-76,70
982,-3788,-6,182,-4638,23,-176,-76,70
983,-3788,-3,185,-4638,23,-175,-76,70
984,-3788,-4,189,-4637,23,-174,-75,70
985,-3790,-5,193,-4640,23,-174,-76,71
986,-3790,-4,194,-4638,23,-173,-75,70
987,-3790,-5,189,-4636,23,-173,-76,71
988,-3790,-3,192,-4636,23,-173,-75,71
989,-3787,0,189,-4638,23,-173,-75,71
990,-3784,-2,191,-4639,23,-174,-76,70
991,-3785,-2,193,-4639,23,-175,-75,70
992,-3785,-2,193,-4640,23,-175,-75,69
993,-3787,-2,190,-4640,23,-176,-75,69
994,-3787,0,186,-4639,23,-177,-75,70
995,-3788,1,187,-4641,23,-176,-77,70
