,acc_X,acc_Y,acc_Z,temp,tempC,gyr_X,gyr_Y,gyr_Z
0,-15156,32,644,-4864,22,-354,-135,141
1,-15218,40,656,-4872,22,-355,-168,139
2,-15050,40,770,-4868,22,-327,-158,133
3,-15092,92,816,-4876,22,-329,-151,162
4,-15110,16,656,-4872,22,-331,-143,141
5,-15204,-52,832,-4878,22,-322,-169,138
6,-15106,50,776,-4875,22,-346,-155,154
7,-15170,-28,734,-4870,22,-354,-137,142
8,-15118,-16,740,-4880,22,-333,-158,138
9,-15178,-66,734,-4867,22,-347,-157,133
10,-15190,38,694,-4868,22,-340,-158,141
11,-15104,12,710,-4874,22,-340,-157,146
12,-15164,-40,784,-4871,22,-343,-157,128
13,-15152,6,644,-4857,22,-349,-158,144
14,-15090,20,898,-4872,22,-344,-144,140
15,-15178,-50,722,-4864,22,-338,-145,145
16,-15142,-6,692,-4872,22,-362,-152,141
17,-15146,-12,792,-4873,22,-339,-147,135
18,-15098,6,722,-4869,22,-345,-156,147
19,-15116,74,696,-4871,22,-354,-175,137
20,-15082,-2,632,-4872,22,-342,-144,140
21,-15144,-20,744,-4879,22,-356,-146,148
22,-15180,-44,660,-4869,22,-350,-164,139
23,-15158,6,820,-4858,22,-331,-143,144
24,-15188,8,904,-4881,22,-350,-148,144
25,-15266,-6,700,-4863,22,-354,-145,149
26,-15128,50,578,-4866,22,-351,-130,147
27,-15060,18,644,-4860,22,-352,-145,153
28,-15208,-54,660,-4867,22,-358,-148,132
29,-15110,0,726,-4883,22,-338,-145,140
30,-15100,-56,786,-4874,22,-343,-164,133
31,-15138,-28,714,-4867,22,-341,-164,148
32,-15172,6,816,-4866,22,-335,-155,138
33,-15158,-44,794,-4872,22,-342,-150,132
34,-15202,-30,698,-4864,22,-345,-143,127
35,-15114,-40,762,-4869,22,-357,-141,153
36,-15132,26,638,-4857,22,-351,-150,131
37,-15138,-6,772,-4857,22,-341,-137,148
38,-15116,-10,822,-4864,22,-350,-143,126
39,-15150,48,720,-4866,22,-334,-150,134
40,-15112,18,790,-4869,22,-332,-141,148
41,-15122,-40,728,-4856,22,-342,-149,129
42,-15156,-68,706,-4866,22,-362,-144,144
43,-15084,56,802,-4865,22,-345,-159,138
44,-15150,-40,684,-4859,22,-359,-155,143
45,-15172,-74,668,-4858,22,-348,-163,137
46,-15118,56,814,-4867,22,-356,-151,144
47,-15134,52,738,-4861,22,-345,-124,144
48,-15056,16,740,-4860,22,-346,-144,126
49,-15244,-14,752,-4861,22,-356,-144,119
50,-15166,54,676,-4860,22,-344,-154,129
51,-15146,-84,738,-4846,22,-345,-154,135
52,-15166,-16,732,-4854,22,-373,-173,144
53,-15222,-18,882,-4856,22,-347,-155,154
54,-15136,30,668,-4849,22,-340,-141,133
55,-15188,-84,722,-4858,22,-349,-141,138
56,-15118,-46,656,-4859,22,-359,-138,132
57,-15066,20,788,-4846,22,-330,-163,139
58,-15114,16,776,-4856,22,-351,-148,152
59,-15096,36,790,-4850,22,-357,-138,151
60,-15210,10,664,-4853,22,-353,-144,127
61,-15170,14,792,-4858,22,-348,-164,137
62,-15118,-8,840,-4848,22,-358,-153,132
63,-15090,-38,806,-4862,22,-333,-155,131
64,-15130,-38,836,-4856,22,-332,-144,149
65,-15246,2,728,-4871,22,-342,-163,129
66,-15090,-4,736,-4854,22,-336,-153,132
67,-15174,-26,706,-4829,22,-348,-132,145
68,-15120,2,758,-4844,22,-346,-167,139
69,-15152,48,838,-4856,22,-361,-149,134
70,-15198,32,794,-4850,22,-346,-149,134
71,-15158,-20,774,-4862,22,-348,-148,138
72,-15148,26,674,-4849,22,-347,-126,145
73,-15160,6,810,-4857,22,-333,-163,141
74,-15104,-24,664,-4843,22,-356,-143,128
75,-15132,6,746,-4867,22,-347,-152,136
76,-15070,-30,696,-4856,22,-358,-163,134
77,-15162,16,808,-4855,22,-342,-147,132
78,-15178,-20,814,-4851,22,-344,-159,144
79,-15144,0,696,-4835,22,-316,-138,131
80,-15064,-14,728,-4847,22,-341,-171,141
81,-15174,-62,666,-4850,22,-339,-146,132
82,-15096,16,690,-4852,22,-334,-178,143
83,-15164,-2,746,-4857,22,-335,-154,140
84,-15186,-14,810,-4840,22,-355,-167,145
85,-15164,0,668,-4849,22,-351,-145,150
86,-15144,-66,756,-4848,22,-338,-166,143
87,-15172,14,740,-4845,22,-349,-156,134
88,-15260,-30,698,-4842,22,-335,-143,128
89,-15134,-22,688,-4857,22,-345,-172,146
90,-15140,-48,816,-4833,22,-343,-155,139
91,-15168,32,808,-4848,22,-332,-147,128
92,-15134,54,770,-4850,22,-338,-146,150
93,-15232,-12,672,-4841,22,-347,-148,137
94,-15116,-28,624,-4847,22,-340,-158,137
95,-15082,-18,730,-4832,22,-335,-143,138
96,-15152,38,748,-4849,22,-341,-159,126
97,-15248,-22,704,-4847,22,-339,-142,148
98,-15120,8,704,-4842,22,-352,-151,137
99,-15112,-68,754,-4848,22,-342,-151,125
100,-15156,-60,738,-4828,22,-343,-156,121
101,-15122,-50,688,-4841,22,-335,-162,126
102,-15148,-22,880,-4842,22,-351,-153,149
103,-15158,-94,732,-4833,22,-339,-135,141
104,-15090,44,714,-4856,22,-339,-140,155
105,-15110,-74,814,-4841,22,-349,-148,148
106,-15160,2,566,-4835,22,-349,-155,141
107,-15222,-36,812,-4846,22,-319,-158,150
108,-15124,8,604,-4843,22,-356,-157,132
109,-15184,36,690,-4838,22,-337,-150,143
110,-15156,70,746,-4839,22,-331,-149,138
111,-15076,-2,648,-4854,22,-360,-164,138
112,-15112,-6,760,-4848,22,-342,-162,141
113,-15088,34,738,-4825,22,-350,-152,150
114,-15080,2,786,-4844,22,-333,-164,131
115,-15098,42,630,-4845,22,-335,-145,129
116,-15116,-14,690,-4862,22,-347,-137,143
117,-15132,4,662,-4846,22,-338,-144,151
118,-15194,-60,728,-4846,22,-344,-170,136
119,-15132,-12,740,-4858,22,-342,-146,144
120,-15158,-64,764,-4842,22,-340,-156,135
121,-15168,60,634,-4862,22,-342,-162,128
122,-15102,74,696,-4850,22,-332,-147,141
123,-15170,34,766,-4838,22,-353,-149,137
124,-15220,-6,808,-4836,22,-355,-163,140
125,-15166,44,858,-4834,22,-362,-167,142
126,-15128,4,860,-4849,22,-344,-149,129
127,-15148,-44,740,-4841,22,-330,-134,132
128,-15138,-18,856,-4832,22,-340,-125,140
129,-15212,48,804,-4839,22,-345,-158,128
130,-15092,-36,764,-4838,22,-349,-136,143
131,-15124,30,786,-4837,22,-352,-158,145
132,-15156,52,780,-4820,22,-346,-165,132
133,-15232,-16,766,-4829,22,-366,-133,128
134,-15162,-38,798,-4836,22,-342,-151,138
135,-15182,-72,808,-4838,22,-337,-146,143
136,-15106,-34,822,-4827,22,-340,-150,147
137,-15118,-78,710,-4838,22,-339,-159,134
138,-15158,-6,736,-4826,22,-336,-152,147
139,-15214,34,770,-4840,22,-330,-161,139
140,-15146,-44,744,-4831,22,-329,-141,137
141,-15194,66,754,-4824,22,-350,-148,149
142,-15116,16,768,-4833,22,-338,-145,151
143,-15176,24,720,-4840,22,-329,-173,129
144,-15138,-72,794,-4841,22,-329,-155,127
145,-15104,-14,662,-4843,22,-327,-153,136
146,-15198,14,688,-4840,22,-353,-137,133
147,-15154,-22,828,-4841,22,-339,-156,136
148,-15130,-48,684,-4835,22,-343,-150,118
149,-15110,36,794,-4833,22,-337,-145,154
150,-15194,16,780,-4827,22,-350,-126,128
151,-15152,100,736,-4829,22,-346,-149,138
152,-15188,-22,716,-4837,22,-343,-182,117
153,-15138,-54,768,-4841,22,-358,-166,133
154,-15098,-20,774,-4827,22,-347,-140,150
155,-15198,46,694,-4833,22,-349,-163,128
156,-15132,-22,788,-4835,22,-347,-164,138
157,-15206,12,770,-4842,22,-356,-145,130
158,-15194,62,774,-4828,22,-321,-152,168
159,-15172,-24,760,-4823,22,-326,-137,144
160,-15140,-36,818,-4828,22,-340,-163,129
161,-15066,8,698,-4818,22,-341,-138,145
162,-15112,-12,822,-4831,22,-332,-151,120
163,-15182,28,682,-4829,22,-331,-159,122
164,-15134,6,772,-4834,22,-348,-161,126
165,-15086,-2,754,-4828,22,-350,-154,155
166,-15184,-4,638,-4834,22,-360,-165,132
167,-15176,-58,748,-4843,22,-354,-155,139
168,-15084,38,790,-4830,22,-337,-146,142
169,-15156,-46,718,-4824,22,-336,-155,145
170,-15174,-10,842,-4822,22,-348,-157,153
171,-15200,56,720,-4837,22,-352,-166,142
172,-15164,-54,714,-4831,22,-337,-150,137
173,-15228,68,832,-4827,22,-342,-153,129
174,-15160,-92,504,-4839,22,-352,-160,132
175,-15070,-44,808,-4832,22,-349,-160,123
176,-15144,58,714,-4818,22,-339,-148,141
177,-15156,-10,774,-4833,22,-331,-166,119
178,-15134,-40,814,-4837,22,-347,-156,132
179,-15098,-32,768,-4819,22,-349,-166,133
180,-15060,-96,888,-4824,22,-363,-155,147
181,-15180,-24,900,-4823,22,-340,-151,139
182,-15154,30,698,-4838,22,-341,-141,153
183,-15118,-48,762,-4825,22,-355,-163,130
184,-15086,-22,740,-4818,22,-352,-154,143
185,-15188,20,700,-4829,22,-345,-150,142
186,-15148,-18,776,-4809,22,-334,-149,146
187,-15170,-2,810,-4826,22,-335,-142,137
188,-15140,-30,794,-4825,22,-350,-154,128
189,-15136,-34,784,-4822,22,-345,-164,135
190,-15134,-66,764,-4825,22,-325,-155,142
191,-15106,-100,694,-4822,22,-336,-136,119
192,-15118,-20,794,-4820,22,-330,-153,145
193,-15166,-74,884,-4827,22,-357,-160,146
194,-15184,42,712,-4846,22,-341,-145,134
195,-15142,0,824,-4824,22,-339,-159,120
196,-15054,44,676,-4830,22,-331,-150,141
197,-15124,16,730,-4822,22,-374,-145,130
198,-15108,-104,700,-4816,22,-341,-147,143
199,-15182,24,660,-4816,22,-345,-146,136
200,-15144,-2,680,-4848,22,-337,-149,145
201,-15142,-26,900,-4843,22,-336,-159,126
202,-15154,46,778,-4826,22,-346,-121,134
203,-15112,12,754,-4819,22,-341,-154,137
204,-15244,-14,684,-4823,22,-348,-149,142
205,-15128,-28,742,-4832,22,-330,-160,148
206,-15136,20,770,-4832,22,-333,-149,148
207,-15284,-32,692,-4832,22,-344,-151,134
208,-15160,-40,840,-4832,22,-358,-166,138
209,-15056,12,722,-4830,22,-326,-151,129
210,-15184,-36,806,-4828,22,-347,-148,142
211,-15090,16,740,-4838,22,-347,-142,132
212,-15178,8,810,-4831,22,-338,-149,134
213,-15122,6,690,-4825,22,-353,-148,123
214,-15124,-82,744,-4828,22,-343,-147,143
215,-15198,-40,740,-4818,22,-323,-147,123
216,-15112,-14,622,-4834,22,-337,-162,144
217,-15150,-14,646,-4825,22,-363,-135,146
218,-15178,2,748,-4821,22,-352,-150,135
219,-15194,-30,790,-4826,22,-327,-141,134
220,-15114,-38,708,-4821,22,-323,-142,139
221,-15154,16,684,-4814,22,-329,-172,132
222,-15186,-20,742,-4830,22,-344,-173,133
223,-15118,-30,696,-4819,22,-356,-154,136
224,-15150,30,712,-4811,22,-349,-152,133
225,-15136,-60,796,-4836,22,-341,-161,138
226,-15108,-38,678,-4817,22,-341,-138,137
227,-15164,-52,882,-4834,22,-356,-159,149
228,-15198,-40,678,-4818,22,-348,-160,131
229,-15186,-24,776,-4827,22,-327,-165,131
230,-15084,74,838,-4837,22,-326,-172,152
231,-15164,16,894,-4828,22,-342,-162,144
232,-15086,14,834,-4813,22,-333,-162,129
233,-15112,42,766,-4819,22,-337,-156,158
234,-15128,80,788,-4824,22,-349,-159,142
235,-15150,-54,736,-4832,22,-366,-146,125
236,-15122,-76,930,-4811,22,-351,-150,128
237,-15198,20,694,-4824,22,-343,-147,144
238,-15208,14,838,-4816,22,-345,-153,155
239,-15214,-14,860,-4834,22,-345,-151,138
240,-15200,-40,678,-4820,22,-345,-168,143
241,-15258,-26,830,-4835,22,-332,-156,136
242,-15084,-4,674,-4821,22,-358,-146,122
243,-15138,10,764,-4833,22,-342,-160,146
244,-15168,-76,716,-4814,22,-342,-152,142
245,-15062,-28,786,-4835,22,-347,-158,143
246,-15142,-82,680,-4827,22,-361,-130,136
247,-15158,56,810,-4810,22,-333,-147,137
248,-15154,-28,650,-4820,22,-357,-158,123
249,-15134,-26,772,-4823,22,-348,-159,145
250,-15146,18,880,-4812,22,-357,-142,141
251,-15136,24,916,-4827,22,-350,-165,131
252,-15100,20,742,-4825,22,-334,-154,128
253,-15236,12,710,-4818,22,-345,-132,142
254,-15190,-30,838,-4802,22,-346,-145,129
255,-15204,-20,544,-4821,22,-349,-161,132
256,-15208,8,742,-4813,22,-356,-148,140
257,-15192,8,816,-4822,22,-342,-165,134
258,-15164,-36,676,-4825,22,-343,-161,129
259,-15142,52,782,-4819,22,-360,-138,145
260,-15142,20,788,-4830,22,-352,-159,142
261,-15180,-36,632,-4816,22,-336,-154,130
262,-15120,30,790,-4810,22,-350,-146,135
263,-15080,-48,750,-4825,22,-347,-149,144
264,-15130,-10,660,-4820,22,-344,-166,135
265,-15148,-70,768,-4824,22,-345,-149,154
266,-15126,-24,772,-4829,22,-354,-170,130
267,-15056,34,860,-4811,22,-349,-154,132
268,-15144,-22,692,-4819,22,-346,-154,137
269,-15204,-48,754,-4818,22,-354,-187,137
270,-15076,36,732,-4822,22,-346,-145,137
271,-15198,42,914,-4826,22,-335,-155,142
272,-15140,6,796,-4830,22,-361,-149,134
273,-15240,14,722,-4834,22,-330,-161,129
274,-15140,-100,688,-4824,22,-349,-156,143
275,-15086,18,682,-4823,22,-331,-139,115
276,-15118,4,682,-4818,22,-351,-146,141
277,-15088,22,736,-4812,22,-342,-144,136
278,-15162,52,772,-4814,22,-348,-161,148
279,-15072,74,738,-4811,22,-348,-136,135
280,-15072,-28,866,-4823,22,-343,-163,139
281,-15078,32,700,-4828,22,-353,-164,149
282,-15164,-62,686,-4827,22,-333,-145,144
283,-15136,12,732,-4816,22,-328,-149,140
284,-15158,-2,720,-4818,22,-339,-158,142
285,-15156,-30,676,-4826,22,-345,-163,143
286,-15202,-96,704,-4818,22,-359,-150,135
287,-15162,-46,622,-4813,22,-333,-158,132
288,-15184,26,630,-4820,22,-332,-141,138
289,-15120,6,668,-4815,22,-368,-166,135
290,-15158,-46,602,-4815,22,-337,-140,143
291,-15212,-24,692,-4813,22,-364,-147,143
292,-15184,-26,660,-4817,22,-347,-147,141
293,-15222,-68,642,-4816,22,-360,-160,143
294,-15122,-36,654,-4819,22,-333,-156,138
295,-15204,24,746,-4823,22,-351,-132,144
296,-15074,-90,790,-4809,22,-344,-157,143
297,-15134,30,778,-4813,22,-347,-144,139
298,-15160,-48,638,-4805,22,-351,-155,150
299,-15050,22,884,-4813,22,-360,-149,154
300,-15120,2,774,-4820,22,-331,-147,148
301,-15112,24,784,-4815,22,-350,-138,144
302,-15074,-26,764,-4819,22,-349,-136,132
303,-15072,-12,770,-4818,22,-340,-152,148
304,-15172,-48,706,-4801,22,-352,-166,117
305,-15150,52,728,-4813,22,-352,-161,133
306,-15134,14,754,-4804,22,-350,-158,137
307,-15044,-34,706,-4802,22,-347,-164,135
308,-15176,-54,758,-4813,22,-334,-147,144
309,-15070,-30,738,-4811,22,-354,-150,136
310,-15098,-68,736,-4806,22,-356,-141,160
311,-15150,44,680,-4808,22,-353,-164,129
312,-15266,6,700,-4816,22,-349,-164,135
313,-15150,-12,750,-4817,22,-342,-151,149
314,-15156,-18,790,-4818,22,-347,-143,120
315,-15218,-52,758,-4815,22,-331,-167,132
316,-15180,14,728,-4821,22,-352,-170,142
317,-15196,-52,836,-4805,22,-342,-140,132
318,-15210,-38,734,-4814,22,-340,-142,144
319,-15152,62,810,-4827,22,-352,-167,142
320,-15168,-42,896,-4813,22,-343,-136,159
321,-15136,-56,798,-4822,22,-339,-151,127
322,-15126,70,672,-4815,22,-362,-135,127
323,-15136,78,726,-4811,22,-354,-142,136
324,-15106,26,738,-4797,22,-345,-169,139
325,-15122,-16,562,-4810,22,-358,-147,129
326,-15194,-98,718,-4798,22,-347,-168,130
327,-15176,-44,716,-4817,22,-359,-172,115
328,-15112,-130,924,-4810,22,-334,-152,148
329,-15098,10,748,-4814,22,-333,-146,132
330,-15162,20,636,-4811,22,-349,-145,142
331,-15190,6,830,-4826,22,-358,-154,129
332,-15134,0,706,-4803,22,-349,-156,155
333,-15188,-48,818,-4815,22,-349,-157,133
334,-15260,42,668,-4835,22,-361,-154,119
335,-15122,52,804,-4818,22,-352,-152,132
336,-15088,8,822,-4797,22,-346,-152,153
337,-15120,-16,780,-4800,22,-348,-156,126
338,-15180,-24,726,-4818,22,-336,-150,140
339,-15106,24,782,-4819,22,-349,-169,154
340,-15160,8,710,-4810,22,-348,-147,132
341,-15114,20,732,-4805,22,-343,-152,140
342,-15194,-6,786,-4819,22,-345,-144,140
343,-15194,-130,624,-4802,22,-362,-153,140
344,-15094,-24,776,-4811,22,-333,-159,155
345,-15128,-18,788,-4823,22,-351,-135,125
346,-15132,-70,754,-4804,22,-343,-146,139
347,-15152,2,730,-4814,22,-336,-132,142
348,-15144,46,590,-4808,22,-346,-165,135
349,-15120,-44,796,-4816,22,-340,-158,142
350,-15112,0,832,-4819,22,-360,-154,134
351,-15110,-80,700,-4825,22,-365,-150,137
352,-15162,46,650,-4809,22,-347,-153,140
353,-15104,-50,706,-4812,22,-344,-131,148
354,-15184,-18,726,-4807,22,-334,-151,136
355,-15190,44,774,-4827,22,-353,-149,131
356,-15086,-22,838,-4798,22,-339,-155,141
357,-15196,-34,808,-4814,22,-358,-148,134
358,-15094,44,722,-4806,22,-344,-156,130
359,-15158,30,688,-4804,22,-347,-145,152
360,-15140,-42,732,-4802,22,-341,-151,140
361,-15104,-48,680,-4822,22,-357,-161,131
362,-15084,70,758,-4810,22,-342,-151,146
363,-15166,-34,856,-4816,22,-354,-157,142
364,-15184,-42,820,-4822,22,-356,-168,130
365,-15140,16,836,-4811,22,-341,-162,143
366,-15248,48,804,-4812,22,-360,-147,130
367,-15196,36,822,-4806,22,-353,-149,146
368,-15240,-44,702,-4809,22,-351,-157,137
369,-15154,-14,750,-4825,22,-355,-147,140
370,-15182,6,656,-4818,22,-336,-170,130
371,-15166,-44,690,-4815,22,-336,-144,133
372,-15228,-24,706,-4811,22,-340,-130,147
373,-15220,74,788,-4801,22,-349,-160,131
374,-15202,-14,780,-4821,22,-365,-155,135
375,-15170,-28,774,-4802,22,-340,-149,139
376,-15204,32,738,-4788,22,-344,-152,133
377,-15196,-22,746,-4809,22,-351,-142,148
378,-15126,-94,726,-4819,22,-340,-157,135
379,-15102,28,672,-4823,22,-338,-141,123
380,-15194,-28,754,-4809,22,-344,-163,125
381,-15126,36,752,-4803,22,-358,-142,153
382,-15184,-40,760,-4806,22,-341,-159,119
383,-15194,62,728,-4806,22,-344,-145,134
384,-15136,-20,708,-4812,22,-357,-154,149
385,-15166,22,744,-4796,22,-360,-157,145
386,-15142,0,724,-4814,22,-352,-144,137
387,-15114,-20,740,-4801,22,-341,-149,127
388,-15118,6,684,-4816,22,-341,-147,136
389,-15180,-34,694,-4803,22,-344,-147,124
390,-15196,-114,706,-4797,22,-362,-160,134
391,-15106,-92,728,-4800,22,-335,-160,138
392,-15152,100,730,-4813,22,-356,-142,137
393,-15194,62,706,-4804,22,-338,-160,128
394,-15170,14,716,-4795,22,-328,-164,141
395,-15134,4,766,-4807,22,-339,-144,144
396,-15120,-80,764,-4791,22,-335,-150,146
397,-15126,40,712,-4807,22,-342,-174,141
398,-15220,-44,656,-4802,22,-349,-148,129
399,-15144,-56,672,-4818,22,-359,-167,152
400,-15194,10,762,-4805,22,-354,-163,148
401,-15148,-40,712,-4793,22,-342,-155,134
402,-15084,6,852,-4807,22,-343,-151,129
403,-15124,12,698,-4803,22,-355,-133,144
404,-15138,-4,668,-4814,22,-338,-145,148
405,-15116,-102,912,-4805,22,-348,-172,129
406,-15218,-20,798,-4806,22,-352,-158,142
407,-15122,6,816,-4807,22,-355,-158,141
408,-15098,2,722,-4801,22,-341,-148,135
409,-15202,2,710,-4813,22,-341,-176,150
410,-15170,116,830,-4801,22,-359,-141,137
411,-15116,16,570,-4814,22,-344,-138,139
412,-15154,16,844,-4792,22,-354,-154,133
413,-15116,-36,666,-4813,22,-353,-147,138
414,-15132,-58,718,-4827,22,-331,-164,128
415,-15126,-24,736,-4797,22,-340,-139,126
416,-15102,-48,780,-4803,22,-336,-169,153
417,-15230,-16,770,-4794,22,-339,-163,129
418,-15136,18,746,-4817,22,-354,-173,124
419,-15218,-38,840,-4811,22,-344,-154,139
420,-15188,6,604,-4794,22,-345,-157,139
421,-15128,36,692,-4802,22,-339,-145,135
422,-15090,-48,760,-4812,22,-353,-159,141
423,-15116,-6,680,-4794,22,-360,-142,143
424,-15078,-66,814,-4812,22,-326,-162,141
425,-15184,22,830,-4798,22,-352,-151,135
426,-15142,-52,814,-4815,22,-345,-149,123
427,-15202,-28,610,-4797,22,-358,-151,138
428,-15174,-6,734,-4800,22,-331,-165,161
429,-15116,-92,774,-4800,22,-333,-144,130
430,-15200,10,770,-4805,22,-359,-145,125
431,-15182,-16,884,-4811,22,-330,-150,141
432,-15158,24,832,-4808,22,-343,-141,127
433,-15224,66,682,-4810,22,-340,-160,134
434,-15178,-28,740,-4811,22,-349,-167,122
435,-15084,14,708,-4801,22,-354,-142,117
436,-15178,14,650,-4805,22,-342,-149,126
437,-15096,82,754,-4805,22,-326,-155,137
438,-15094,10,780,-4810,22,-336,-143,136
439,-15194,-90,714,-4814,22,-338,-140,149
440,-15068,-46,770,-4806,22,-353,-155,152
441,-15242,-22,730,-4792,22,-345,-146,138
442,-15106,-40,760,-4785,22,-346,-149,144
443,-15106,-76,772,-4803,22,-337,-137,140
444,-15146,-34,604,-4795,22,-354,-143,147
445,-15112,-42,782,-4815,22,-344,-138,119
446,-15184,-30,680,-4805,22,-354,-132,136
447,-15212,-32,786,-4807,22,-336,-161,138
448,-15160,-12,716,-4797,22,-333,-171,142
449,-15128,42,764,-4800,22,-345,-154,164
450,-15112,24,742,-4785,22,-361,-148,140
451,-15132,-136,828,-4797,22,-324,-146,149
452,-15130,28,840,-4804,22,-336,-161,147
453,-15078,-48,756,-4806,22,-351,-148,135
454,-15180,56,788,-4794,22,-372,-150,150
455,-15158,-20,716,-4798,22,-339,-132,138
456,-15118,0,832,-4804,22,-347,-149,130
457,-15152,38,728,-4804,22,-361,-153,133
458,-15150,-56,632,-4798,22,-357,-156,139
459,-15230,-48,682,-4795,22,-339,-161,128
460,-15098,-54,806,-4808,22,-351,-154,136
461,-15128,0,612,-4802,22,-343,-150,140
462,-15188,-22,820,-4826,22,-337,-157,138
463,-15230,-20,774,-4779,22,-355,-149,143
464,-15162,48,732,-4790,22,-347,-155,148
465,-15170,-30,716,-4787,22,-346,-150,153
466,-15132,18,724,-4807,22,-348,-157,155
467,-15154,-36,752,-4800,22,-347,-166,143
468,-15174,-20,806,-4808,22,-367,-144,156
469,-15258,74,784,-4795,22,-341,-141,158
470,-15120,20,756,-4802,22,-354,-159,142
471,-15134,14,778,-4794,22,-344,-165,157
472,-15206,64,630,-4809,22,-349,-151,125
473,-15190,-4,700,-4803,22,-347,-138,121
474,-15114,-46,760,-4809,22,-328,-159,137
475,-15126,-30,890,-4807,22,-351,-163,140
476,-15148,-16,772,-4797,22,-348,-128,136
477,-15148,22,788,-4800,22,-336,-144,157
478,-15154,-46,760,-4792,22,-350,-147,142
479,-15162,-86,898,-4786,22,-328,-146,130
480,-15166,100,848,-4794,22,-348,-153,128
481,-15084,-56,728,-4801,22,-333,-171,137
482,-15156,-72,780,-4806,22,-334,-155,144
483,-15102,14,714,-4786,22,-335,-155,136
484,-15106,-28,790,-4792,22,-338,-157,132
485,-15232,-20,752,-4814,22,-345,-160,142
486,-15170,-54,734,-4795,22,-348,-142,117
487,-15166,2,712,-4798,22,-352,-157,119
488,-15132,70,696,-4799,22,-341,-148,142
489,-15206,-14,580,-4807,22,-349,-165,125
490,-15138,0,664,-4785,22,-349,-150,145
491,-15164,-20,826,-4813,22,-349,-158,154
492,-15218,-26,814,-4800,22,-351,-153,156
493,-15166,34,654,-4803,22,-347,-164,128
494,-15196,-70,818,-4802,22,-354,-152,148
495,-15104,28,796,-4800,22,-350,-133,152
496,-15110,-28,740,-4797,22,-342,-144,134
497,-15112,-16,690,-4797,22,-336,-145,132
498,-15110,-12,652,-4804,22,-341,-155,133
499,-15106,-46,776,-4801,22,-343,-158,135
500,-15098,44,664,-4797,22,-344,-144,145
501,-15094,12,770,-4799,22,-343,-139,132
502,-15188,34,632,-4795,22,-343,-157,123
503,-15142,-64,724,-4800,22,-338,-146,137
504,-15126,-32,696,-4802,22,-360,-146,138
505,-15090,-10,652,-4790,22,-347,-169,120
506,-15128,-24,754,-4799,22,-349,-164,163
507,-15146,-80,642,-4788,22,-353,-146,129
508,-15090,18,672,-4787,22,-332,-149,129
509,-15180,-34,794,-4801,22,-343,-152,146
510,-15246,14,662,-4806,22,-356,-151,143
511,-15090,-58,762,-4798,22,-347,-144,136
512,-15138,8,778,-4806,22,-329,-156,123
513,-15096,-54,700,-4801,22,-339,-153,143
514,-15126,2,692,-4796,22,-343,-145,140
515,-15150,58,806,-4793,22,-351,-153,144
516,-15168,-38,740,-4776,22,-337,-141,145
517,-15166,10,742,-4791,22,-351,-143,140
518,-15128,0,770,-4793,22,-355,-148,141
519,-15246,-72,840,-4796,22,-347,-178,146
520,-15166,-8,662,-4791,22,-322,-159,143
521,-15170,-40,724,-4797,22,-347,-149,147
522,-15146,-36,696,-4804,22,-354,-160,140
523,-15188,-18,780,-4798,22,-359,-157,128
524,-15218,-58,710,-4795,22,-343,-141,131
525,-15180,6,666,-4800,22,-360,-151,152
526,-15130,16,912,-4804,22,-345,-150,148
527,-15118,-56,782,-4799,22,-341,-164,145
528,-15140,-20,798,-4785,22,-336,-170,135
529,-15074,-22,830,-4798,22,-358,-138,154
530,-15162,-24,850,-4795,22,-358,-159,130
531,-15104,72,734,-4810,22,-364,-161,151
532,-15116,-24,792,-4805,22,-351,-139,131
533,-15130,-20,750,-4802,22,-341,-153,126
534,-15146,2,864,-4796,22,-347,-135,145
535,-15106,-88,758,-4801,22,-361,-146,124
536,-15126,-8,722,-4801,22,-339,-161,143
537,-15158,100,768,-4800,22,-339,-147,131
538,-15206,30,780,-4803,22,-338,-156,135
539,-15170,10,782,-4793,22,-347,-138,139
540,-15196,68,838,-4805,22,-330,-167,136
541,-15158,-12,704,-4789,22,-353,-153,150
542,-15128,44,810,-4814,22,-337,-154,143
543,-15058,-86,762,-4809,22,-355,-168,125
544,-15178,-38,736,-4802,22,-343,-130,141
545,-15192,-22,646,-4789,22,-339,-142,141
546,-15116,-16,682,-4811,22,-343,-144,147
547,-15088,-38,796,-4797,22,-332,-138,142
548,-15174,6,754,-4796,22,-358,-143,125
549,-15080,12,670,-4805,22,-353,-153,141
550,-15098,-24,638,-4777,22,-330,-151,136
551,-15060,8,710,-4782,22,-352,-161,127
552,-15112,-14,786,-4798,22,-342,-156,134
553,-15168,-24,714,-4792,22,-355,-144,165
554,-15154,-32,786,-4801,22,-348,-147,141
555,-15154,-40,636,-4796,22,-335,-151,137
556,-15120,24,698,-4789,22,-352,-144,143
557,-15210,-64,778,-4807,22,-350,-159,136
558,-15156,38,750,-4801,22,-354,-151,139
559,-15116,70,636,-4793,22,-354,-166,148
560,-15214,56,802,-4805,22,-340,-144,143
561,-15110,-12,582,-4796,22,-336,-145,151
562,-15184,-54,744,-4789,22,-330,-145,139
563,-15098,-56,668,-4810,22,-346,-158,148
564,-15132,-20,736,-4795,22,-343,-148,141
565,-15158,-4,748,-4787,22,-338,-143,142
566,-15156,-38,798,-4791,22,-341,-161,142
567,-15124,24,764,-4772,22,-335,-147,140
568,-15178,24,746,-4790,22,-341,-155,137
569,-15198,-26,652,-4793,22,-346,-150,167
570,-15092,-20,760,-4788,22,-352,-140,145
571,-15160,-52,714,-4793,22,-337,-163,142
572,-15158,22,824,-4794,22,-339,-148,133
573,-15112,-48,654,-4799,22,-347,-165,151
574,-15098,44,748,-4791,22,-363,-155,135
575,-15230,-14,732,-4787,22,-346,-169,156
576,-15110,70,884,-4813,22,-354,-151,151
577,-15168,32,812,-4786,22,-330,-131,147
578,-15150,-36,752,-4781,22,-349,-168,133
579,-15142,46,740,-4782,22,-354,-163,144
580,-15150,6,754,-4802,22,-352,-144,137
581,-15086,4,842,-4792,22,-339,-131,140
582,-15132,6,778,-4797,22,-355,-161,133
583,-15244,26,686,-4797,22,-317,-139,140
584,-15170,24,764,-4779,22,-344,-163,144
585,-15108,-24,738,-4793,22,-332,-139,142
586,-15172,26,744,-4794,22,-345,-150,145
587,-15162,12,756,-4784,22,-343,-158,147
588,-15144,-60,706,-4776,22,-344,-151,150
589,-15214,-30,824,-4792,22,-339,-145,135
590,-15174,-16,780,-4799,22,-330,-153,137
591,-15206,-4,656,-4794,22,-336,-159,137
592,-15152,-52,760,-4795,22,-350,-155,133
593,-15120,16,772,-4795,22,-342,-166,142
594,-15066,10,782,-4780,22,-344,-147,123
595,-15224,48,710,-4812,22,-359,-144,128
596,-15128,-50,760,-4786,22,-349,-161,145
597,-15172,-30,722,-4806,22,-339,-145,142
598,-15152,66,740,-4785,22,-350,-160,125
599,-15226,-68,840,-4776,22,-354,-135,130
600,-15190,58,774,-4788,22,-330,-171,128
601,-15146,-54,638,-4780,22,-365,-170,136
602,-15182,-50,778,-4790,22,-343,-147,142
603,-15196,18,746,-4788,22,-350,-159,150
604,-15150,-34,702,-4789,22,-345,-172,137
605,-15196,-16,732,-4803,22,-330,-147,133
606,-15238,64,746,-4774,22,-323,-162,146
607,-15194,-32,808,-4788,22,-337,-164,139
608,-15164,-22,752,-4799,22,-330,-153,150
609,-15212,-28,722,-4793,22,-344,-163,132
610,-15066,-40,696,-4791,22,-343,-127,128
611,-15160,-42,678,-4787,22,-340,-155,122
612,-15110,-6,722,-4787,22,-351,-151,146
613,-15152,32,760,-4778,22,-334,-146,142
614,-15116,42,724,-4784,22,-344,-167,139
615,-15150,-28,724,-4789,22,-342,-145,118
616,-15142,-42,808,-4798,22,-353,-165,136
617,-15172,56,692,-4789,22,-351,-185,136
618,-15150,22,700,-4796,22,-337,-153,121
619,-15166,2,716,-4780,22,-345,-156,138
620,-15122,4,782,-4790,22,-361,-145,131
621,-15196,42,734,-4794,22,-336,-176,137
622,-15112,-72,786,-4797,22,-358,-128,150
623,-15168,18,766,-4798,22,-350,-163,144
624,-15148,-40,790,-4785,22,-330,-138,140
625,-15128,16,804,-4794,22,-350,-133,140
626,-15148,-72,724,-4779,22,-365,-157,149
627,-15130,-62,864,-4782,22,-354,-174,127
628,-15178,36,626,-4799,22,-327,-155,145
629,-15174,32,720,-4807,22,-341,-160,141
630,-15108,-72,656,-4790,22,-351,-141,141
631,-15168,22,740,-4804,22,-354,-145,138
632,-15048,2,722,-4797,22,-344,-171,143
633,-15132,-12,842,-4785,22,-334,-150,131
634,-15146,-22,788,-4794,22,-352,-147,146
635,-15144,-134,678,-4797,22,-356,-136,148
636,-15174,26,704,-4788,22,-339,-156,156
637,-15146,-36,806,-4776,22,-362,-147,123
638,-15126,-2,732,-4789,22,-343,-148,137
639,-15192,-14,772,-4793,22,-349,-149,139
640,-15114,14,698,-4793,22,-343,-157,157
641,-15144,56,778,-4777,22,-336,-141,133
642,-15174,6,774,-4786,22,-349,-156,155
643,-15164,-110,736,-4783,22,-343,-166,133
644,-15148,12,740,-4788,22,-345,-154,132
645,-15108,-38,804,-4783,22,-353,-164,132
646,-15124,-4,662,-4814,22,-348,-149,141
647,-15204,4,728,-4785,22,-356,-145,139
648,-15124,76,704,-4793,22,-341,-161,134
649,-15236,-20,656,-4779,22,-349,-166,145
650,-15088,48,716,-4798,22,-334,-160,126
651,-15186,-56,656,-4787,22,-358,-169,147
652,-15190,58,806,-4795,22,-351,-143,133
653,-15156,-32,728,-4785,22,-330,-143,130
654,-15134,-4,722,-4793,22,-351,-136,127
655,-15186,-84,786,-4798,22,-339,-160,137
656,-15164,-14,772,-4790,22,-345,-160,139
657,-15192,12,710,-4795,22,-362,-137,137
658,-15100,-38,790,-4767,22,-339,-169,131
659,-15234,20,602,-4773,22,-335,-147,133
660,-15110,-22,662,-4787,22,-351,-141,150
661,-15194,144,714,-4779,22,-350,-156,140
662,-15094,-20,736,-4787,22,-346,-171,131
663,-15114,-100,908,-4794,22,-340,-147,125
664,-15192,0,810,-4788,22,-348,-158,148
665,-15132,-94,698,-4797,22,-337,-168,126
666,-15148,38,730,-4789,22,-350,-165,135
667,-15198,-2,776,-4804,22,-346,-163,137
668,-15144,-40,782,-4787,22,-360,-150,135
669,-15102,-10,760,-4793,22,-361,-164,137
670,-15140,-136,748,-4776,22,-355,-161,149
671,-15144,-72,730,-4777,22,-347,-156,142
672,-15100,38,802,-4799,22,-345,-137,147
673,-15124,-20,810,-4787,22,-361,-145,155
674,-15190,-86,766,-4797,22,-343,-156,130
675,-15166,-2,764,-4784,22,-329,-157,140
676,-15156,-10,742,-4791,22,-338,-156,144
677,-15156,32,762,-4792,22,-334,-135,113
678,-15088,0,688,-4804,22,-361,-155,131
679,-15242,12,644,-4790,22,-342,-154,133
680,-15014,12,636,-4791,22,-339,-150,136
681,-15106,-12,706,-4790,22,-336,-154,133
682,-15154,18,744,-4788,22,-354,-142,137
683,-15168,-18,710,-4787,22,-350,-168,152
684,-15204,-42,772,-4794,22,-350,-159,144
685,-15206,26,714,-4794,22,-342,-154,147
686,-15198,42,816,-4791,22,-351,-141,144
687,-15180,52,814,-4782,22,-364,-148,144
688,-15198,-90,750,-4784,22,-356,-140,139
689,-15122,-54,762,-4776,22,-343,-157,141
690,-15200,-52,722,-4789,22,-352,-139,138
691,-15244,-20,838,-4789,22,-345,-138,145
692,-15164,-42,836,-4783,22,-326,-143,145
693,-15202,32,684,-4777,22,-336,-155,134
694,-15126,10,664,-4780,22,-333,-154,144
695,-15158,-4,764,-4787,22,-340,-151,135
696,-15176,14,746,-4798,22,-343,-164,157
697,-15144,-12,614,-4789,22,-329,-154,133
698,-15120,0,720,-4782,22,-358,-157,133
699,-15202,0,670,-4781,22,-354,-150,145
700,-15114,-8,720,-4776,22,-359,-122,138
701,-15196,-64,734,-4802,22,-338,-147,134
702,-15130,-10,768,-4793,22,-326,-153,145
703,-15206,-42,822,-4792,22,-336,-138,138
704,-15108,4,786,-4789,22,-341,-138,126
705,-15232,12,736,-4780,22,-350,-161,146
706,-15120,10,796,-4792,22,-351,-160,134
707,-15154,2,692,-4778,22,-352,-134,147
708,-15156,12,726,-4773,22,-349,-156,136
709,-15122,-4,728,-4785,22,-359,-158,146
710,-15056,-38,790,-4775,22,-350,-176,149
711,-15170,6,720,-4795,22,-355,-147,141
712,-15136,-50,780,-4785,22,-343,-156,149
713,-15138,-48,638,-4787,22,-343,-147,137
714,-15192,84,730,-4777,22,-335,-149,144
715,-15184,-22,762,-4785,22,-355,-150,132
716,-15160,22,750,-4780,22,-339,-149,152
717,-15134,-50,674,-4785,22,-363,-156,138
718,-15134,38,802,-4770,22,-340,-155,134
719,-15138,12,786,-4791,22,-331,-147,151
720,-15184,-12,842,-4784,22,-355,-136,143
721,-15096,-2,636,-4782,22,-342,-153,135
722,-15160,-52,702,-4773,22,-342,-149,140
723,-15098,-66,798,-4788,22,-346,-146,137
724,-15122,4,732,-4776,22,-330,-139,146
725,-15210,-30,860,-4792,22,-342,-121,149
726,-15120,-100,754,-4790,22,-335,-154,148
727,-15118,24,858,-4781,22,-334,-129,143
728,-15062,2,772,-4784,22,-341,-137,135
729,-15132,-6,678,-4778,22,-353,-161,145
730,-15106,-76,766,-4773,22,-351,-148,140
731,-15122,48,822,-4790,22,-351,-155,130
732,-15120,-46,700,-4800,22,-336,-152,157
733,-15158,-46,634,-4790,22,-345,-145,120
734,-15142,-34,762,-4776,22,-336,-171,150
735,-15162,38,816,-4780,22,-345,-167,146
736,-15190,0,732,-4788,22,-342,-128,135
737,-15110,-14,788,-4786,22,-352,-171,143
738,-15190,-28,628,-4794,22,-346,-157,148
739,-15156,-2,728,-4795,22,-347,-137,136
740,-15198,24,690,-4787,22,-343,-136,136
741,-15190,-12,656,-4781,22,-361,-166,139
742,-15186,-30,772,-4794,22,-342,-158,141
743,-15180,2,766,-4780,22,-324,-140,142
744,-15144,-44,736,-4794,22,-345,-149,142
745,-15092,-2,746,-4770,22,-347,-161,124
746,-15166,-48,640,-4780,22,-343,-147,142
747,-15210,-34,770,-4761,22,-351,-146,141
748,-15192,46,724,-4780,22,-355,-164,130
749,-15164,-34,672,-4782,22,-349,-158,140
750,-15214,-34,896,-4782,22,-332,-159,136
751,-15086,80,756,-4775,22,-362,-157,142
752,-15102,-4,774,-4772,22,-360,-138,142
753,-15104,150,754,-4789,22,-352,-151,139
754,-15196,-24,794,-4766,22,-360,-146,143
755,-15200,-20,742,-4783,22,-333,-151,139
756,-15238,6,730,-4789,22,-354,-164,133
757,-15182,0,574,-4774,22,-342,-169,137
758,-15148,-40,842,-4804,22,-341,-153,145
759,-15100,-16,670,-4788,22,-333,-165,108
760,-15164,-40,652,-4789,22,-351,-156,131
761,-15184,-24,864,-4785,22,-340,-139,139
762,-15174,34,812,-4776,22,-324,-159,150
763,-15228,36,758,-4779,22,-360,-133,124
764,-15160,-48,782,-4778,22,-357,-139,133
765,-15088,2,736,-4783,22,-343,-169,149
766,-15104,-56,624,-4781,22,-346,-140,146
767,-15092,-38,816,-4782,22,-344,-133,125
768,-15160,-18,778,-4786,22,-365,-159,130
769,-15162,-38,760,-4799,22,-351,-150,141
770,-15142,-18,812,-4770,22,-341,-150,137
771,-15176,-18,880,-4786,22,-339,-139,153
772,-15152,-48,694,-4779,22,-329,-150,144
773,-15264,2,628,-4779,22,-344,-149,153
774,-15106,-92,816,-4784,22,-347,-140,145
775,-15188,42,772,-4791,22,-341,-132,133
776,-15256,-90,802,-4781,22,-344,-145,140
777,-15128,-46,768,-4787,22,-349,-155,138
778,-15122,30,696,-4793,22,-347,-159,136
779,-15122,66,764,-4786,22,-343,-174,147
780,-15140,-6,696,-4789,22,-332,-154,135
781,-15112,-66,690,-4768,22,-349,-153,134
782,-15168,-2,714,-4785,22,-343,-154,129
783,-15134,12,848,-4769,22,-344,-151,160
784,-15148,-122,632,-4771,22,-337,-160,143
785,-15116,-28,786,-4783,22,-343,-166,135
786,-15162,86,758,-4792,22,-340,-148,147
787,-15120,-82,704,-4762,22,-351,-161,156
788,-15104,-44,796,-4777,22,-326,-145,147
789,-15178,-22,646,-4785,22,-326,-150,143
790,-15094,0,662,-4780,22,-341,-158,141
791,-15178,-36,772,-4787,22,-338,-149,142
792,-15204,16,898,-4772,22,-349,-158,151
793,-15224,-74,702,-4782,22,-346,-162,144
794,-15114,4,606,-4786,22,-345,-145,131
795,-15178,18,638,-4763,22,-354,-143,135
796,-15164,28,636,-4777,22,-362,-161,139
797,-15164,2,752,-4790,22,-350,-157,137
798,-15098,-10,688,-4775,22,-360,-165,136
799,-15170,-60,684,-4779,22,-342,-159,139
800,-15188,28,650,-4774,22,-357,-154,155
801,-15128,-54,802,-4772,22,-343,-141,150
802,-15144,24,774,-4793,22,-366,-162,128
803,-15116,6,888,-4767,22,-348,-149,145
804,-15172,-4,814,-4782,22,-342,-160,139
805,-15140,-34,744,-4793,22,-343,-170,138
806,-15168,-6,748,-4773,22,-330,-163,140
807,-15138,36,776,-4783,22,-334,-154,134
808,-15140,-50,826,-4775,22,-332,-145,135
809,-15122,42,838,-4793,22,-338,-164,140
810,-15142,-48,726,-4790,22,-345,-144,161
811,-15124,8,800,-4784,22,-329,-172,144
812,-15162,-60,650,-4770,22,-353,-161,127
813,-15084,-6,648,-4772,22,-333,-161,140
814,-15040,36,828,-4766,22,-339,-149,133
815,-15154,-28,664,-4778,22,-340,-151,140
816,-15186,-10,786,-4781,22,-363,-161,135
817,-15192,-10,656,-4788,22,-355,-144,152
818,-15202,12,842,-4781,22,-355,-158,140
819,-15186,32,794,-4779,22,-338,-158,140
820,-15150,-54,734,-4784,22,-335,-163,142
821,-15130,-74,642,-4792,22,-351,-146,147
822,-15112,14,672,-4783,22,-335,-166,139
823,-15218,-76,746,-4783,22,-348,-163,141
824,-15140,-18,746,-4775,22,-350,-156,138
825,-15230,-86,786,-4776,22,-341,-144,137
826,-15210,24,788,-4765,22,-359,-141,124
827,-15150,-32,746,-4789,22,-344,-132,131
828,-15128,16,732,-4770,22,-348,-159,157
829,-15134,-40,888,-4770,22,-358,-139,140
830,-15120,-16,848,-4776,22,-357,-151,140
831,-15198,-46,692,-4782,22,-343,-147,135
832,-15124,-66,754,-4766,22,-336,-160,143
833,-15206,-50,804,-4792,22,-336,-130,125
834,-15094,16,750,-4790,22,-368,-153,145
835,-15136,-20,742,-4776,22,-347,-151,155
836,-15194,-42,890,-4781,22,-353,-161,134
837,-15188,-14,748,-4783,22,-345,-156,144
838,-15164,-32,668,-4780,22,-354,-155,136
839,-15156,-34,670,-4776,22,-350,-161,132
840,-15140,-48,744,-4777,22,-340,-158,132
841,-15164,2,560,-4777,22,-356,-135,135
842,-15140,28,728,-4777,22,-348,-163,148
843,-15142,-26,710,-4790,22,-361,-144,133
844,-15142,-10,638,-4787,22,-358,-146,134
845,-15142,14,696,-4774,22,-333,-142,141
846,-15140,18,774,-4777,22,-344,-173,141
847,-15006,-6,738,-4776,22,-351,-161,145
848,-15190,38,834,-4781,22,-341,-156,132
849,-15188,46,664,-4774,22,-356,-143,135
850,-15128,-26,780,-4775,22,-335,-173,144
851,-15134,26,662,-4792,22,-348,-153,121
852,-15186,130,824,-4776,22,-359,-140,143
853,-15124,-56,604,-4775,22,-342,-153,147
854,-15132,-18,800,-4767,22,-346,-156,141
855,-15174,-6,696,-4776,22,-352,-166,140
856,-15064,14,698,-4779,22,-334,-153,144
857,-15286,10,746,-4780,22,-351,-163,142
858,-15184,30,808,-4781,22,-341,-164,133
859,-15130,-34,766,-4769,22,-343,-160,150
860,-15114,20,778,-4785,22,-351,-156,131
861,-15196,-4,824,-4781,22,-334,-155,140
862,-15198,2,672,-4775,22,-338,-150,127
863,-15120,-12,782,-4778,22,-341,-134,121
864,-15194,-132,724,-4775,22,-363,-135,138
865,-15182,-22,678,-4784,22,-347,-150,124
866,-15118,-20,768,-4781,22,-345,-153,130
867,-15190,14,816,-4784,22,-331,-155,142
868,-15156,-86,684,-4777,22,-333,-158,137
869,-15178,-72,646,-4787,22,-354,-160,137
870,-15170,-20,800,-4775,22,-356,-174,125
871,-15118,16,850,-4775,22,-327,-147,118
872,-15158,-20,874,-4788,22,-346,-172,133
873,-15156,16,782,-4776,22,-343,-138,145
874,-15180,62,678,-4777,22,-357,-154,146
875,-15106,12,728,-4773,22,-327,-139,136
876,-15144,52,710,-4788,22,-360,-162,147
877,-15108,42,772,-4771,22,-347,-142,140
878,-15188,-50,820,-4781,22,-363,-165,142
879,-15138,-44,784,-4783,22,-341,-160,139
880,-15268,78,610,-4764,22,-346,-157,141
881,-15226,14,842,-4770,22,-335,-174,130
882,-15138,-58,752,-4793,22,-350,-134,145
883,-15106,-24,752,-4771,22,-329,-153,135
884,-15176,2,722,-4768,22,-348,-143,140
885,-15176,-16,592,-4781,22,-357,-144,135
886,-15140,24,814,-4771,22,-345,-140,158
887,-15146,-66,736,-4765,22,-340,-163,133
888,-15158,-44,790,-4776,22,-342,-183,133
889,-15128,-64,802,-4778,22,-346,-159,143
890,-15152,-46,758,-4765,22,-340,-135,123
891,-15088,-80,754,-4783,22,-358,-154,137
892,-15190,-68,788,-4776,22,-345,-160,128
893,-15196,18,682,-4772,22,-347,-168,135
894,-15214,-18,810,-4784,22,-334,-164,142
895,-15180,-60,700,-4766,22,-344,-164,133
896,-15152,-22,686,-4772,22,-344,-140,146
897,-15134,66,720,-4771,22,-343,-157,134
898,-15156,2,770,-4782,22,-345,-158,141
899,-15122,-56,816,-4763,22,-362,-159,140
900,-15090,128,682,-4773,22,-340,-155,149
901,-15088,-58,816,-4780,22,-353,-156,148
902,-15190,-14,866,-4780,22,-360,-154,140
903,-15132,-54,692,-4785,22,-360,-157,121
904,-15146,-64,912,-4781,22,-341,-148,142
905,-15142,-14,834,-4767,22,-352,-164,150
906,-15136,-70,682,-4771,22,-339,-143,145
907,-15128,56,710,-4777,22,-345,-156,133
908,-15188,-64,686,-4773,22,-341,-154,144
909,-15146,-58,770,-4778,22,-347,-134,133
910,-15094,48,858,-4781,22,-366,-154,132
911,-15192,-18,932,-4779,22,-348,-144,136
912,-15180,-18,740,-4784,22,-328,-157,146
913,-15210,20,728,-4767,22,-337,-159,136
914,-15112,28,718,-4767,22,-334,-133,143
915,-15236,-10,802,-4769,22,-338,-158,144
916,-15078,-14,706,-4776,22,-334,-155,118
917,-15112,24,674,-4786,22,-354,-153,138
918,-15148,-16,706,-4778,22,-356,-157,129
919,-15198,16,816,-4770,22,-338,-158,125
920,-15196,68,846,-4767,22,-352,-161,134
921,-15148,-66,740,-4774,22,-362,-161,147
922,-15092,0,800,-4769,22,-357,-167,130
923,-15180,-130,822,-4769,22,-339,-177,148
924,-15198,64,870,-4772,22,-346,-158,139
925,-15210,-52,720,-4770,22,-369,-169,145
926,-15180,68,820,-4768,22,-344,-148,137
927,-15138,12,724,-4768,22,-336,-143,132
928,-15088,-110,702,-4780,22,-345,-155,138
929,-15212,10,670,-4777,22,-342,-165,136
930,-15270,-108,704,-4773,22,-333,-150,141
931,-15122,2,856,-4769,22,-332,-162,157
932,-15116,-18,706,-4780,22,-363,-160,147
933,-15106,-28,754,-4768,22,-346,-158,152
934,-15148,-58,690,-4797,22,-344,-154,131
935,-15204,-60,750,-4769,22,-345,-154,136
936,-15096,40,718,-4776,22,-376,-145,137
937,-15236,-54,842,-4778,22,-349,-169,136
938,-15108,8,830,-4765,22,-360,-136,141
939,-15226,-36,692,-4792,22,-344,-149,130
940,-15140,-58,650,-4769,22,-348,-171,135
941,-15140,78,752,-4787,22,-344,-170,136
942,-15136,22,694,-4768,22,-334,-153,137
943,-15186,-46,606,-4776,22,-337,-161,136
944,-15120,58,774,-4767,22,-355,-151,126
945,-15200,2,674,-4770,22,-321,-163,143
946,-15106,-34,726,-4774,22,-334,-164,140
947,-15164,22,644,-4773,22,-343,-135,119
948,-15142,24,772,-4780,22,-346,-151,144
949,-15188,96,736,-4776,22,-351,-157,138
950,-15154,-6,710,-4773,22,-346,-157,128
951,-15236,-28,842,-4769,22,-352,-147,139
952,-15182,18,686,-4772,22,-345,-137,149
953,-15124,-58,784,-4768,22,-342,-161,132
954,-15172,-24,686,-4760,22,-351,-142,128
955,-15180,-6,808,-4786,22,-359,-161,148
956,-15100,20,674,-4785,22,-344,-156,135
957,-15192,-70,740,-4775,22,-338,-165,140
958,-15132,10,856,-4776,22,-344,-162,138
959,-15150,-42,712,-4773,22,-328,-152,137
960,-15096,-4,758,-4774,22,-354,-153,125
961,-15212,-94,848,-4786,22,-328,-160,139
962,-15188,-14,694,-4774,22,-328,-124,137
963,-15174,16,704,-4775,22,-340,-136,140
964,-15138,2,676,-4777,22,-341,-160,147
965,-15122,-16,810,-4777,22,-355,-163,156
966,-15128,-22,724,-4797,22,-351,-141,134
967,-15194,-40,766,-4783,22,-363,-167,138
968,-15156,-78,832,-4772,22,-338,-152,146
969,-15096,-26,638,-4780,22,-339,-154,137
970,-15258,-78,830,-4769,22,-330,-136,150
971,-15090,28,796,-4770,22,-340,-146,143
972,-15144,30,846,-4798,22,-354,-160,141
973,-15190,24,830,-4785,22,-341,-139,152
974,-15180,-54,706,-4769,22,-342,-150,128
975,-15130,20,614,-4769,22,-334,-168,141
976,-15186,-74,746,-4771,22,-343,-145,133
977,-15126,24,828,-4772,22,-329,-157,148
978,-15162,-30,718,-4772,22,-344,-157,139
979,-15084,-72,754,-4779,22,-348,-153,125
980,-15182,-84,664,-4779,22,-335,-145,139
981,-15162,10,776,-4779,22,-335,-133,155
982,-15192,-6,668,-4773,22,-354,-148,114
983,-15132,-54,712,-4766,22,-330,-166,155
984,-15220,44,646,-4769,22,-345,-140,141
985,-15126,-64,672,-4772,22,-354,-144,132
986,-15128,18,720,-4782,22,-342,-166,126
987,-15134,92,786,-4784,22,-350,-149,138
988,-15242,-16,756,-4772,22,-332,-167,134
989,-15148,-34,672,-4798,22,-343,-153,129
990,-15168,-28,816,-4776,22,-353,-151,136
991,-15152,-54,822,-4775,22,-343,-141,140
992,-15098,18,634,-4769,22,-339,-144,123
993,-15276,-44,804,-4760,22,-352,-155,147
994,-15208,28,712,-4781,22,-342,-155,149
995,-15126,-12,616,-4778,22,-347,-146,130
