,acc_X,acc_Y,acc_Z,temp,tempC,gyr_X,gyr_Y,gyr_Z
0,-15048,-74,768,-4752,23,-181,-71,67
1,-15210,12,736,-4754,23,-179,-73,63
2,-15162,12,740,-4763,22,-173,-72,69
3,-15174,28,736,-4774,22,-170,-78,59
4,-15092,-54,696,-4768,22,-173,-73,68
5,-15176,32,762,-4784,22,-177,-69,71
6,-15102,16,832,-4762,22,-166,-78,68
7,-15164,-34,810,-4770,22,-173,-67,68
8,-15102,64,796,-4758,23,-173,-96,73
9,-15150,2,708,-4775,22,-181,-73,72
10,-15110,2,790,-4767,22,-167,-73,64
11,-15204,16,868,-4761,22,-175,-76,67
12,-15124,-60,886,-4750,23,-182,-75,74
13,-15150,-22,746,-4760,22,-170,-64,68
14,-15110,-104,788,-4772,22,-176,-72,70
15,-15130,-42,830,-4773,22,-170,-71,67
16,-15176,40,546,-4762,22,-176,-81,65
17,-15086,24,808,-4770,22,-171,-79,74
18,-15204,28,696,-4772,22,-169,-73,64
19,-15122,70,792,-4751,23,-182,-76,64
20,-15116,30,770,-4758,23,-169,-79,67
21,-15136,2,724,-4756,23,-167,-80,67
22,-15138,32,682,-4765,22,-169,-73,71
23,-15168,-56,858,-4770,22,-171,-75,71
24,-15208,-4,712,-4777,22,-173,-71,68
25,-15124,-74,780,-4753,23,-174,-82,72
26,-15024,20,716,-4771,22,-173,-71,68
27,-15212,-24,722,-4767,22,-178,-75,70
28,-15072,-14,784,-4766,22,-175,-75,67
29,-15106,-22,680,-4747,23,-173,-73,67
30,-15082,-6,872,-4764,22,-173,-76,68
31,-15182,-42,742,-4752,23,-174,-77,73
32,-15152,-56,766,-4779,22,-174,-70,68
33,-15052,14,730,-4772,22,-179,-73,71
34,-15174,84,704,-4772,22,-174,-76,65
35,-15166,84,690,-4761,22,-171,-80,70
36,-15164,-8,720,-4759,23,-180,-74,77
37,-15166,-16,696,-4769,22,-172,-78,66
38,-15128,30,578,-4773,22,-173,-76,67
39,-15128,-60,746,-4756,23,-172,-80,63
40,-15126,-20,594,-4761,22,-179,-91,72
41,-15190,-22,884,-4774,22,-161,-77,70
42,-15234,94,676,-4771,22,-178,-78,71
43,-15134,54,762,-4767,22,-168,-75,75
44,-15136,6,536,-4768,22,-174,-79,71
45,-15080,-50,650,-4768,22,-178,-71,61
46,-15138,4,724,-4779,22,-172,-73,67
47,-15146,-76,726,-4758,23,-180,-76,73
48,-15136,-10,770,-4761,22,-173,-69,74
49,-15134,40,686,-4770,22,-182,-77,72
50,-15140,-64,828,-4768,22,-170,-78,62
51,-15118,78,794,-4769,22,-181,-72,68
52,-15116,-84,758,-4770,22,-172,-78,68
53,-15052,16,664,-4767,22,-167,-71,70
54,-15170,10,576,-4768,22,-173,-77,68
55,-15190,-32,750,-4763,22,-178,-80,61
56,-15168,22,706,-4778,22,-173,-79,66
57,-15136,50,754,-4765,22,-175,-78,69
58,-15114,-64,676,-4776,22,-166,-84,75
59,-15110,26,708,-4782,22,-176,-82,71
60,-15108,-46,888,-4763,22,-175,-72,60
61,-15220,-30,780,-4767,22,-173,-73,70
62,-15164,-56,808,-4760,22,-172,-74,67
63,-15168,12,840,-4766,22,-170,-72,68
64,-15180,-22,880,-4775,22,-173,-75,71
65,-15134,20,848,-4765,22,-168,-73,64
66,-15068,-18,722,-4778,22,-171,-61,65
67,-15198,-82,668,-4767,22,-171,-81,66
68,-15156,-16,850,-4772,22,-170,-73,70
69,-15106,-30,758,-4777,22,-176,-79,66
70,-15060,-40,772,-4764,22,-175,-70,65
71,-15082,20,590,-4774,22,-178,-68,60
72,-15120,4,878,-4760,22,-174,-78,63
73,-15122,-84,828,-4761,22,-181,-81,74
74,-15152,34,848,-4764,22,-165,-78,76
75,-15062,-42,688,-4757,23,-178,-74,76
76,-15198,40,740,-4773,22,-175,-71,64
77,-15164,-74,804,-4756,23,-174,-71,65
78,-15148,18,864,-4772,22,-176,-71,71
79,-15196,-4,796,-4770,22,-167,-78,66
80,-15184,86,704,-4750,23,-176,-80,67
81,-15112,12,844,-4766,22,-183,-76,71
82,-15152,70,754,-4774,22,-170,-76,70
83,-15198,-12,880,-4754,23,-176,-89,68
84,-15126,8,730,-4753,23,-179,-72,62
85,-15126,-28,620,-4770,22,-175,-87,68
86,-15232,-42,790,-4750,23,-176,-82,62
87,-15152,-128,800,-4762,22,-170,-82,67
88,-15124,-72,772,-4762,22,-170,-78,74
89,-15168,8,766,-4761,22,-166,-84,67
90,-15084,-82,742,-4762,22,-171,-76,75
91,-15178,-2,850,-4776,22,-174,-71,71
92,-15032,-14,824,-4760,22,-172,-85,65
93,-15222,-36,650,-4754,23,-178,-80,64
94,-15198,50,808,-4760,22,-170,-86,58
95,-15176,-14,734,-4766,22,-177,-80,64
96,-15192,2,842,-4762,22,-165,-80,67
97,-15050,52,668,-4767,22,-174,-73,60
98,-15204,94,718,-4737,23,-176,-77,68
99,-15214,-24,718,-4761,22,-176,-73,73
100,-15150,48,742,-4758,23,-174,-80,76
101,-15214,-32,808,-4756,23,-174,-77,76
102,-15186,-66,688,-4752,23,-172,-80,63
103,-15204,-24,742,-4752,23,-176,-84,71
104,-15160,-4,808,-4758,23,-170,-69,67
105,-15168,24,808,-4762,22,-173,-81,70
106,-15124,8,726,-4762,22,-181,-78,68
107,-15174,0,710,-4768,22,-177,-72,77
108,-15156,-10,858,-4764,22,-173,-81,64
109,-15192,8,754,-4777,22,-168,-73,63
110,-15108,-60,762,-4768,22,-169,-72,64
111,-15086,-12,760,-4764,22,-161,-77,71
112,-15138,-20,592,-4772,22,-183,-84,67
113,-15236,-16,836,-4764,22,-174,-74,62
114,-15178,-24,820,-4761,22,-170,-79,67
115,-15138,18,600,-4769,22,-177,-85,63
116,-15114,34,692,-4762,22,-178,-74,70
117,-15096,-32,784,-4770,22,-169,-69,62
118,-15154,32,772,-4767,22,-171,-73,65
119,-15136,-120,660,-4768,22,-174,-79,70
120,-15172,18,760,-4765,22,-171,-83,71
121,-15226,12,748,-4757,23,-178,-71,71
122,-15110,-28,784,-4765,22,-175,-78,71
123,-15084,-68,666,-4767,22,-171,-80,77
124,-15198,-4,754,-4757,23,-175,-80,72
125,-15168,-58,752,-4767,22,-173,-74,69
126,-15114,10,736,-4759,23,-175,-78,73
127,-15182,58,736,-4773,22,-176,-76,71
128,-15134,8,730,-4760,22,-176,-75,67
129,-15154,2,780,-4775,22,-172,-82,67
130,-15216,-18,710,-4759,23,-174,-75,72
131,-15222,10,664,-4755,23,-178,-92,66
132,-15118,-96,798,-4771,22,-174,-79,69
133,-15148,-58,752,-4768,22,-180,-63,70
134,-15068,40,716,-4766,22,-173,-73,65
135,-15112,58,832,-4763,22,-172,-79,68
136,-15096,-78,784,-4754,23,-176,-77,72
137,-15184,-34,722,-4767,22,-175,-80,70
138,-15060,20,890,-4762,22,-181,-75,63
139,-15182,-38,768,-4755,23,-175,-66,70
140,-15158,-14,788,-4767,22,-174,-70,69
141,-15084,-46,838,-4756,23,-164,-73,71
142,-15190,-10,676,-4763,22,-175,-78,65
143,-15186,16,744,-4761,22,-168,-78,63
144,-15128,-24,730,-4767,22,-181,-72,65
145,-15152,116,726,-4747,23,-174,-77,70
146,-15170,22,660,-4755,23,-171,-80,68
147,-15102,-30,798,-4771,22,-183,-77,72
148,-15072,14,784,-4761,22,-172,-79,70
149,-15140,-36,754,-4767,22,-165,-79,68
150,-15152,22,678,-4753,23,-175,-79,61
151,-15194,8,750,-4748,23,-174,-82,74
152,-15200,16,780,-4759,23,-173,-78,71
153,-15112,10,758,-4760,22,-168,-70,65
154,-15166,-126,732,-4750,23,-171,-86,69
155,-15180,-66,642,-4759,23,-173,-79,70
156,-15180,-28,802,-4747,23,-166,-72,71
157,-15204,2,730,-4766,22,-173,-78,67
158,-15170,-74,802,-4774,22,-170,-81,72
159,-15112,-26,748,-4762,22,-176,-76,64
160,-15092,64,832,-4768,22,-175,-76,69
161,-15198,-8,758,-4757,23,-172,-79,62
162,-15128,-66,566,-4750,23,-175,-77,82
163,-15078,40,640,-4764,22,-175,-69,71
164,-15164,0,656,-4747,23,-165,-77,69
165,-15198,-58,684,-4756,23,-178,-76,72
166,-15160,-16,638,-4771,22,-169,-69,66
167,-15126,14,816,-4761,22,-169,-77,69
168,-15196,4,668,-4751,23,-169,-73,75
169,-15154,24,776,-4760,22,-171,-87,73
170,-15196,-16,754,-4770,22,-170,-76,77
171,-15158,14,716,-4765,22,-181,-83,71
172,-15176,-88,622,-4759,23,-165,-82,67
173,-15174,-32,762,-4762,22,-166,-80,68
174,-15114,-2,698,-4768,22,-174,-80,68
175,-15234,56,764,-4758,23,-182,-66,68
176,-15072,-20,708,-4769,22,-171,-72,64
177,-15158,-32,680,-4764,22,-165,-71,69
178,-15146,-42,678,-4766,22,-176,-82,73
179,-15036,62,812,-4762,22,-169,-78,75
180,-15138,0,650,-4747,23,-179,-73,73
181,-15208,-76,806,-4756,23,-166,-78,68
182,-15114,-34,678,-4752,23,-170,-82,64
183,-15158,4,850,-4752,23,-168,-74,63
184,-15186,-56,806,-4770,22,-175,-80,67
185,-15128,-24,708,-4763,22,-174,-72,72
186,-15126,-8,722,-4751,23,-174,-70,74
187,-15234,-82,770,-4764,22,-166,-67,71
188,-15180,-8,816,-4762,22,-165,-74,64
189,-15200,70,698,-4763,22,-172,-75,76
190,-15086,26,648,-4762,22,-166,-78,71
191,-15104,-42,744,-4771,22,-173,-79,72
192,-15068,28,712,-4768,22,-169,-74,73
193,-15136,-38,636,-4772,22,-179,-73,66
194,-15112,-4,712,-4761,22,-179,-87,77
195,-15072,-40,708,-4748,23,-174,-82,62
196,-15074,34,646,-4754,23,-167,-81,67
197,-15120,-82,664,-4748,23,-176,-70,70
198,-15178,-70,712,-4771,22,-175,-78,62
199,-15134,-108,750,-4765,22,-169,-77,65
200,-15136,-4,842,-4747,23,-175,-70,74
201,-15068,-40,770,-4753,23,-182,-72,60
202,-15164,12,776,-4770,22,-176,-72,67
203,-15150,-82,784,-4762,22,-178,-86,65
204,-15156,-70,796,-4756,23,-169,-84,73
205,-15154,-54,882,-4752,23,-172,-67,66
206,-15158,-18,692,-4756,23,-171,-78,66
207,-15076,-30,836,-4761,22,-177,-73,70
208,-15192,24,762,-4772,22,-174,-80,65
209,-15106,88,766,-4759,23,-180,-82,69
210,-15138,88,752,-4753,23,-177,-70,66
211,-15148,-12,786,-4746,23,-176,-78,71
212,-15104,-24,700,-4774,22,-174,-76,76
213,-15160,40,784,-4767,22,-169,-77,76
214,-15172,-8,660,-4752,23,-167,-64,71
215,-15192,-14,844,-4762,22,-164,-69,73
216,-15132,6,752,-4754,23,-170,-85,70
217,-15140,-24,746,-4768,22,-174,-81,69
218,-15182,-22,772,-4745,23,-168,-78,58
219,-15206,-70,626,-4767,22,-172,-77,69
220,-15194,-6,782,-4765,22,-173,-74,62
221,-15240,-16,666,-4752,23,-168,-82,76
222,-15096,-2,718,-4754,23,-178,-78,71
223,-15158,-16,644,-4751,23,-172,-79,70
224,-15184,50,820,-4760,22,-174,-75,77
225,-15208,36,820,-4761,22,-170,-78,62
226,-15140,26,738,-4755,23,-173,-78,63
227,-15264,12,700,-4748,23,-164,-76,71
228,-15188,-38,706,-4770,22,-171,-69,73
229,-15100,-54,726,-4772,22,-175,-86,70
230,-15102,22,718,-4761,22,-169,-78,71
231,-15128,-38,846,-4760,22,-166,-81,70
232,-15172,-108,840,-4762,22,-171,-69,62
233,-15098,0,696,-4775,22,-168,-79,72
234,-15186,82,876,-4761,22,-170,-75,67
235,-15100,14,680,-4763,22,-174,-82,73
236,-15126,36,866,-4760,22,-170,-74,71
237,-15112,-2,734,-4756,23,-173,-78,70
238,-15118,-36,800,-4763,22,-167,-84,71
239,-15142,-30,664,-4762,22,-171,-82,67
240,-15092,-6,802,-4771,22,-184,-77,62
241,-15154,-20,658,-4762,22,-174,-73,74
242,-15214,10,740,-4758,23,-172,-70,73
243,-15174,-24,722,-4761,22,-175,-76,77
244,-15110,-34,648,-4768,22,-176,-88,68
245,-15146,-14,732,-4759,23,-176,-65,70
246,-15132,-18,830,-4768,22,-167,-73,75
247,-15134,-38,782,-4753,23,-176,-73,74
248,-15104,-66,800,-4762,22,-169,-74,74
249,-15068,-72,748,-4766,22,-167,-76,72
250,-15092,60,734,-4766,22,-182,-75,66
251,-15118,-12,754,-4759,23,-164,-82,67
252,-15150,-28,848,-4758,23,-176,-75,67
253,-15110,4,884,-4746,23,-179,-77,65
254,-15186,52,812,-4754,23,-167,-79,67
255,-15144,-30,768,-4773,22,-166,-76,69
256,-15158,8,720,-4757,23,-179,-72,70
257,-15150,-64,692,-4769,22,-169,-76,72
258,-15152,20,820,-4741,23,-175,-76,65
259,-15140,-16,778,-4767,22,-173,-75,71
260,-15158,-42,618,-4769,22,-174,-73,72
261,-15170,-16,828,-4772,22,-165,-79,67
262,-15144,-32,848,-4767,22,-174,-82,76
263,-15102,-34,532,-4762,22,-173,-71,72
264,-15116,-64,740,-4757,23,-164,-71,68
265,-15136,-8,708,-4766,22,-179,-68,69
266,-15246,40,716,-4756,23,-174,-83,70
267,-15152,20,714,-4762,22,-178,-80,68
268,-15120,36,674,-4745,23,-174,-75,71
269,-15182,-28,748,-4757,23,-178,-81,67
270,-15180,-34,802,-4753,23,-178,-79,73
271,-15098,-42,656,-4761,22,-173,-74,66
272,-15054,-30,632,-4751,23,-175,-75,67
273,-15094,-34,810,-4748,23,-178,-77,64
274,-15162,-46,616,-4761,22,-174,-68,64
275,-15162,-66,836,-4762,22,-163,-76,68
276,-15208,-34,756,-4756,23,-167,-79,65
277,-15148,2,850,-4746,23,-175,-76,66
278,-15144,-14,612,-4751,23,-166,-78,73
279,-15186,-68,724,-4753,23,-176,-77,65
280,-15202,4,720,-4748,23,-173,-74,77
281,-15090,-4,678,-4748,23,-167,-71,65
282,-15210,-2,726,-4751,23,-173,-74,69
283,-15150,-16,668,-4757,23,-176,-77,66
284,-15098,18,712,-4741,23,-171,-84,69
285,-15246,48,814,-4763,22,-172,-78,72
286,-15172,14,716,-4756,23,-179,-85,65
287,-15176,-8,700,-4766,22,-167,-81,66
288,-15132,-26,728,-4760,22,-177,-73,71
289,-15104,-8,818,-4764,22,-175,-77,69
290,-15170,-4,706,-4767,22,-182,-85,63
291,-15148,32,648,-4750,23,-176,-83,70
292,-15082,-10,680,-4767,22,-166,-80,81
293,-15238,22,764,-4759,23,-173,-79,78
294,-15140,-46,872,-4759,23,-180,-73,68
295,-15158,20,626,-4744,23,-174,-77,75
296,-15148,10,890,-4769,22,-172,-74,73
297,-15100,-72,718,-4769,22,-173,-79,67
298,-15188,-42,692,-4756,23,-183,-72,74
299,-15180,42,828,-4757,23,-177,-77,66
300,-15164,-22,772,-4755,23,-174,-73,72
301,-15108,34,738,-4755,23,-181,-71,71
302,-15146,-12,664,-4746,23,-163,-83,68
303,-15128,-54,834,-4776,22,-172,-77,57
304,-15112,10,672,-4749,23,-179,-69,65
305,-15054,34,700,-4766,22,-173,-87,69
306,-15182,-92,762,-4765,22,-172,-79,67
307,-15124,-22,764,-4755,23,-168,-81,69
308,-15218,-34,746,-4759,23,-163,-76,68
309,-15194,-52,948,-4758,23,-175,-74,69
310,-15130,-44,776,-4763,22,-168,-72,76
311,-15094,-18,760,-4765,22,-177,-74,72
312,-15144,-16,762,-4755,23,-176,-72,63
313,-15110,-18,812,-4754,23,-172,-77,60
314,-15172,-26,748,-4750,23,-176,-75,72
315,-15162,-4,724,-4733,23,-175,-76,72
316,-15164,-18,806,-4755,23,-177,-76,70
317,-15122,14,766,-4749,23,-176,-80,64
318,-15116,14,818,-4764,22,-165,-92,67
319,-15212,-42,734,-4763,22,-171,-76,61
320,-15174,-30,798,-4761,22,-177,-70,69
321,-15200,-12,760,-4756,23,-172,-74,72
322,-15124,12,846,-4767,22,-166,-78,75
323,-15166,10,670,-4759,23,-172,-70,66
324,-15202,-34,742,-4758,23,-171,-79,67
325,-15178,-8,884,-4760,22,-178,-76,71
326,-15130,-30,750,-4751,23,-182,-83,74
327,-15150,-58,784,-4762,22,-171,-68,68
328,-15116,-6,744,-4752,23,-178,-72,74
329,-15118,66,734,-4758,23,-164,-73,69
330,-15166,12,752,-4754,23,-178,-82,66
331,-15128,-76,736,-4764,22,-169,-81,68
332,-15178,92,826,-4746,23,-174,-78,69
333,-15102,-46,806,-4770,22,-176,-75,72
334,-15158,-52,680,-4757,23,-174,-76,67
335,-15116,30,830,-4765,22,-173,-73,69
336,-15092,0,654,-4746,23,-171,-78,74
337,-15156,-82,778,-4760,22,-179,-73,69
338,-15152,-12,652,-4762,22,-175,-89,73
339,-15242,16,698,-4749,23,-171,-79,78
340,-15160,-60,768,-4752,23,-179,-70,70
341,-15128,48,688,-4771,22,-172,-73,74
342,-15238,36,808,-4757,23,-167,-72,69
343,-15166,-24,732,-4761,22,-171,-76,58
344,-15114,-52,804,-4772,22,-183,-80,73
345,-15046,-34,710,-4767,22,-176,-84,62
346,-15124,46,784,-4749,23,-169,-75,75
347,-15134,-38,790,-4752,23,-177,-75,72
348,-15116,-16,740,-4739,23,-165,-76,66
349,-15212,-70,748,-4754,23,-179,-82,67
350,-15190,-42,718,-4745,23,-174,-76,70
351,-15092,98,690,-4757,23,-173,-71,65
352,-15152,0,738,-4757,23,-171,-73,77
353,-15154,-16,876,-4742,23,-178,-75,66
354,-15074,-30,804,-4743,23,-169,-82,63
355,-15192,30,672,-4781,22,-171,-78,68
356,-15124,-54,764,-4756,23,-167,-88,75
357,-15140,-6,772,-4761,22,-176,-74,72
358,-15178,-44,656,-4760,22,-172,-66,76
359,-15156,-6,728,-4755,23,-171,-79,61
360,-15088,-36,838,-4765,22,-174,-74,67
361,-15200,-56,802,-4756,23,-167,-83,67
362,-15128,-24,706,-4762,22,-170,-83,80
363,-15150,16,676,-4755,23,-169,-75,68
364,-15096,-30,826,-4769,22,-166,-76,75
365,-15132,12,720,-4766,22,-170,-87,69
366,-15214,-72,658,-4751,23,-173,-80,70
367,-15132,28,776,-4749,23,-182,-79,65
368,-15152,8,754,-4763,22,-180,-80,70
369,-15140,-40,810,-4749,23,-169,-77,71
370,-15200,-30,674,-4759,23,-171,-80,74
371,-15174,-16,792,-4770,22,-175,-68,69
372,-15122,-40,776,-4765,22,-173,-72,63
373,-15146,74,664,-4764,22,-174,-71,72
374,-15126,-4,764,-4757,23,-169,-75,73
375,-15128,-52,842,-4752,23,-173,-80,68
376,-15214,-2,710,-4748,23,-174,-71,77
377,-15170,18,782,-4746,23,-176,-73,60
378,-15148,78,724,-4732,23,-173,-81,70
379,-15142,-42,800,-4757,23,-171,-77,66
380,-15102,-24,780,-4757,23,-169,-87,66
381,-15120,-52,826,-4759,23,-175,-87,73
382,-15094,8,824,-4754,23,-177,-75,67
383,-15206,-52,730,-4749,23,-175,-77,70
384,-15154,-90,670,-4762,22,-171,-78,71
385,-15080,24,696,-4752,23,-176,-79,68
386,-15110,-36,840,-4759,23,-177,-79,75
387,-15198,-48,704,-4765,22,-181,-84,68
388,-15160,-36,600,-4759,23,-172,-78,63
389,-15178,-12,734,-4759,23,-171,-83,73
390,-15116,8,864,-4759,23,-169,-77,66
391,-15174,6,646,-4755,23,-175,-68,79
392,-15188,-72,854,-4750,23,-185,-74,71
393,-15166,-48,774,-4761,22,-175,-72,65
394,-15180,-16,742,-4749,23,-181,-73,64
395,-15176,6,848,-4760,22,-171,-76,75
396,-15174,26,736,-4756,23,-177,-82,65
397,-15128,-14,820,-4756,23,-171,-80,74
398,-15208,52,600,-4758,23,-177,-82,64
399,-15118,-44,728,-4768,22,-168,-75,73
400,-15152,-4,762,-4752,23,-170,-74,67
401,-15098,-30,678,-4757,23,-170,-71,71
402,-15118,-72,640,-4755,23,-180,-70,68
403,-15112,-8,712,-4753,23,-168,-75,73
404,-15214,-2,736,-4757,23,-174,-76,65
405,-15220,-28,860,-4759,23,-172,-81,74
406,-15158,52,696,-4754,23,-176,-82,73
407,-15102,-116,626,-4765,22,-175,-73,67
408,-15178,-96,592,-4758,23,-164,-78,73
409,-15090,94,702,-4766,22,-171,-72,70
410,-15150,10,828,-4768,22,-171,-79,68
411,-15076,54,730,-4759,23,-169,-71,67
412,-15090,-14,782,-4761,22,-166,-72,68
413,-15152,-62,634,-4753,23,-167,-80,71
414,-15160,86,760,-4757,23,-174,-72,67
415,-15134,38,696,-4755,23,-186,-68,69
416,-15120,54,774,-4757,23,-175,-72,69
417,-15182,-6,626,-4765,22,-168,-82,61
418,-15110,-14,838,-4749,23,-179,-75,70
419,-15074,-66,652,-4753,23,-179,-84,63
420,-15122,0,748,-4765,22,-169,-78,64
421,-15114,-82,748,-4754,23,-171,-82,72
422,-15168,-34,848,-4769,22,-181,-80,72
423,-15114,46,832,-4759,23,-180,-74,68
424,-15156,-34,826,-4751,23,-172,-78,71
425,-15150,50,686,-4773,22,-168,-77,69
426,-15102,-102,814,-4752,23,-164,-69,63
427,-15224,-32,772,-4762,22,-169,-81,65
428,-15214,-40,772,-4756,23,-177,-78,67
429,-15236,32,704,-4747,23,-175,-81,63
430,-15148,-12,828,-4748,23,-177,-74,73
431,-15128,-38,714,-4750,23,-174,-91,68
432,-15176,-6,734,-4766,22,-172,-75,69
433,-15186,-32,690,-4750,23,-174,-79,65
434,-15162,-38,766,-4750,23,-177,-76,71
435,-15062,36,756,-4761,22,-177,-64,64
436,-15132,-4,756,-4752,23,-172,-75,73
437,-15202,0,830,-4762,22,-171,-78,66
438,-15140,-30,714,-4742,23,-171,-82,63
439,-15106,32,728,-4759,23,-177,-80,69
440,-15116,2,754,-4740,23,-166,-76,71
441,-15102,56,642,-4752,23,-169,-78,72
442,-15120,-24,732,-4743,23,-185,-85,63
443,-15168,14,832,-4748,23,-166,-68,72
444,-15094,-34,690,-4758,23,-169,-75,72
445,-15118,22,734,-4765,22,-171,-82,71
446,-15122,-8,786,-4738,23,-179,-69,66
447,-15198,-50,716,-4767,22,-174,-73,70
448,-15124,-64,840,-4762,22,-164,-79,64
449,-15214,-58,814,-4751,23,-180,-75,65
450,-15160,14,914,-4765,22,-175,-75,62
451,-15166,-40,758,-4758,23,-183,-72,65
452,-15196,30,800,-4759,23,-169,-81,67
453,-15118,-64,746,-4748,23,-173,-81,69
454,-15200,22,628,-4748,23,-174,-75,63
455,-15160,-12,732,-4761,22,-183,-79,72
456,-15158,-64,698,-4749,23,-171,-64,73
457,-15098,42,716,-4765,22,-173,-76,71
458,-15194,-28,790,-4757,23,-169,-66,73
459,-15208,62,772,-4748,23,-172,-68,76
460,-15134,2,732,-4753,23,-175,-88,68
461,-15128,-40,730,-4764,22,-173,-83,68
462,-15164,0,710,-4753,23,-179,-83,71
463,-15154,-44,796,-4759,23,-172,-72,72
464,-15102,-58,722,-4757,23,-171,-72,74
465,-15118,-52,804,-4754,23,-171,-79,74
466,-15148,-32,776,-4754,23,-174,-75,67
467,-15162,32,714,-4751,23,-179,-73,77
468,-15144,-66,798,-4757,23,-179,-76,74
469,-15194,22,842,-4754,23,-174,-77,72
470,-15130,24,754,-4757,23,-169,-72,60
471,-15142,-108,710,-4744,23,-164,-79,77
472,-15190,-22,648,-4748,23,-166,-85,80
473,-15234,-84,698,-4758,23,-173,-74,68
474,-15166,-42,742,-4749,23,-173,-77,68
475,-15176,28,764,-4754,23,-177,-81,75
476,-15090,-56,628,-4740,23,-173,-74,73
477,-15246,52,726,-4748,23,-176,-89,64
478,-15170,32,820,-4768,22,-182,-84,63
479,-15134,-20,726,-4756,23,-166,-75,61
480,-15234,-4,866,-4746,23,-177,-85,77
481,-15188,-20,746,-4760,22,-176,-77,73
482,-15050,-96,754,-4741,23,-169,-85,76
483,-15214,34,780,-4765,22,-171,-77,65
484,-15184,50,632,-4758,23,-175,-87,67
485,-15188,2,668,-4746,23,-171,-75,68
486,-15192,62,772,-4748,23,-179,-78,66
487,-15172,-6,772,-4751,23,-178,-73,67
488,-15212,-12,776,-4751,23,-173,-72,69
489,-15168,-32,774,-4755,23,-172,-77,65
490,-15182,0,784,-4741,23,-171,-81,62
491,-15188,50,772,-4746,23,-174,-88,74
492,-15030,-92,802,-4758,23,-172,-83,65
493,-15086,10,792,-4734,23,-169,-67,64
494,-15150,48,718,-4756,23,-165,-72,59
495,-15108,-18,788,-4744,23,-168,-80,63
496,-15214,-52,682,-4743,23,-167,-75,72
497,-15216,2,794,-4753,23,-168,-63,74
498,-15176,52,762,-4757,23,-172,-79,72
499,-15100,-42,710,-4758,23,-174,-68,74
500,-15132,-8,720,-4758,23,-162,-78,66
501,-15090,50,712,-4747,23,-164,-75,73
502,-15152,-18,764,-4766,22,-178,-80,66
503,-15252,62,846,-4752,23,-172,-71,68
504,-15128,16,654,-4753,23,-178,-73,68
505,-15132,12,690,-4757,23,-171,-72,73
506,-15150,-28,752,-4746,23,-178,-72,65
507,-15194,-30,828,-4758,23,-169,-76,80
508,-15150,-10,728,-4747,23,-172,-75,74
509,-15142,-32,668,-4736,23,-177,-74,75
510,-15090,-52,748,-4763,22,-178,-82,64
511,-15160,0,890,-4751,23,-167,-78,75
512,-15122,-2,732,-4740,23,-174,-65,62
513,-15126,34,736,-4742,23,-170,-71,73
514,-15120,-26,750,-4750,23,-172,-82,69
515,-15084,20,808,-4772,22,-170,-77,73
516,-15136,-10,828,-4742,23,-177,-78,72
517,-15168,-36,774,-4756,23,-170,-67,69
518,-15168,-98,792,-4756,23,-165,-78,70
519,-15250,-48,800,-4757,23,-172,-87,73
520,-15180,-30,796,-4767,22,-173,-68,65
521,-15182,-42,778,-4750,23,-176,-86,71
522,-15116,-6,834,-4761,22,-166,-73,75
523,-15116,-24,702,-4763,22,-172,-75,64
524,-15086,32,694,-4746,23,-171,-69,66
525,-15150,-48,714,-4747,23,-171,-74,73
526,-15232,-72,668,-4746,23,-178,-86,71
527,-15154,-2,776,-4748,23,-169,-80,71
528,-15132,12,714,-4742,23,-174,-75,71
529,-15142,-26,764,-4749,23,-174,-69,69
530,-15128,-36,858,-4747,23,-179,-79,70
531,-15146,-50,660,-4758,23,-174,-78,68
532,-15160,30,790,-4755,23,-168,-77,68
533,-15182,-50,666,-4754,23,-178,-71,71
534,-15110,-116,720,-4755,23,-167,-72,67
535,-15086,46,784,-4761,22,-167,-78,68
536,-15072,-70,828,-4754,23,-169,-84,73
537,-15134,-4,626,-4752,23,-167,-74,71
538,-15112,-40,720,-4760,22,-174,-79,61
539,-15128,-18,750,-4751,23,-170,-73,68
540,-15100,20,720,-4754,23,-177,-76,67
541,-15136,36,636,-4751,23,-173,-71,67
542,-15102,26,820,-4750,23,-175,-68,67
543,-15132,54,754,-4735,23,-173,-75,71
544,-15204,22,800,-4740,23,-184,-85,67
545,-15154,70,726,-4748,23,-175,-78,74
546,-15216,40,758,-4748,23,-176,-69,69
547,-15140,18,642,-4745,23,-174,-78,66
548,-15122,-20,752,-4746,23,-176,-77,66
549,-15168,-70,750,-4760,22,-166,-79,67
550,-15198,-22,706,-4750,23,-171,-74,60
551,-15196,-18,710,-4742,23,-167,-79,75
552,-15158,28,670,-4747,23,-174,-78,71
553,-15166,56,792,-4763,22,-171,-74,72
554,-15164,32,656,-4757,23,-168,-77,66
555,-15166,-26,706,-4756,23,-177,-67,72
556,-15126,78,690,-4740,23,-170,-71,75
557,-15098,-64,736,-4748,23,-185,-72,64
558,-15190,46,732,-4751,23,-177,-84,74
559,-15124,-6,794,-4742,23,-172,-81,68
560,-15200,-14,794,-4742,23,-173,-72,74
561,-15148,38,646,-4750,23,-169,-74,68
562,-15178,-20,684,-4745,23,-174,-79,75
563,-15220,-44,740,-4753,23,-173,-71,75
564,-15108,6,726,-4740,23,-175,-75,73
565,-15158,-12,788,-4751,23,-166,-81,64
566,-15190,-44,762,-4749,23,-167,-78,68
567,-15160,32,710,-4761,22,-173,-72,68
568,-15132,-128,754,-4749,23,-165,-85,67
569,-15128,26,758,-4751,23,-169,-74,65
570,-15052,-52,674,-4739,23,-169,-76,69
571,-15118,-18,690,-4754,23,-176,-79,65
572,-15178,24,760,-4746,23,-175,-76,73
573,-15142,104,750,-4751,23,-168,-75,69
574,-15218,-28,596,-4755,23,-174,-77,73
575,-15160,16,724,-4756,23,-170,-78,63
576,-15164,10,810,-4761,22,-173,-77,68
577,-15176,12,700,-4754,23,-176,-71,71
578,-15128,18,814,-4759,23,-165,-79,66
579,-15060,-48,670,-4756,23,-174,-78,62
580,-15126,-6,700,-4753,23,-174,-75,76
581,-15126,84,696,-4764,22,-170,-68,70
582,-15176,16,680,-4747,23,-176,-78,69
583,-15160,-96,678,-4749,23,-166,-79,68
584,-15160,-44,678,-4742,23,-177,-74,70
585,-15118,-78,730,-4757,23,-173,-77,68
586,-15222,-6,726,-4746,23,-165,-71,81
587,-15218,-88,810,-4750,23,-173,-82,66
588,-15166,6,790,-4749,23,-164,-75,78
589,-15088,-72,770,-4747,23,-171,-75,65
590,-15190,-82,790,-4747,23,-175,-70,75
591,-15144,-24,770,-4754,23,-168,-76,71
592,-15114,-78,738,-4741,23,-178,-75,64
593,-15136,10,612,-4756,23,-176,-70,72
594,-15202,-46,684,-4766,22,-177,-77,73
595,-15170,-60,698,-4744,23,-178,-78,69
596,-15188,-52,700,-4754,23,-165,-72,69
597,-15150,-72,748,-4756,23,-179,-74,68
598,-15116,36,666,-4745,23,-179,-73,72
599,-15138,-62,846,-4755,23,-173,-82,61
600,-15064,32,702,-4756,23,-169,-82,67
601,-15204,-50,772,-4738,23,-171,-80,65
602,-15152,-56,610,-4742,23,-169,-70,64
603,-15202,-100,778,-4748,23,-165,-81,62
604,-15170,-6,742,-4760,22,-178,-77,70
605,-15184,-28,810,-4748,23,-171,-82,70
606,-15128,-10,598,-4742,23,-172,-71,65
607,-15162,20,718,-4750,23,-168,-78,69
608,-15122,32,850,-4751,23,-182,-84,63
609,-15076,-16,738,-4744,23,-181,-77,70
610,-15094,22,686,-4750,23,-176,-82,73
611,-15188,-24,856,-4758,23,-175,-75,70
612,-15152,-24,784,-4754,23,-166,-81,66
613,-15084,-8,796,-4752,23,-177,-77,69
614,-15134,-24,580,-4757,23,-177,-73,74
615,-15148,-60,734,-4751,23,-173,-78,74
616,-15188,32,752,-4734,23,-174,-78,69
617,-15150,24,864,-4749,23,-173,-77,67
618,-15156,-16,772,-4749,23,-170,-72,70
619,-15174,36,788,-4751,23,-170,-70,72
620,-15206,26,862,-4752,23,-177,-79,69
621,-15160,58,764,-4745,23,-177,-70,69
622,-15186,-4,634,-4747,23,-173,-72,61
623,-15202,24,668,-4764,22,-164,-58,72
624,-15154,-54,782,-4746,23,-168,-70,74
625,-15076,18,742,-4746,23,-172,-80,71
626,-15174,-26,708,-4756,23,-176,-77,65
627,-15086,-34,746,-4739,23,-175,-77,68
628,-15152,22,714,-4751,23,-172,-78,74
629,-15128,-28,832,-4763,22,-163,-81,72
630,-15146,-18,720,-4744,23,-169,-81,73
631,-15174,4,740,-4743,23,-179,-83,60
632,-15128,-18,674,-4750,23,-172,-76,71
633,-15212,-28,732,-4760,22,-174,-82,72
634,-15076,6,744,-4758,23,-178,-71,64
635,-15204,-44,786,-4742,23,-176,-76,73
636,-15134,-72,816,-4746,23,-166,-82,66
637,-15154,-58,776,-4750,23,-174,-80,69
638,-15198,-16,724,-4749,23,-164,-76,64
639,-15182,16,838,-4737,23,-174,-77,62
640,-15182,-28,876,-4754,23,-174,-71,70
641,-15176,-68,630,-4751,23,-176,-72,69
642,-15124,-84,822,-4742,23,-173,-73,74
643,-15064,-6,742,-4740,23,-182,-87,65
644,-15146,38,688,-4752,23,-187,-79,69
645,-15076,64,796,-4757,23,-171,-87,66
646,-15142,88,750,-4743,23,-169,-75,63
647,-15132,12,722,-4740,23,-169,-77,64
648,-15226,-62,652,-4756,23,-169,-78,66
649,-15136,-22,764,-4753,23,-167,-84,65
650,-15180,46,766,-4743,23,-172,-76,68
651,-15178,-20,716,-4734,23,-174,-73,68
652,-15106,36,800,-4742,23,-179,-74,76
653,-15034,34,814,-4765,22,-176,-78,61
654,-15110,-36,784,-4750,23,-167,-73,60
655,-15182,-10,832,-4743,23,-170,-78,72
656,-15118,0,804,-4748,23,-173,-75,65
657,-15158,2,888,-4758,23,-177,-78,69
658,-15118,56,684,-4767,22,-175,-77,76
659,-15192,20,736,-4768,22,-180,-79,62
660,-15206,-10,710,-4750,23,-174,-72,61
661,-15102,-28,678,-4752,23,-169,-79,73
662,-15140,-16,810,-4761,22,-174,-68,74
663,-15106,-102,790,-4757,23,-175,-80,66
664,-15188,-118,608,-4751,23,-168,-73,71
665,-15162,-26,738,-4749,23,-170,-74,67
666,-15182,-6,558,-4749,23,-171,-80,71
667,-15044,14,672,-4756,23,-182,-80,74
668,-15078,-26,794,-4747,23,-175,-81,70
669,-15140,-2,770,-4746,23,-172,-80,59
670,-15122,-32,776,-4752,23,-176,-81,68
671,-15154,2,588,-4760,22,-174,-75,59
672,-15184,36,722,-4736,23,-170,-73,66
673,-15110,-36,748,-4742,23,-167,-86,69
674,-15098,22,732,-4743,23,-174,-76,69
675,-15152,-86,792,-4749,23,-173,-87,71
676,-15108,-66,808,-4750,23,-181,-75,65
677,-15166,-8,718,-4754,23,-175,-75,59
678,-15180,2,622,-4737,23,-171,-77,77
679,-15140,-20,896,-4755,23,-174,-73,74
680,-15152,-44,616,-4759,23,-179,-74,66
681,-15194,102,794,-4736,23,-174,-83,68
682,-15134,-42,754,-4747,23,-166,-73,66
683,-15202,-12,824,-4762,22,-173,-72,69
684,-15158,86,614,-4758,23,-171,-80,63
685,-15124,-28,672,-4744,23,-178,-78,69
686,-15156,-24,750,-4749,23,-175,-79,66
687,-15154,-10,868,-4749,23,-182,-78,76
688,-15150,-16,676,-4747,23,-173,-75,62
689,-15106,38,680,-4752,23,-181,-70,64
690,-15122,-60,786,-4745,23,-165,-79,68
691,-15170,-16,774,-4746,23,-176,-70,59
692,-15168,-52,834,-4759,23,-173,-72,65
693,-15190,28,812,-4746,23,-179,-75,67
694,-15152,32,604,-4748,23,-178,-72,70
695,-15188,-26,680,-4749,23,-178,-75,68
696,-15174,24,776,-4753,23,-166,-79,66
697,-15166,36,766,-4737,23,-171,-86,67
698,-15140,-76,724,-4741,23,-177,-68,72
699,-15084,22,648,-4755,23,-172,-76,68
700,-15164,-48,820,-4746,23,-168,-79,70
701,-15050,0,762,-4750,23,-167,-85,83
702,-15166,-42,808,-4744,23,-177,-81,66
703,-15128,-72,854,-4768,22,-170,-76,71
704,-15134,4,760,-4748,23,-178,-63,68
705,-15232,20,762,-4756,23,-176,-79,76
706,-15256,-68,780,-4738,23,-172,-76,70
707,-15150,-34,600,-4751,23,-166,-75,74
708,-15150,-66,714,-4751,23,-172,-80,71
709,-15188,-36,732,-4763,22,-181,-67,66
710,-15054,-60,618,-4757,23,-172,-74,72
711,-15186,-4,544,-4767,22,-171,-76,72
712,-15162,-48,648,-4752,23,-176,-81,74
713,-15176,52,900,-4756,23,-179,-81,60
714,-15146,0,752,-4745,23,-174,-77,67
715,-15040,-16,672,-4750,23,-174,-76,70
716,-15228,-46,736,-4761,22,-164,-81,76
717,-15164,-8,808,-4752,23,-174,-69,65
718,-15110,-84,684,-4742,23,-175,-69,67
719,-15176,-22,742,-4751,23,-171,-72,74
720,-15224,32,732,-4751,23,-173,-78,63
721,-15114,-34,612,-4753,23,-175,-66,79
722,-15160,24,814,-4745,23,-170,-71,66
723,-15190,8,692,-4747,23,-168,-72,70
724,-15196,-44,706,-4754,23,-178,-86,68
725,-15144,-26,784,-4753,23,-176,-81,66
726,-15222,-70,740,-4751,23,-175,-75,68
727,-15148,0,704,-4745,23,-172,-78,69
728,-15202,0,802,-4758,23,-174,-68,70
729,-15216,-52,706,-4738,23,-163,-80,65
730,-15150,-34,806,-4745,23,-167,-76,66
731,-15212,8,738,-4758,23,-171,-84,73
732,-15150,-2,826,-4763,22,-178,-66,67
733,-15178,-88,748,-4747,23,-184,-73,65
734,-15142,-36,754,-4742,23,-182,-77,65
735,-15114,-68,754,-4758,23,-171,-80,73
736,-15174,-52,738,-4752,23,-170,-82,68
737,-15118,-12,742,-4748,23,-169,-85,73
738,-15148,-36,700,-4745,23,-171,-73,66
739,-15194,28,906,-4761,22,-168,-79,70
740,-15192,48,682,-4729,23,-170,-75,71
741,-15100,-86,772,-4761,22,-173,-76,69
742,-15112,-6,650,-4736,23,-162,-76,70
743,-15158,-72,744,-4740,23,-173,-79,64
744,-15188,8,808,-4757,23,-167,-79,64
745,-15126,8,812,-4733,23,-177,-78,80
746,-15198,12,664,-4749,23,-166,-74,68
747,-15196,28,716,-4731,23,-183,-72,65
748,-15194,-22,784,-4742,23,-173,-81,66
749,-15138,0,786,-4743,23,-169,-78,67
750,-15186,-44,802,-4745,23,-168,-73,73
751,-15080,-46,772,-4731,23,-170,-71,73
752,-15188,36,788,-4745,23,-176,-81,74
753,-15184,8,730,-4742,23,-179,-78,78
754,-15094,-12,766,-4752,23,-171,-73,68
755,-15154,-54,738,-4743,23,-178,-81,65
756,-15138,-2,694,-4752,23,-174,-72,70
757,-15114,-106,810,-4744,23,-174,-77,69
758,-15214,-36,806,-4754,23,-169,-79,68
759,-15200,-80,752,-4747,23,-178,-85,70
760,-15114,-32,822,-4743,23,-166,-70,67
761,-15092,-34,840,-4741,23,-173,-81,72
762,-15192,-78,676,-4743,23,-167,-79,71
763,-15124,84,810,-4743,23,-171,-80,73
764,-15160,20,770,-4744,23,-179,-79,70
765,-15158,14,678,-4752,23,-171,-70,67
766,-15232,28,688,-4746,23,-180,-78,71
767,-15166,-34,728,-4744,23,-166,-79,80
768,-15138,-2,770,-4738,23,-171,-77,73
769,-15148,-6,810,-4757,23,-181,-69,71
770,-15152,-26,850,-4750,23,-170,-81,64
771,-15158,-78,776,-4751,23,-180,-74,66
772,-15190,-4,824,-4744,23,-174,-78,73
773,-15140,46,644,-4745,23,-175,-65,67
774,-15124,-68,674,-4753,23,-173,-79,70
775,-15202,-78,678,-4738,23,-165,-80,71
776,-15146,56,630,-4744,23,-178,-67,69
777,-15122,-18,736,-4741,23,-178,-68,73
778,-15152,34,654,-4748,23,-176,-81,69
779,-15132,-38,838,-4756,23,-181,-74,71
780,-15192,-24,822,-4746,23,-165,-83,64
781,-15140,4,798,-4759,23,-170,-82,70
782,-15092,48,662,-4758,23,-173,-76,61
783,-15152,-20,702,-4752,23,-171,-71,74
784,-15176,0,806,-4753,23,-175,-76,69
785,-15188,-32,732,-4741,23,-171,-83,69
786,-15092,-24,758,-4746,23,-169,-74,62
787,-15182,6,758,-4736,23,-171,-85,66
788,-15144,-46,802,-4728,23,-175,-72,64
789,-15128,-34,770,-4750,23,-178,-76,72
790,-15114,-44,750,-4768,22,-169,-71,73
791,-15172,26,524,-4755,23,-164,-76,75
792,-15104,-6,788,-4753,23,-170,-79,74
793,-15094,-30,652,-4751,23,-179,-68,70
794,-15148,-50,742,-4743,23,-168,-85,77
795,-15162,10,654,-4735,23,-171,-76,74
796,-15176,-62,764,-4742,23,-175,-81,76
797,-15108,-54,722,-4735,23,-177,-73,67
798,-15084,48,624,-4745,23,-184,-67,68
799,-15124,110,760,-4730,23,-177,-78,69
800,-15152,-38,738,-4734,23,-185,-78,69
801,-15228,44,768,-4749,23,-161,-75,78
802,-15168,52,818,-4759,23,-174,-75,74
803,-15196,-28,746,-4737,23,-163,-80,74
804,-15086,26,800,-4749,23,-181,-79,69
805,-15132,-10,732,-4739,23,-170,-85,73
806,-15238,-56,720,-4739,23,-173,-77,81
807,-15096,-38,696,-4743,23,-180,-74,71
808,-15114,-80,848,-4739,23,-172,-76,73
809,-15174,-12,712,-4737,23,-169,-82,75
810,-15060,8,694,-4762,22,-168,-81,71
811,-15230,24,834,-4734,23,-180,-73,73
812,-15176,-28,668,-4744,23,-172,-73,76
813,-15184,-26,870,-4742,23,-180,-80,67
814,-15102,-38,740,-4749,23,-171,-69,72
815,-15178,-4,836,-4750,23,-175,-78,77
816,-15180,32,766,-4744,23,-162,-74,67
817,-15198,36,726,-4748,23,-175,-77,65
818,-15176,-70,826,-4749,23,-170,-78,70
819,-15222,36,866,-4746,23,-171,-75,67
820,-15208,-2,744,-4749,23,-168,-81,74
821,-15156,-30,674,-4755,23,-173,-77,73
822,-15130,40,590,-4758,23,-173,-80,61
823,-15170,-14,690,-4756,23,-170,-75,63
824,-15044,-6,750,-4748,23,-171,-80,70
825,-15166,22,800,-4747,23,-169,-76,67
826,-15142,-96,824,-4738,23,-171,-80,67
827,-15110,-14,738,-4740,23,-167,-70,68
828,-15124,0,816,-4749,23,-174,-81,68
829,-15198,-12,744,-4747,23,-172,-81,78
830,-15224,-56,744,-4754,23,-173,-73,76
831,-15194,-20,706,-4744,23,-176,-72,70
832,-15100,-64,842,-4741,23,-178,-67,84
833,-15204,-26,794,-4749,23,-178,-78,71
834,-15154,-8,628,-4735,23,-175,-80,65
835,-15156,-2,800,-4736,23,-174,-76,65
836,-15184,-44,854,-4732,23,-177,-79,69
837,-15112,90,696,-4744,23,-174,-79,72
838,-15156,-26,716,-4746,23,-177,-77,75
839,-15128,18,678,-4740,23,-176,-71,72
840,-15094,-18,674,-4750,23,-175,-75,65
841,-15114,-30,778,-4743,23,-169,-77,73
842,-15266,0,938,-4746,23,-173,-67,74
843,-15260,-6,832,-4747,23,-177,-72,70
844,-15066,-18,704,-4752,23,-175,-78,70
845,-15128,20,754,-4751,23,-168,-78,65
846,-15160,-18,804,-4734,23,-168,-73,66
847,-15186,74,728,-4742,23,-166,-83,75
848,-15130,-24,704,-4746,23,-179,-75,67
849,-15168,12,652,-4743,23,-169,-78,79
850,-15092,-80,736,-4738,23,-164,-85,69
851,-15132,-12,792,-4742,23,-176,-73,70
852,-15170,-12,752,-4731,23,-172,-80,65
853,-15170,38,702,-4756,23,-177,-78,75
854,-15108,26,766,-4741,23,-180,-83,63
855,-15180,-28,818,-4747,23,-172,-86,73
856,-15168,-10,826,-4755,23,-179,-71,70
857,-15110,-66,852,-4737,23,-172,-75,74
858,-15150,-40,726,-4753,23,-185,-68,75
859,-15168,88,822,-4757,23,-169,-83,71
860,-15132,2,726,-4747,23,-168,-77,69
861,-15204,24,764,-4755,23,-169,-70,76
862,-15160,32,730,-4758,23,-181,-74,67
863,-15242,-4,752,-4753,23,-172,-79,77
864,-15116,-30,756,-4746,23,-176,-74,66
865,-15144,34,784,-4742,23,-167,-87,68
866,-15180,-98,702,-4732,23,-170,-70,69
867,-15164,-4,760,-4747,23,-175,-77,70
868,-15140,2,750,-4738,23,-175,-73,67
869,-15212,-38,846,-4740,23,-181,-77,62
870,-15154,-82,758,-4757,23,-169,-76,61
871,-15130,48,764,-4737,23,-175,-67,63
872,-15128,18,810,-4742,23,-174,-76,76
873,-15114,-38,736,-4725,23,-170,-72,64
874,-15234,-14,868,-4737,23,-166,-82,58
875,-15106,-20,856,-4759,23,-168,-75,66
876,-15174,-64,722,-4744,23,-167,-76,76
877,-15204,12,754,-4753,23,-170,-80,68
878,-15134,-34,668,-4749,23,-174,-80,67
879,-15124,-6,798,-4741,23,-179,-80,68
880,-15110,-30,804,-4749,23,-170,-71,71
881,-15176,-22,678,-4756,23,-176,-66,73
882,-15168,70,822,-4751,23,-176,-76,69
883,-15174,34,866,-4745,23,-173,-73,68
884,-15146,10,728,-4751,23,-177,-70,71
885,-15176,26,676,-4745,23,-175,-83,77
886,-15172,10,780,-4737,23,-180,-82,70
887,-15178,58,770,-4744,23,-175,-79,71
888,-15160,28,704,-4757,23,-163,-83,72
889,-15156,58,802,-4746,23,-185,-82,66
890,-15116,-90,782,-4738,23,-170,-85,75
891,-15228,18,782,-4748,23,-180,-79,67
892,-15192,-38,682,-4755,23,-169,-74,80
893,-15116,-64,762,-4738,23,-172,-75,61
894,-15200,-24,780,-4761,22,-173,-76,65
895,-15198,-72,712,-4728,23,-171,-77,65
896,-15132,-48,698,-4736,23,-172,-73,68
897,-15154,-10,696,-4750,23,-164,-80,71
898,-15178,-18,750,-4736,23,-175,-73,70
899,-15150,-58,730,-4740,23,-171,-80,69
900,-15184,2,708,-4746,23,-179,-76,67
901,-15204,60,788,-4754,23,-160,-76,74
902,-15220,-44,702,-4749,23,-170,-78,64
903,-15190,-26,662,-4744,23,-172,-76,71
904,-15086,-16,716,-4742,23,-171,-75,76
905,-15010,4,736,-4743,23,-174,-75,75
906,-15130,40,636,-4739,23,-170,-76,71
907,-15148,-42,876,-4739,23,-165,-71,76
908,-15128,-24,646,-4746,23,-174,-81,80
909,-15116,2,758,-4753,23,-176,-79,72
910,-15178,-112,640,-4739,23,-172,-79,71
911,-15128,12,902,-4746,23,-183,-85,67
912,-15178,-26,928,-4738,23,-162,-83,66
913,-15170,-12,838,-4748,23,-169,-78,66
914,-15176,24,600,-4749,23,-178,-76,72
915,-15160,22,644,-4755,23,-172,-84,70
916,-15162,-52,754,-4740,23,-178,-74,66
917,-15110,-18,848,-4740,23,-180,-78,73
918,-15166,54,730,-4739,23,-172,-76,72
919,-15172,58,696,-4739,23,-164,-83,78
920,-15162,10,826,-4740,23,-169,-80,74
921,-15154,-108,702,-4749,23,-173,-79,72
922,-15104,56,644,-4752,23,-166,-70,69
923,-15046,22,752,-4742,23,-178,-78,64
924,-15160,-28,662,-4753,23,-175,-83,65
925,-15186,-18,780,-4759,23,-172,-75,73
926,-15152,18,764,-4750,23,-175,-78,70
927,-15120,30,710,-4753,23,-180,-75,62
928,-15070,50,784,-4749,23,-174,-72,65
929,-15142,44,738,-4735,23,-169,-75,68
930,-15100,-72,716,-4750,23,-177,-82,74
931,-15262,30,740,-4752,23,-181,-72,73
932,-15106,16,608,-4754,23,-175,-64,73
933,-15196,22,624,-4738,23,-176,-87,69
934,-15196,0,812,-4749,23,-169,-72,69
935,-15190,-84,802,-4728,23,-175,-74,69
936,-15104,-40,706,-4741,23,-175,-83,71
937,-15124,66,840,-4737,23,-169,-75,72
938,-15136,-58,756,-4734,23,-168,-88,69
939,-15102,-4,802,-4744,23,-168,-77,78
940,-15142,-94,800,-4747,23,-167,-85,66
941,-15184,-16,834,-4746,23,-173,-70,67
942,-15158,44,656,-4752,23,-174,-73,71
943,-15108,26,856,-4751,23,-177,-69,71
944,-15170,-46,544,-4735,23,-177,-81,67
945,-15080,12,746,-4748,23,-178,-77,68
946,-15192,-36,766,-4743,23,-170,-74,73
947,-15102,8,726,-4748,23,-173,-78,70
948,-15210,26,694,-4746,23,-175,-80,71
949,-15100,-42,636,-4743,23,-165,-79,68
950,-15104,-38,780,-4751,23,-178,-75,64
951,-15104,40,804,-4741,23,-171,-71,65
952,-15190,-8,740,-4741,23,-179,-78,68
953,-15178,-64,680,-4766,22,-165,-77,71
954,-15114,-86,714,-4754,23,-169,-68,71
955,-15088,-24,786,-4749,23,-172,-75,64
956,-15184,10,810,-4747,23,-166,-76,69
957,-15136,-48,638,-4733,23,-175,-84,79
958,-15186,20,786,-4740,23,-172,-78,77
959,-15148,6,650,-4753,23,-169,-72,75
960,-15202,28,776,-4764,22,-175,-72,69
961,-15084,-34,776,-4742,23,-177,-83,77
962,-15162,-104,692,-4750,23,-172,-72,66
963,-15170,28,768,-4750,23,-175,-69,71
964,-15190,-24,728,-4745,23,-178,-76,76
965,-15094,-42,730,-4732,23,-174,-82,62
966,-15202,-4,660,-4738,23,-177,-64,69
967,-15186,-10,822,-4748,23,-170,-67,64
968,-15208,-92,734,-4744,23,-165,-72,64
969,-15166,20,800,-4741,23,-175,-78,69
970,-15136,-44,846,-4753,23,-164,-79,70
971,-15238,-44,792,-4741,23,-170,-92,68
972,-15192,-14,656,-4739,23,-178,-71,72
973,-15208,-34,860,-4752,23,-166,-65,66
974,-15206,-34,704,-4738,23,-174,-69,59
975,-15150,62,764,-4743,23,-166,-74,72
976,-15162,36,736,-4746,23,-179,-79,75
977,-15160,-68,810,-4733,23,-169,-78,70
978,-15200,-8,646,-4733,23,-182,-75,61
979,-15166,66,666,-4745,23,-176,-77,74
980,-15172,20,764,-4750,23,-173,-74,74
981,-15160,-14,684,-4750,23,-175,-74,65
982,-15200,52,646,-4750,23,-173,-78,67
983,-15158,42,558,-4740,23,-168,-81,62
984,-15182,-76,786,-4737,23,-170,-76,65
985,-15198,-42,710,-4719,23,-172,-67,77
986,-15132,6,782,-4753,23,-166,-83,64
987,-15176,2,730,-4746,23,-185,-71,70
988,-15138,10,838,-4734,23,-174,-84,66
989,-15204,40,684,-4742,23,-167,-71,70
990,-15106,26,646,-4750,23,-174,-70,75
991,-15184,-6,728,-4747,23,-172,-74,73
992,-15120,-54,746,-4735,23,-172,-75,77
993,-15208,-88,640,-4744,23,-176,-83,72
994,-15130,36,712,-4753,23,-174,-73,70
995,-15148,-62,762,-4748,23,-168,-71,66
996,-15162,-28,738,-4745,23,-179,-85,82
997,-15144,62,734,-4749,23,-180,-79,71
998,-15118,110,658,-4742,23,-172,-75,76
