,acc_X,acc_Y,acc_Z,temp,tempC,gyr_X,gyr_Y,gyr_Z
0,-3804,-4,168,-4702,23,-45,-19,16
1,-3801,-5,192,-4705,23,-42,-22,17
2,-3776,-11,171,-4700,23,-43,-21,19
3,-3801,7,183,-4692,23,-46,-21,17
4,-3803,-8,204,-4707,23,-42,-18,17
5,-3786,10,183,-4695,23,-43,-20,18
6,-3779,-2,180,-4699,23,-45,-20,18
7,-3794,-15,207,-4703,23,-43,-21,18
8,-3785,-8,194,-4693,23,-43,-21,18
9,-3790,3,182,-4700,23,-45,-19,16
10,-3785,10,179,-4701,23,-42,-19,16
11,-3808,0,182,-4703,23,-41,-20,18
12,-3784,-9,173,-4705,23,-44,-21,17
13,-3763,-2,178,-4716,23,-44,-19,17
14,-3781,-6,187,-4708,23,-43,-19,17
15,-3794,-12,193,-4708,23,-44,-19,17
16,-3783,-11,182,-4692,23,-44,-19,19
17,-3795,-2,181,-4703,23,-43,-20,17
18,-3792,-14,184,-4705,23,-42,-19,17
19,-3782,-15,205,-4705,23,-43,-19,15
20,-3791,-5,181,-4704,23,-42,-17,17
21,-3790,-12,194,-4699,23,-45,-18,17
22,-3780,-7,188,-4696,23,-44,-18,18
23,-3785,-5,207,-4707,23,-44,-21,17
24,-3792,-18,188,-4685,23,-43,-19,17
25,-3790,-7,176,-4707,23,-43,-19,16
26,-3797,-4,171,-4696,23,-43,-21,16
27,-3791,-2,174,-4693,23,-45,-21,17
28,-3799,10,196,-4703,23,-43,-19,16
29,-3778,-10,166,-4712,23,-44,-20,18
30,-3787,-5,181,-4701,23,-44,-21,17
31,-3783,-7,183,-4698,23,-45,-20,18
32,-3767,14,180,-4702,23,-46,-18,17
33,-3782,3,164,-4687,23,-44,-20,17
34,-3785,-4,209,-4700,23,-42,-18,18
35,-3789,-4,171,-4709,23,-44,-19,17
36,-3788,-7,171,-4704,23,-44,-19,17
37,-3778,-4,202,-4699,23,-45,-19,16
38,-3798,-8,206,-4695,23,-44,-21,17
39,-3784,14,185,-4698,23,-42,-19,16
40,-3780,4,180,-4696,23,-44,-22,17
41,-3787,5,193,-4695,23,-43,-19,19
42,-3797,-14,181,-4704,23,-45,-20,16
43,-3788,-15,193,-4705,23,-44,-18,16
44,-3784,14,191,-4702,23,-45,-19,18
45,-3786,0,208,-4703,23,-43,-19,17
46,-3790,-1,176,-4691,23,-43,-19,17
47,-3775,-12,188,-4697,23,-46,-20,16
48,-3793,10,185,-4703,23,-44,-19,17
49,-3777,-7,170,-4702,23,-42,-20,17
50,-3796,-7,185,-4697,23,-45,-19,17
51,-3791,11,184,-4703,23,-41,-19,16
52,-3780,0,190,-4694,23,-44,-20,17
53,-3786,-32,159,-4694,23,-44,-18,18
54,-3789,-18,200,-4700,23,-42,-21,18
55,-3784,-22,195,-4700,23,-43,-20,16
56,-3777,-4,165,-4708,23,-44,-21,16
57,-3788,-15,206,-4694,23,-42,-20,17
58,-3793,-8,158,-4694,23,-45,-18,15
59,-3783,4,192,-4706,23,-44,-18,17
60,-3784,-16,162,-4700,23,-44,-20,17
61,-3781,-22,177,-4705,23,-43,-20,17
62,-3773,-23,213,-4693,23,-42,-21,17
63,-3779,-6,205,-4705,23,-45,-19,18
64,-3790,1,188,-4722,23,-44,-18,16
65,-3784,-22,170,-4703,23,-44,-19,18
66,-3782,-5,203,-4703,23,-44,-19,17
67,-3785,-10,181,-4704,23,-45,-20,18
68,-3784,-2,170,-4701,23,-43,-18,18
69,-3781,-5,179,-4703,23,-45,-21,16
70,-3775,-3,181,-4702,23,-44,-19,16
71,-3784,-15,190,-4702,23,-42,-20,17
72,-3789,1,172,-4708,23,-44,-19,19
73,-3781,0,180,-4708,23,-45,-19,17
74,-3795,-6,179,-4695,23,-45,-19,18
75,-3788,-4,196,-4705,23,-43,-18,16
76,-3785,8,168,-4702,23,-45,-19,18
77,-3782,-4,175,-4700,23,-44,-19,17
78,-3783,6,178,-4695,23,-44,-19,17
79,-3785,-17,195,-4708,23,-44,-19,18
80,-3787,-5,185,-4708,23,-44,-18,16
81,-3803,0,187,-4710,23,-44,-20,17
82,-3787,14,179,-4699,23,-45,-20,16
83,-3789,6,182,-4691,23,-43,-19,17
84,-3804,-2,179,-4705,23,-43,-21,17
85,-3784,-10,181,-4705,23,-43,-20,16
86,-3784,-19,179,-4699,23,-44,-19,17
87,-3789,-6,204,-4700,23,-44,-20,17
88,-3796,0,173,-4698,23,-43,-20,16
89,-3778,-14,179,-4708,23,-43,-20,17
90,-3788,-1,193,-4695,23,-43,-20,15
91,-3790,7,198,-4697,23,-44,-19,17
92,-3793,-14,195,-4703,23,-45,-20,16
93,-3803,4,186,-4705,23,-43,-19,18
94,-3795,-14,172,-4702,23,-44,-19,17
95,-3795,7,182,-4709,23,-43,-20,17
96,-3783,8,187,-4705,23,-43,-20,16
97,-3792,-11,195,-4703,23,-45,-18,16
98,-3774,2,207,-4700,23,-44,-20,17
99,-3796,1,203,-4699,23,-44,-20,15
100,-3795,0,199,-4700,23,-45,-21,17
101,-3796,-3,192,-4707,23,-42,-19,16
102,-3785,-4,179,-4697,23,-44,-20,17
103,-3795,-8,202,-4702,23,-43,-19,19
104,-3773,2,183,-4702,23,-42,-19,17
105,-3792,-2,178,-4701,23,-44,-19,17
106,-3788,-9,166,-4697,23,-44,-20,17
107,-3795,-7,197,-4707,23,-43,-20,17
108,-3801,-7,191,-4699,23,-43,-20,18
109,-3797,-14,191,-4697,23,-42,-20,17
110,-3774,-20,200,-4692,23,-44,-19,17
111,-3797,-14,180,-4708,23,-43,-20,16
112,-3784,-6,201,-4698,23,-44,-19,17
113,-3787,-6,177,-4697,23,-44,-20,18
114,-3798,-18,177,-4706,23,-44,-20,17
115,-3802,-20,180,-4704,23,-44,-20,16
116,-3772,-3,170,-4697,23,-45,-20,18
117,-3782,10,188,-4702,23,-44,-22,18
118,-3791,8,202,-4699,23,-44,-19,17
119,-3790,-6,190,-4702,23,-43,-21,17
120,-3785,-7,201,-4699,23,-43,-20,20
121,-3784,-4,197,-4695,23,-44,-18,18
122,-3788,-16,203,-4704,23,-42,-20,16
123,-3794,-3,183,-4696,23,-44,-19,17
124,-3791,2,181,-4698,23,-43,-21,18
125,-3781,-13,180,-4709,23,-45,-18,16
126,-3799,-13,200,-4702,23,-43,-19,17
127,-3781,-1,195,-4700,23,-43,-19,18
128,-3778,-7,183,-4697,23,-45,-20,16
129,-3793,-6,182,-4693,23,-44,-19,17
130,-3806,4,180,-4706,23,-43,-20,17
131,-3793,1,206,-4687,23,-43,-22,17
132,-3791,-4,175,-4686,23,-44,-21,18
133,-3795,-10,173,-4702,23,-45,-19,17
134,-3773,4,162,-4697,23,-43,-20,16
135,-3789,5,188,-4690,23,-45,-18,18
136,-3781,10,197,-4694,23,-45,-21,19
137,-3778,8,225,-4698,23,-43,-20,16
138,-3792,-16,197,-4698,23,-46,-19,15
139,-3780,6,197,-4702,23,-44,-18,18
140,-3781,-6,176,-4697,23,-44,-20,16
141,-3784,-11,197,-4687,23,-45,-20,16
142,-3793,-10,181,-4705,23,-43,-19,16
143,-3796,-1,197,-4702,23,-44,-19,18
144,-3792,-9,194,-4692,23,-42,-19,17
145,-3790,-11,183,-4698,23,-42,-20,16
146,-3794,-4,202,-4692,23,-43,-19,18
147,-3781,-2,176,-4702,23,-44,-21,19
148,-3779,-9,189,-4704,23,-44,-20,17
149,-3793,-15,191,-4694,23,-45,-20,19
150,-3800,-1,172,-4697,23,-43,-19,17
151,-3781,-4,159,-4702,23,-44,-20,17
152,-3788,-12,183,-4688,23,-43,-18,18
153,-3775,-8,209,-4707,23,-44,-20,18
154,-3786,-9,195,-4707,23,-42,-20,18
155,-3783,-13,174,-4701,23,-43,-20,16
156,-3798,-6,197,-4702,23,-44,-19,17
157,-3786,4,192,-4698,23,-44,-18,16
158,-3795,-8,196,-4705,23,-44,-20,17
159,-3791,2,181,-4703,23,-43,-18,17
160,-3802,-12,189,-4694,23,-43,-18,18
161,-3796,-9,176,-4691,23,-45,-20,16
162,-3769,0,190,-4698,23,-43,-19,17
163,-3776,-1,180,-4710,23,-43,-19,16
164,-3789,1,194,-4700,23,-45,-18,16
165,-3778,-2,170,-4692,23,-42,-20,16
166,-3788,-13,187,-4707,23,-45,-21,17
167,-3790,-10,174,-4706,23,-43,-19,19
168,-3773,-3,178,-4707,23,-43,-19,16
169,-3791,-10,184,-4704,23,-44,-19,17
170,-3784,-6,177,-4704,23,-44,-19,17
171,-3777,2,196,-4691,23,-44,-19,15
172,-3783,-9,188,-4701,23,-45,-21,16
173,-3791,-2,185,-4690,23,-45,-21,17
174,-3771,6,163,-4696,23,-43,-19,19
175,-3780,-5,212,-4707,23,-43,-21,14
176,-3797,4,180,-4694,23,-43,-20,17
177,-3782,7,188,-4701,23,-44,-19,15
178,-3804,13,185,-4700,23,-43,-21,18
179,-3797,-2,172,-4701,23,-43,-18,18
180,-3788,-6,164,-4697,23,-45,-20,18
181,-3777,-10,182,-4705,23,-44,-21,16
182,-3797,-12,193,-4703,23,-44,-19,16
183,-3786,-3,182,-4704,23,-44,-21,18
184,-3777,-2,187,-4698,23,-42,-21,17
185,-3785,-10,208,-4705,23,-45,-20,17
186,-3791,-3,165,-4699,23,-45,-20,16
187,-3793,-8,197,-4698,23,-44,-19,17
188,-3778,7,183,-4705,23,-43,-18,18
189,-3784,-5,199,-4697,23,-43,-21,17
190,-3798,-4,180,-4698,23,-44,-20,18
191,-3799,2,174,-4711,23,-44,-19,18
192,-3796,4,179,-4715,23,-44,-21,17
193,-3782,-7,190,-4697,23,-44,-19,17
194,-3793,-9,187,-4699,23,-45,-20,18
195,-3774,-13,180,-4696,23,-44,-20,18
196,-3784,-9,173,-4704,23,-43,-22,17
197,-3780,-2,165,-4693,23,-44,-20,16
198,-3784,-10,176,-4710,23,-44,-18,16
199,-3800,-1,203,-4695,23,-42,-20,17
200,-3777,12,182,-4690,23,-43,-20,18
201,-3801,-13,196,-4693,23,-44,-19,18
202,-3801,-4,188,-4694,23,-43,-21,17
203,-3788,-14,186,-4700,23,-43,-19,17
204,-3811,-1,188,-4703,23,-44,-20,17
205,-3779,-23,201,-4708,23,-43,-20,18
206,-3802,-8,193,-4702,23,-45,-20,17
207,-3782,3,193,-4693,23,-43,-21,19
208,-3783,-24,205,-4704,23,-44,-19,16
209,-3777,-20,195,-4706,23,-44,-20,19
210,-3785,-23,184,-4700,23,-43,-17,17
211,-3784,-12,190,-4715,23,-45,-20,17
212,-3793,-5,182,-4706,23,-44,-19,17
213,-3796,-3,186,-4706,23,-43,-19,18
214,-3789,-15,173,-4710,23,-44,-20,18
215,-3787,-7,196,-4691,23,-43,-20,18
216,-3779,10,168,-4700,23,-43,-23,18
217,-3788,-5,193,-4694,23,-44,-19,18
218,-3796,-16,183,-4698,23,-43,-20,17
219,-3766,-12,208,-4689,23,-43,-20,17
220,-3784,-10,194,-4706,23,-44,-20,17
221,-3779,-19,174,-4709,23,-45,-19,15
222,-3789,-4,157,-4691,23,-44,-19,16
223,-3776,3,213,-4696,23,-44,-20,18
224,-3793,1,171,-4699,23,-46,-21,16
225,-3784,-3,182,-4704,23,-45,-19,17
226,-3794,22,183,-4700,23,-43,-20,17
227,-3775,-4,169,-4700,23,-43,-18,17
228,-3784,-8,180,-4707,23,-44,-20,16
229,-3782,-7,184,-4694,23,-43,-20,16
230,-3783,-14,194,-4704,23,-44,-18,17
231,-3798,9,174,-4710,23,-44,-20,18
232,-3797,-5,165,-4706,23,-42,-20,18
233,-3779,5,208,-4707,23,-45,-21,18
234,-3812,9,187,-4700,23,-43,-17,17
235,-3780,3,173,-4698,23,-45,-19,17
236,-3790,-3,193,-4694,23,-44,-18,17
237,-3799,-9,176,-4711,23,-44,-18,16
238,-3800,7,166,-4691,23,-43,-21,15
239,-3795,-5,177,-4701,23,-43,-19,16
240,-3779,-5,176,-4693,23,-44,-20,18
241,-3797,6,162,-4699,23,-44,-20,17
242,-3780,5,181,-4699,23,-43,-19,17
243,-3785,-9,194,-4691,23,-42,-20,15
244,-3784,-18,180,-4690,23,-43,-18,17
245,-3786,6,190,-4696,23,-44,-20,16
246,-3790,-7,188,-4690,23,-44,-21,17
247,-3778,-20,177,-4695,23,-42,-18,18
248,-3771,-5,197,-4703,23,-44,-19,17
249,-3788,-4,186,-4698,23,-45,-19,17
250,-3797,-7,194,-4700,23,-45,-21,17
251,-3784,-5,181,-4702,23,-44,-20,18
252,-3792,2,190,-4699,23,-44,-20,16
253,-3779,-3,183,-4695,23,-46,-20,17
254,-3784,2,213,-4696,23,-44,-19,16
255,-3779,-7,193,-4691,23,-44,-20,16
256,-3791,-16,180,-4692,23,-42,-19,16
257,-3792,2,191,-4696,23,-42,-21,16
258,-3786,-9,183,-4697,23,-43,-19,16
259,-3803,-8,193,-4684,23,-44,-20,18
260,-3791,-7,192,-4696,23,-44,-18,17
261,-3785,-14,177,-4701,23,-44,-18,17
262,-3787,-3,169,-4702,23,-43,-19,18
263,-3789,-2,205,-4702,23,-44,-19,18
264,-3786,-9,205,-4699,23,-43,-21,16
265,-3791,-11,202,-4699,23,-45,-19,17
266,-3805,-7,187,-4706,23,-44,-21,19
267,-3780,-8,209,-4707,23,-44,-20,16
268,-3788,11,190,-4694,23,-44,-19,16
269,-3791,0,174,-4704,23,-43,-21,17
270,-3791,-8,205,-4708,23,-43,-21,18
271,-3796,-15,193,-4701,23,-43,-19,17
272,-3780,9,183,-4705,23,-44,-21,17
273,-3783,-4,162,-4691,23,-45,-20,15
274,-3802,4,185,-4706,23,-44,-19,17
275,-3811,-23,199,-4706,23,-44,-20,17
276,-3794,-19,145,-4701,23,-43,-19,17
277,-3775,-5,191,-4697,23,-44,-18,16
278,-3787,-1,174,-4696,23,-44,-19,17
279,-3787,8,214,-4705,23,-44,-21,18
280,-3776,-8,208,-4702,23,-44,-18,17
281,-3792,-12,189,-4703,23,-44,-19,15
282,-3779,-2,188,-4689,23,-45,-19,18
283,-3788,-7,154,-4697,23,-44,-18,16
284,-3780,-6,185,-4700,23,-45,-18,17
285,-3792,4,185,-4693,23,-44,-21,17
286,-3792,-8,170,-4690,23,-43,-18,18
287,-3788,0,183,-4700,23,-44,-19,17
288,-3782,-3,190,-4694,23,-43,-20,17
289,-3782,8,209,-4698,23,-46,-20,16
290,-3778,-6,177,-4696,23,-45,-19,16
291,-3805,-8,190,-4705,23,-43,-21,17
292,-3788,-3,193,-4687,23,-43,-20,16
293,-3793,4,193,-4703,23,-42,-21,19
294,-3792,-16,205,-4703,23,-43,-19,17
295,-3782,-5,168,-4703,23,-45,-19,16
296,-3774,7,165,-4697,23,-44,-20,17
297,-3793,-5,196,-4697,23,-43,-19,18
298,-3778,-8,188,-4697,23,-45,-19,17
299,-3785,-9,206,-4703,23,-43,-21,17
300,-3781,13,208,-4699,23,-43,-19,17
301,-3792,-3,193,-4694,23,-44,-18,18
302,-3793,-7,187,-4692,23,-44,-21,16
303,-3773,-17,201,-4707,23,-43,-20,19
304,-3791,-2,187,-4707,23,-44,-18,18
305,-3779,1,183,-4693,23,-44,-20,18
306,-3776,-5,191,-4697,23,-43,-20,17
307,-3778,-2,181,-4694,23,-43,-19,18
308,-3781,4,191,-4705,23,-43,-19,17
309,-3782,7,214,-4693,23,-45,-18,17
310,-3802,-12,195,-4694,23,-42,-19,19
311,-3794,0,194,-4687,23,-46,-20,18
312,-3801,-9,189,-4693,23,-45,-21,17
313,-3798,7,161,-4699,23,-44,-19,16
314,-3793,5,177,-4695,23,-43,-20,17
315,-3783,-3,194,-4707,23,-43,-21,16
316,-3801,2,194,-4711,23,-44,-21,18
317,-3802,-4,193,-4712,23,-44,-19,17
318,-3791,1,202,-4699,23,-42,-22,16
319,-3792,3,197,-4708,23,-44,-21,19
320,-3785,-17,178,-4698,23,-44,-19,18
321,-3787,-9,170,-4693,23,-44,-20,17
322,-3785,-11,192,-4695,23,-44,-19,18
323,-3783,-4,192,-4710,23,-44,-20,16
324,-3777,-17,173,-4699,23,-44,-21,15
325,-3789,1,168,-4690,23,-44,-20,17
326,-3777,3,197,-4704,23,-43,-19,18
327,-3785,-15,179,-4699,23,-44,-19,18
328,-3787,-14,200,-4695,23,-45,-19,18
329,-3782,-13,185,-4701,23,-45,-20,17
330,-3784,0,191,-4706,23,-43,-18,16
331,-3791,14,176,-4704,23,-44,-18,17
332,-3792,0,187,-4699,23,-43,-19,16
333,-3801,8,201,-4697,23,-42,-20,16
334,-3797,-7,169,-4695,23,-45,-18,17
335,-3791,-6,189,-4694,23,-44,-19,17
336,-3784,1,197,-4705,23,-44,-18,15
337,-3791,-12,178,-4696,23,-45,-19,17
338,-3796,13,207,-4702,23,-42,-19,18
339,-3785,0,200,-4697,23,-44,-19,18
340,-3783,1,167,-4692,23,-43,-20,15
341,-3787,-22,183,-4707,23,-44,-18,18
342,-3783,0,170,-4700,23,-43,-19,16
343,-3781,-4,192,-4704,23,-44,-20,18
344,-3796,4,202,-4685,23,-45,-21,16
345,-3775,1,152,-4702,23,-43,-19,17
346,-3770,-6,184,-4701,23,-43,-19,17
347,-3798,-1,166,-4695,23,-43,-20,16
348,-3802,-7,201,-4708,23,-44,-19,17
349,-3792,-12,201,-4698,23,-43,-19,16
350,-3787,4,192,-4702,23,-43,-20,18
351,-3781,-15,199,-4692,23,-45,-20,16
352,-3797,-4,180,-4700,23,-43,-20,18
353,-3798,4,185,-4697,23,-44,-19,17
354,-3787,-16,183,-4713,23,-44,-20,19
355,-3798,-2,180,-4694,23,-42,-21,16
356,-3791,0,179,-4696,23,-43,-18,18
357,-3802,10,187,-4698,23,-43,-20,18
358,-3804,-1,173,-4691,23,-43,-19,19
359,-3784,11,184,-4712,23,-45,-19,18
360,-3784,14,155,-4704,23,-44,-19,17
361,-3781,-4,192,-4695,23,-45,-18,17
362,-3777,-8,201,-4700,23,-43,-19,18
363,-3780,7,194,-4704,23,-44,-19,17
364,-3795,-12,183,-4695,23,-45,-21,18
365,-3778,2,202,-4704,23,-45,-19,19
366,-3784,7,214,-4697,23,-43,-19,17
367,-3778,-2,207,-4697,23,-43,-20,17
368,-3791,-11,180,-4703,23,-44,-20,17
369,-3802,8,205,-4701,23,-43,-20,18
370,-3789,-3,172,-4698,23,-44,-21,17
371,-3783,1,192,-4706,23,-43,-20,16
372,-3790,-3,177,-4702,23,-44,-21,18
373,-3798,5,176,-4692,23,-44,-20,17
374,-3792,-8,202,-4704,23,-44,-20,17
375,-3797,-6,169,-4695,23,-44,-19,16
376,-3783,1,176,-4698,23,-44,-21,16
377,-3776,-1,193,-4701,23,-43,-21,18
378,-3791,-8,212,-4699,23,-44,-20,16
379,-3791,-6,177,-4705,23,-43,-20,17
380,-3800,5,186,-4703,23,-44,-19,17
381,-3778,-3,185,-4703,23,-41,-20,18
382,-3797,8,178,-4703,23,-42,-20,18
383,-3778,-12,194,-4701,23,-46,-19,18
384,-3789,-10,169,-4710,23,-45,-21,16
385,-3783,-5,209,-4705,23,-45,-18,18
386,-3788,3,201,-4701,23,-45,-18,17
387,-3803,1,172,-4701,23,-44,-22,16
388,-3790,-3,158,-4695,23,-43,-20,16
389,-3792,0,184,-4701,23,-44,-21,19
390,-3783,14,202,-4691,23,-43,-22,16
391,-3798,4,195,-4697,23,-45,-20,17
392,-3790,1,186,-4699,23,-43,-20,17
393,-3787,6,182,-4705,23,-41,-18,17
394,-3777,-9,206,-4694,23,-46,-18,18
395,-3799,-6,195,-4703,23,-44,-20,17
396,-3780,-8,192,-4699,23,-45,-18,18
397,-3790,-14,197,-4707,23,-45,-18,18
398,-3786,-7,166,-4706,23,-45,-19,18
399,-3804,-2,187,-4701,23,-43,-19,18
400,-3792,-6,174,-4705,23,-44,-20,15
401,-3773,1,185,-4703,23,-45,-20,16
402,-3794,-4,200,-4696,23,-42,-19,16
403,-3780,10,177,-4689,23,-45,-19,17
404,-3794,-15,195,-4699,23,-44,-20,18
405,-3800,-5,169,-4697,23,-43,-20,18
406,-3796,-7,158,-4699,23,-44,-20,18
407,-3795,-3,185,-4706,23,-43,-21,16
408,-3791,-12,171,-4690,23,-44,-21,17
409,-3798,-9,171,-4698,23,-44,-19,18
410,-3785,-14,169,-4704,23,-44,-20,18
411,-3798,4,162,-4701,23,-43,-18,17
412,-3790,-5,179,-4694,23,-45,-20,17
413,-3795,19,173,-4699,23,-44,-19,19
414,-3780,-12,182,-4694,23,-44,-21,17
415,-3780,10,187,-4687,23,-43,-19,19
416,-3779,-3,202,-4691,23,-43,-18,18
417,-3793,10,169,-4701,23,-43,-20,17
418,-3789,-10,191,-4692,23,-44,-19,17
419,-3803,1,182,-4691,23,-46,-19,18
420,-3782,-2,199,-4702,23,-42,-20,17
421,-3782,-21,174,-4698,23,-43,-18,17
422,-3795,-7,187,-4700,23,-44,-18,18
423,-3782,0,192,-4682,23,-44,-19,18
424,-3790,-17,174,-4691,23,-43,-18,16
425,-3783,-8,164,-4701,23,-43,-19,16
426,-3792,-15,188,-4697,23,-43,-20,19
427,-3787,-4,211,-4698,23,-45,-21,16
428,-3785,-22,172,-4704,23,-44,-22,16
429,-3788,2,192,-4700,23,-43,-18,17
430,-3791,4,179,-4693,23,-43,-21,18
431,-3780,-9,208,-4694,23,-43,-18,17
432,-3790,-7,171,-4697,23,-44,-20,17
433,-3785,-9,181,-4700,23,-44,-19,16
434,-3786,-13,171,-4694,23,-45,-19,16
435,-3771,9,190,-4684,23,-43,-20,19
436,-3781,8,188,-4704,23,-44,-19,16
437,-3778,1,192,-4704,23,-45,-18,17
438,-3784,-5,187,-4693,23,-44,-21,16
439,-3783,7,179,-4696,23,-43,-20,16
440,-3790,-2,200,-4697,23,-44,-21,16
441,-3787,10,187,-4699,23,-43,-19,17
442,-3797,9,188,-4705,23,-43,-20,17
443,-3781,-7,196,-4704,23,-43,-21,16
444,-3791,9,196,-4697,23,-44,-18,17
445,-3788,-6,198,-4695,23,-45,-20,17
446,-3774,-9,180,-4691,23,-43,-19,19
447,-3784,2,173,-4709,23,-45,-20,17
448,-3786,7,186,-4698,23,-44,-19,17
449,-3786,4,192,-4699,23,-42,-20,19
450,-3798,-8,193,-4696,23,-44,-19,16
451,-3782,-16,176,-4694,23,-43,-20,17
452,-3773,-7,191,-4693,23,-45,-21,17
453,-3796,-14,178,-4700,23,-42,-19,18
454,-3777,-8,187,-4694,23,-44,-20,18
455,-3807,-15,210,-4686,23,-45,-20,17
456,-3795,4,194,-4695,23,-45,-21,16
457,-3790,1,175,-4688,23,-43,-19,18
458,-3774,-25,209,-4690,23,-44,-17,17
459,-3792,0,201,-4698,23,-44,-20,17
460,-3789,-9,193,-4693,23,-44,-19,18
461,-3797,-4,189,-4691,23,-44,-19,18
462,-3774,-11,178,-4713,23,-43,-20,18
463,-3776,-9,204,-4684,23,-45,-18,17
464,-3786,-5,190,-4694,23,-43,-20,17
465,-3797,0,188,-4693,23,-46,-18,17
466,-3774,-10,188,-4706,23,-42,-19,16
467,-3793,-6,184,-4692,23,-43,-21,15
468,-3772,-3,200,-4695,23,-43,-21,17
469,-3786,3,187,-4701,23,-44,-20,17
470,-3793,8,179,-4687,23,-43,-21,17
471,-3781,13,176,-4683,23,-44,-19,17
472,-3814,-3,190,-4709,23,-43,-18,17
473,-3800,-15,179,-4701,23,-43,-19,17
474,-3776,5,196,-4695,23,-45,-18,17
475,-3792,-7,169,-4701,23,-43,-21,18
476,-3795,0,183,-4702,23,-43,-20,16
477,-3787,9,163,-4686,23,-41,-20,17
478,-3783,3,177,-4698,23,-44,-20,17
479,-3789,-10,189,-4708,23,-43,-19,17
480,-3795,-11,173,-4693,23,-43,-21,17
481,-3784,-17,178,-4696,23,-43,-21,17
482,-3775,1,203,-4702,23,-45,-20,18
483,-3781,-10,187,-4697,23,-44,-19,17
484,-3791,-7,182,-4693,23,-42,-19,18
485,-3795,-12,170,-4693,23,-44,-19,18
486,-3783,1,191,-4694,23,-45,-19,17
487,-3787,-9,172,-4703,23,-44,-21,17
488,-3775,-2,198,-4693,23,-44,-20,17
489,-3782,-2,206,-4691,23,-43,-20,16
490,-3789,-4,180,-4691,23,-43,-19,17
491,-3783,-1,200,-4693,23,-45,-20,16
492,-3775,-5,192,-4690,23,-44,-20,17
493,-3797,1,194,-4693,23,-44,-20,17
494,-3791,-5,160,-4692,23,-44,-18,17
495,-3778,-9,167,-4696,23,-43,-19,18
496,-3793,-13,201,-4700,23,-44,-18,17
497,-3792,-5,193,-4694,23,-44,-21,15
498,-3792,-8,197,-4704,23,-41,-20,16
499,-3779,0,199,-4689,23,-44,-21,18
500,-3793,-5,165,-4700,23,-44,-20,16
501,-3778,0,190,-4698,23,-42,-19,19
502,-3783,0,199,-4685,23,-43,-18,16
503,-3791,-11,179,-4702,23,-45,-19,16
504,-3774,-23,200,-4697,23,-42,-21,16
505,-3796,6,168,-4692,23,-44,-20,17
506,-3779,-6,167,-4695,23,-43,-20,17
507,-3786,11,199,-4693,23,-43,-19,17
508,-3778,-11,176,-4704,23,-45,-19,17
509,-3794,5,190,-4702,23,-43,-20,15
510,-3784,-1,183,-4695,23,-45,-20,16
511,-3788,-2,192,-4709,23,-45,-20,16
512,-3792,0,185,-4688,23,-44,-21,16
513,-3800,1,173,-4689,23,-43,-19,17
514,-3789,-2,168,-4698,23,-44,-20,16
515,-3785,-4,186,-4682,23,-43,-21,15
516,-3791,0,177,-4691,23,-44,-21,18
517,-3776,-2,188,-4701,23,-43,-19,17
518,-3788,-4,203,-4697,23,-42,-20,17
519,-3788,-4,187,-4699,23,-44,-20,18
520,-3772,12,167,-4698,23,-44,-19,17
521,-3793,-22,184,-4692,23,-42,-20,18
522,-3784,-5,198,-4692,23,-44,-20,19
523,-3787,-2,174,-4683,23,-44,-20,16
524,-3806,-9,190,-4694,23,-43,-18,16
525,-3807,-9,188,-4696,23,-43,-20,17
526,-3776,-10,209,-4700,23,-43,-21,17
527,-3791,-17,211,-4689,23,-45,-19,18
528,-3779,-5,195,-4696,23,-44,-20,18
529,-3793,3,209,-4699,23,-44,-21,17
530,-3794,-11,172,-4703,23,-43,-19,18
531,-3798,12,203,-4694,23,-45,-18,16
532,-3791,-11,167,-4689,23,-43,-20,17
533,-3780,-5,181,-4685,23,-43,-19,17
534,-3776,-25,199,-4689,23,-44,-20,17
535,-3799,-6,165,-4690,23,-44,-19,18
536,-3791,3,174,-4686,23,-44,-18,17
537,-3809,-1,171,-4695,23,-44,-19,18
538,-3802,0,181,-4687,23,-44,-21,17
539,-3781,-14,175,-4690,23,-44,-21,17
540,-3814,-4,196,-4689,23,-44,-20,18
541,-3782,-7,178,-4694,23,-44,-21,18
542,-3787,1,187,-4691,23,-43,-18,16
543,-3790,-12,177,-4690,23,-44,-20,17
544,-3802,2,184,-4698,23,-43,-19,16
545,-3786,2,201,-4697,23,-44,-20,17
546,-3784,-19,161,-4687,23,-45,-21,16
547,-3776,2,184,-4700,23,-43,-21,18
548,-3794,7,171,-4693,23,-44,-20,17
549,-3787,-26,183,-4692,23,-44,-20,16
550,-3786,-19,179,-4699,23,-43,-19,19
551,-3816,-5,180,-4689,23,-46,-18,16
552,-3789,0,190,-4693,23,-43,-21,18
553,-3803,-6,167,-4698,23,-43,-20,17
554,-3788,-8,179,-4694,23,-45,-19,16
555,-3797,6,194,-4690,23,-44,-20,18
556,-3797,11,179,-4704,23,-44,-20,16
557,-3792,-4,186,-4701,23,-45,-19,18
558,-3785,-14,192,-4693,23,-45,-21,16
559,-3784,-21,161,-4702,23,-43,-21,16
560,-3790,0,183,-4687,23,-45,-22,17
561,-3780,-15,190,-4697,23,-42,-20,17
562,-3796,4,183,-4688,23,-44,-19,17
563,-3790,-1,179,-4698,23,-43,-17,19
564,-3790,-1,175,-4683,23,-45,-20,17
565,-3796,-13,187,-4701,23,-43,-19,17
566,-3780,-15,179,-4693,23,-44,-20,17
567,-3787,-7,181,-4695,23,-43,-18,16
568,-3802,-11,185,-4695,23,-43,-19,17
569,-3792,5,178,-4694,23,-44,-20,16
570,-3782,-6,185,-4703,23,-44,-20,18
571,-3802,5,178,-4697,23,-43,-20,18
572,-3784,-7,174,-4693,23,-44,-20,18
573,-3781,4,195,-4691,23,-41,-19,17
574,-3777,2,210,-4702,23,-45,-20,16
575,-3788,-16,201,-4696,23,-43,-19,18
576,-3793,-4,175,-4699,23,-44,-20,17
577,-3789,2,184,-4695,23,-43,-19,15
578,-3782,8,182,-4695,23,-44,-20,18
579,-3782,3,189,-4694,23,-43,-22,16
580,-3776,1,193,-4688,23,-44,-18,17
581,-3786,-4,199,-4691,23,-41,-21,15
582,-3794,6,213,-4695,23,-43,-20,17
583,-3781,-11,166,-4692,23,-45,-20,16
584,-3799,-4,183,-4701,23,-42,-21,17
585,-3790,-19,207,-4689,23,-44,-20,17
586,-3800,-5,184,-4686,23,-44,-21,19
587,-3789,-6,201,-4688,23,-45,-19,17
588,-3777,-13,210,-4690,23,-43,-20,18
589,-3787,-7,192,-4697,23,-43,-19,16
590,-3791,-13,206,-4688,23,-43,-21,17
591,-3784,0,157,-4691,23,-46,-20,17
592,-3778,-10,180,-4692,23,-43,-20,17
593,-3800,-5,168,-4694,23,-44,-18,18
594,-3792,5,172,-4698,23,-42,-19,17
595,-3779,-1,184,-4700,23,-43,-19,18
596,-3791,5,172,-4698,23,-44,-20,16
597,-3787,-8,213,-4701,23,-46,-20,19
598,-3787,4,175,-4703,23,-44,-20,17
599,-3774,-7,184,-4692,23,-42,-20,17
600,-3777,1,186,-4693,23,-44,-19,16
601,-3778,-17,203,-4697,23,-44,-20,18
602,-3789,5,198,-4701,23,-43,-20,17
603,-3793,-7,179,-4689,23,-44,-21,16
604,-3786,-10,171,-4698,23,-45,-18,16
605,-3796,0,183,-4703,23,-42,-21,17
606,-3802,4,169,-4697,23,-44,-19,17
607,-3785,2,189,-4695,23,-45,-19,16
608,-3789,-11,195,-4696,23,-45,-19,17
609,-3786,-11,172,-4698,23,-43,-20,17
610,-3789,4,195,-4689,23,-44,-19,18
611,-3791,-5,180,-4688,23,-44,-20,17
612,-3772,-18,186,-4692,23,-43,-20,18
613,-3771,5,191,-4698,23,-44,-20,17
614,-3787,-2,160,-4699,23,-43,-19,16
615,-3778,3,205,-4698,23,-43,-20,18
616,-3794,1,202,-4689,23,-45,-18,17
617,-3800,-1,196,-4694,23,-44,-22,16
618,-3776,-3,185,-4692,23,-44,-19,17
619,-3778,-18,187,-4693,23,-44,-20,17
620,-3795,-2,177,-4688,23,-43,-21,17
621,-3801,4,147,-4698,23,-43,-22,19
622,-3790,5,187,-4686,23,-46,-20,18
623,-3793,1,170,-4695,23,-44,-20,18
624,-3777,-10,193,-4698,23,-43,-21,17
625,-3784,-10,194,-4696,23,-43,-20,16
626,-3799,-11,179,-4694,23,-41,-20,16
627,-3791,10,199,-4691,23,-43,-20,17
628,-3793,-2,198,-4690,23,-44,-18,17
629,-3777,-7,179,-4686,23,-43,-21,18
630,-3806,-2,200,-4691,23,-46,-18,16
631,-3785,1,191,-4693,23,-45,-19,18
632,-3796,-17,185,-4695,23,-43,-20,15
633,-3795,-4,186,-4707,23,-42,-19,17
634,-3795,0,195,-4689,23,-44,-19,16
635,-3784,1,181,-4700,23,-44,-18,16
636,-3780,-12,200,-4703,23,-45,-19,16
637,-3787,3,172,-4689,23,-45,-19,16
638,-3794,-13,165,-4694,23,-44,-20,16
639,-3790,-9,197,-4695,23,-44,-20,17
640,-3788,-4,206,-4697,23,-43,-20,17
641,-3782,7,170,-4706,23,-44,-19,18
642,-3801,-9,159,-4683,23,-45,-20,16
643,-3789,2,212,-4687,23,-43,-20,16
644,-3795,8,191,-4696,23,-44,-18,17
645,-3778,-16,197,-4684,23,-45,-21,17
646,-3787,-14,194,-4692,23,-44,-17,16
647,-3797,-16,183,-4693,23,-45,-19,17
648,-3779,-14,183,-4699,23,-44,-19,17
649,-3783,11,190,-4704,23,-44,-20,19
650,-3805,3,182,-4691,23,-44,-21,17
651,-3793,1,185,-4693,23,-44,-21,17
652,-3771,-12,192,-4686,23,-45,-20,17
653,-3782,0,191,-4696,23,-41,-19,17
654,-3796,18,178,-4690,23,-44,-20,17
655,-3804,7,176,-4694,23,-43,-18,18
656,-3797,-7,154,-4696,23,-44,-19,16
657,-3794,9,193,-4698,23,-44,-20,19
658,-3783,0,182,-4700,23,-45,-21,18
659,-3800,4,195,-4691,23,-42,-20,16
660,-3790,-5,173,-4704,23,-46,-20,17
661,-3797,5,178,-4701,23,-44,-18,18
662,-3798,-5,196,-4699,23,-45,-19,18
663,-3779,-20,216,-4701,23,-44,-22,16
664,-3804,1,182,-4690,23,-44,-20,17
665,-3780,7,180,-4700,23,-45,-19,18
666,-3785,-10,176,-4693,23,-43,-20,17
667,-3792,-2,187,-4704,23,-44,-20,18
668,-3781,-9,195,-4703,23,-45,-19,17
669,-3787,-14,184,-4706,23,-44,-18,17
670,-3787,-6,161,-4700,23,-46,-19,17
671,-3787,-15,187,-4695,23,-44,-19,17
672,-3781,-8,176,-4697,23,-43,-20,18
673,-3782,-1,173,-4693,23,-41,-19,18
674,-3783,-8,193,-4698,23,-44,-20,18
675,-3798,4,179,-4692,23,-42,-18,17
676,-3778,2,191,-4689,23,-42,-19,16
677,-3779,4,186,-4680,23,-42,-19,17
678,-3784,6,189,-4688,23,-43,-20,18
679,-3806,-17,164,-4700,23,-44,-20,18
680,-3790,1,195,-4699,23,-42,-22,17
681,-3784,-20,186,-4702,23,-44,-20,17
682,-3784,-6,199,-4698,23,-43,-19,19
683,-3799,4,192,-4704,23,-45,-21,19
684,-3778,9,181,-4693,23,-44,-19,18
685,-3798,9,216,-4699,23,-44,-20,17
686,-3802,-10,189,-4693,23,-45,-18,16
687,-3774,7,169,-4691,23,-44,-18,18
688,-3780,1,185,-4694,23,-43,-18,18
689,-3781,5,169,-4696,23,-46,-21,17
690,-3775,-3,192,-4704,23,-43,-18,18
691,-3793,6,186,-4694,23,-45,-19,19
692,-3793,-4,185,-4696,23,-43,-21,17
693,-3784,2,194,-4696,23,-42,-20,16
694,-3783,-4,170,-4702,23,-44,-19,17
695,-3789,-4,201,-4701,23,-43,-20,17
696,-3783,5,186,-4706,23,-44,-21,16
697,-3787,6,178,-4697,23,-43,-19,18
698,-3797,-6,182,-4693,23,-45,-19,17
699,-3776,6,206,-4696,23,-42,-20,16
700,-3789,3,175,-4693,23,-44,-18,17
701,-3786,5,179,-4692,23,-44,-19,18
702,-3786,-5,196,-4691,23,-41,-21,17
703,-3792,9,179,-4695,23,-43,-20,17
704,-3776,-5,189,-4707,23,-43,-21,18
705,-3789,-3,161,-4704,23,-43,-21,16
706,-3789,1,166,-4700,23,-42,-19,15
707,-3784,10,183,-4693,23,-45,-19,17
708,-3791,-4,204,-4704,23,-44,-20,17
709,-3799,4,210,-4699,23,-45,-20,17
710,-3786,-3,187,-4694,23,-46,-21,17
711,-3801,-8,173,-4698,23,-44,-20,18
712,-3784,-11,209,-4696,23,-43,-20,17
713,-3793,-3,183,-4698,23,-44,-20,17
714,-3784,1,199,-4701,23,-42,-20,16
715,-3785,-5,197,-4702,23,-43,-20,16
716,-3779,-5,175,-4687,23,-43,-20,18
717,-3787,-11,212,-4694,23,-45,-20,18
718,-3777,-20,188,-4692,23,-44,-19,17
719,-3797,-18,182,-4696,23,-44,-21,17
720,-3803,9,193,-4687,23,-44,-20,17
721,-3788,-3,183,-4679,23,-43,-20,18
722,-3792,-4,168,-4694,23,-43,-20,16
723,-3786,2,179,-4697,23,-43,-19,18
724,-3795,-1,204,-4692,23,-44,-20,16
725,-3785,-1,184,-4693,23,-41,-21,18
726,-3794,4,184,-4693,23,-44,-19,18
727,-3789,-5,190,-4694,23,-44,-19,17
728,-3803,-13,192,-4692,23,-43,-19,17
729,-3790,-14,188,-4702,23,-43,-19,18
730,-3783,7,205,-4694,23,-44,-21,16
731,-3806,-12,186,-4705,23,-43,-20,17
732,-3780,13,192,-4696,23,-46,-19,16
733,-3783,2,176,-4704,23,-44,-19,18
734,-3792,7,190,-4705,23,-43,-20,16
735,-3804,-16,196,-4694,23,-45,-20,16
736,-3796,3,181,-4698,23,-44,-19,17
737,-3770,-5,186,-4690,23,-44,-19,16
738,-3775,0,165,-4699,23,-44,-19,17
739,-3789,-4,191,-4695,23,-42,-20,17
740,-3799,-4,202,-4694,23,-43,-20,17
741,-3796,8,175,-4697,23,-45,-19,16
742,-3775,4,192,-4695,23,-45,-19,17
743,-3792,-12,195,-4702,23,-44,-20,18
744,-3782,5,194,-4700,23,-45,-19,17
745,-3786,-6,177,-4702,23,-44,-21,18
746,-3796,-12,185,-4695,23,-44,-18,18
747,-3796,-15,188,-4689,23,-43,-21,18
748,-3793,-8,202,-4704,23,-42,-20,18
749,-3774,0,183,-4697,23,-42,-19,17
750,-3790,-7,192,-4688,23,-43,-20,17
751,-3790,0,167,-4691,23,-43,-21,16
752,-3788,6,168,-4681,23,-43,-18,17
753,-3792,2,197,-4691,23,-44,-21,17
754,-3797,-13,197,-4688,23,-45,-20,18
755,-3785,-7,186,-4688,23,-43,-20,16
756,-3786,-3,182,-4707,23,-45,-19,17
757,-3805,6,189,-4691,23,-44,-17,16
758,-3791,-11,179,-4698,23,-44,-20,19
759,-3785,-4,197,-4690,23,-42,-19,15
760,-3784,-5,180,-4684,23,-44,-20,18
761,-3790,-8,191,-4686,23,-44,-17,16
762,-3776,-12,189,-4707,23,-45,-20,16
763,-3781,-13,178,-4689,23,-44,-20,17
764,-3777,0,185,-4687,23,-43,-19,16
765,-3793,0,181,-4687,23,-42,-20,17
766,-3784,10,161,-4697,23,-44,-19,17
767,-3774,-10,182,-4689,23,-44,-19,17
768,-3785,0,192,-4688,23,-45,-20,17
769,-3756,13,184,-4689,23,-42,-20,16
770,-3795,-23,198,-4695,23,-46,-19,17
771,-3785,-4,209,-4693,23,-43,-18,19
772,-3800,2,201,-4699,23,-44,-19,17
773,-3791,-7,203,-4687,23,-43,-18,18
774,-3775,-5,159,-4699,23,-44,-20,17
775,-3774,-2,190,-4682,23,-44,-19,17
776,-3783,6,206,-4700,23,-43,-21,17
777,-3781,-9,207,-4697,23,-44,-21,18
778,-3789,-1,171,-4699,23,-42,-20,17
779,-3789,6,188,-4689,23,-44,-19,18
780,-3804,-1,182,-4692,23,-42,-22,17
781,-3799,-9,213,-4692,23,-43,-20,16
782,-3781,4,176,-4702,23,-42,-20,18
783,-3797,-11,177,-4709,23,-44,-20,19
784,-3788,-11,191,-4702,23,-43,-20,18
785,-3790,3,198,-4693,23,-44,-20,17
786,-3793,10,189,-4696,23,-43,-17,17
787,-3793,2,171,-4700,23,-47,-18,17
788,-3796,-5,185,-4698,23,-44,-20,18
789,-3792,11,168,-4707,23,-43,-19,16
790,-3798,-7,207,-4687,23,-43,-20,17
791,-3803,-9,165,-4700,23,-45,-18,17
792,-3787,-12,194,-4698,23,-43,-20,17
793,-3800,1,193,-4696,23,-42,-19,18
794,-3795,-3,215,-4704,23,-44,-21,17
795,-3786,-5,172,-4702,23,-44,-20,16
796,-3787,-16,174,-4694,23,-43,-19,17
797,-3788,-11,181,-4701,23,-44,-20,17
798,-3788,-8,200,-4705,23,-45,-19,17
799,-3785,-12,183,-4694,23,-44,-18,15
800,-3789,4,183,-4697,23,-42,-20,16
801,-3779,4,177,-4690,23,-44,-21,16
802,-3809,3,194,-4687,23,-44,-18,16
803,-3790,-9,197,-4686,23,-43,-20,17
804,-3790,-14,176,-4700,23,-43,-19,16
805,-3785,-3,190,-4703,23,-45,-18,17
806,-3788,8,183,-4695,23,-43,-19,17
807,-3780,5,172,-4703,23,-44,-18,16
808,-3793,-1,191,-4699,23,-44,-19,18
809,-3784,-6,178,-4692,23,-42,-19,18
810,-3793,-2,219,-4698,23,-42,-20,17
811,-3784,9,174,-4699,23,-45,-20,17
812,-3789,-1,192,-4694,23,-44,-20,18
813,-3795,-11,170,-4692,23,-45,-19,16
814,-3794,-14,162,-4700,23,-42,-20,17
815,-3788,-5,185,-4684,23,-45,-21,18
816,-3790,16,195,-4689,23,-42,-18,16
817,-3789,-5,171,-4692,23,-44,-20,16
818,-3788,-10,195,-4698,23,-44,-20,17
819,-3783,18,166,-4695,23,-44,-20,17
820,-3785,-14,185,-4698,23,-44,-20,17
821,-3783,-10,182,-4682,23,-44,-18,18
822,-3781,-26,182,-4686,23,-44,-21,15
823,-3774,-8,212,-4694,23,-42,-20,18
824,-3794,9,204,-4703,23,-44,-18,18
825,-3790,2,179,-4699,23,-43,-20,16
826,-3771,7,175,-4699,23,-44,-19,17
827,-3786,-13,206,-4693,23,-45,-19,16
828,-3804,-4,206,-4697,23,-44,-19,15
829,-3792,-8,178,-4696,23,-45,-18,18
830,-3788,-11,175,-4699,23,-42,-18,16
831,-3793,6,182,-4711,23,-44,-20,16
832,-3789,2,192,-4703,23,-44,-20,18
833,-3781,-13,190,-4687,23,-44,-20,15
834,-3786,1,189,-4683,23,-43,-21,16
835,-3804,-3,182,-4696,23,-43,-20,17
836,-3784,-7,199,-4697,23,-41,-20,17
837,-3805,-22,195,-4697,23,-43,-22,17
838,-3793,-6,182,-4689,23,-45,-20,17
839,-3784,-14,194,-4701,23,-45,-17,16
840,-3786,0,177,-4688,23,-43,-21,18
841,-3792,6,187,-4693,23,-44,-17,16
842,-3784,4,192,-4689,23,-43,-19,17
843,-3783,3,191,-4688,23,-41,-21,16
844,-3791,5,190,-4704,23,-44,-19,17
845,-3791,-10,181,-4686,23,-44,-20,16
846,-3786,5,166,-4702,23,-43,-16,18
847,-3789,-2,182,-4684,23,-45,-19,17
848,-3797,-9,190,-4693,23,-44,-18,17
849,-3782,15,170,-4696,23,-44,-19,16
850,-3782,-1,193,-4686,23,-45,-21,17
851,-3797,-1,186,-4699,23,-45,-19,17
852,-3792,-1,186,-4687,23,-44,-18,18
853,-3788,-4,182,-4687,23,-44,-19,17
854,-3778,-10,190,-4701,23,-43,-19,18
855,-3780,13,212,-4692,23,-44,-21,16
856,-3787,7,201,-4691,23,-43,-19,16
857,-3773,7,167,-4698,23,-44,-20,17
858,-3793,-7,170,-4688,23,-44,-21,18
859,-3783,-13,196,-4695,23,-44,-19,19
860,-3798,-12,181,-4697,23,-44,-20,18
861,-3807,9,196,-4701,23,-43,-19,18
862,-3795,-7,189,-4699,23,-45,-20,17
863,-3774,2,190,-4690,23,-45,-21,17
864,-3793,0,175,-4695,23,-44,-20,17
865,-3785,0,183,-4693,23,-44,-20,16
866,-3774,2,189,-4693,23,-45,-22,17
867,-3782,-1,190,-4701,23,-43,-19,17
868,-3787,-12,172,-4697,23,-44,-21,19
869,-3789,-11,187,-4690,23,-45,-21,18
870,-3793,0,195,-4697,23,-44,-20,17
871,-3806,13,188,-4698,23,-42,-21,19
872,-3784,6,159,-4699,23,-44,-21,17
873,-3797,-6,169,-4694,23,-44,-20,17
874,-3776,-16,200,-4690,23,-42,-18,16
875,-3803,-8,196,-4692,23,-46,-19,16
876,-3779,19,178,-4698,23,-43,-18,18
877,-3781,-19,193,-4695,23,-42,-19,18
878,-3781,-2,158,-4695,23,-44,-18,16
879,-3786,-11,182,-4704,23,-45,-21,17
880,-3781,12,191,-4688,23,-44,-19,16
881,-3777,-14,172,-4700,23,-44,-20,17
882,-3780,6,175,-4702,23,-43,-19,16
883,-3778,-8,186,-4703,23,-45,-19,17
884,-3786,-3,176,-4695,23,-44,-19,17
885,-3788,-6,219,-4692,23,-43,-19,18
886,-3782,-3,184,-4701,23,-44,-21,17
887,-3796,-13,201,-4691,23,-44,-18,17
888,-3798,0,190,-4690,23,-46,-22,19
889,-3784,0,154,-4693,23,-46,-20,16
890,-3781,-3,172,-4682,23,-45,-20,15
891,-3809,-5,200,-4700,23,-43,-19,17
892,-3788,13,186,-4693,23,-44,-18,17
893,-3789,1,189,-4696,23,-43,-20,17
894,-3789,-13,205,-4705,23,-44,-18,15
895,-3783,-8,183,-4683,23,-45,-21,18
896,-3781,0,168,-4690,23,-43,-21,17
897,-3791,0,203,-4706,23,-43,-20,17
898,-3797,-3,178,-4693,23,-44,-19,16
899,-3782,-3,190,-4700,23,-43,-20,17
900,-3791,-8,180,-4695,23,-42,-19,17
901,-3784,-2,204,-4686,23,-44,-21,17
902,-3783,-3,189,-4706,23,-44,-21,18
903,-3783,-10,205,-4687,23,-44,-19,17
904,-3791,6,199,-4688,23,-42,-20,18
905,-3800,-7,181,-4693,23,-43,-20,16
906,-3791,0,183,-4690,23,-45,-17,17
907,-3786,-14,187,-4698,23,-45,-20,18
908,-3792,-14,160,-4692,23,-42,-18,16
909,-3800,0,170,-4694,23,-44,-19,18
910,-3779,-1,188,-4700,23,-45,-19,19
911,-3787,-11,185,-4694,23,-45,-22,18
912,-3795,9,169,-4683,23,-43,-19,18
913,-3785,3,175,-4691,23,-44,-20,17
914,-3778,-4,170,-4699,23,-43,-21,17
915,-3774,-1,198,-4694,23,-44,-19,18
916,-3795,2,183,-4697,23,-46,-20,17
917,-3786,-4,187,-4687,23,-43,-19,16
918,-3781,-18,211,-4701,23,-46,-18,18
919,-3783,23,191,-4682,23,-44,-19,17
920,-3798,-23,189,-4690,23,-45,-22,17
921,-3805,10,190,-4692,23,-44,-20,16
922,-3786,7,167,-4690,23,-43,-18,16
923,-3779,8,186,-4681,23,-44,-20,16
924,-3787,2,184,-4686,23,-44,-19,16
925,-3787,6,159,-4694,23,-43,-20,17
926,-3787,-8,192,-4703,23,-42,-20,17
927,-3779,5,197,-4698,23,-44,-20,16
928,-3781,-8,196,-4702,23,-44,-19,17
929,-3780,-5,185,-4691,23,-43,-19,17
930,-3786,6,166,-4682,23,-42,-20,18
931,-3776,-1,177,-4695,23,-44,-20,17
932,-3801,16,172,-4684,23,-43,-20,18
933,-3786,3,184,-4696,23,-44,-19,17
934,-3792,6,161,-4690,23,-43,-20,17
935,-3800,-1,189,-4711,23,-44,-21,18
936,-3778,6,171,-4699,23,-46,-21,17
937,-3778,-5,192,-4687,23,-44,-18,18
938,-3783,-5,184,-4692,23,-44,-21,17
939,-3794,-3,184,-4689,23,-45,-21,17
940,-3788,-8,200,-4706,23,-44,-20,16
941,-3798,-13,183,-4688,23,-42,-19,17
942,-3800,-2,191,-4689,23,-43,-19,15
943,-3789,-15,173,-4689,23,-42,-19,18
944,-3786,-9,192,-4692,23,-44,-22,18
945,-3778,-13,186,-4690,23,-45,-21,18
946,-3797,-1,212,-4694,23,-44,-19,18
947,-3772,-14,187,-4688,23,-45,-19,17
948,-3790,-7,184,-4699,23,-45,-20,18
949,-3796,14,180,-4691,23,-43,-18,17
950,-3793,-2,182,-4693,23,-44,-20,16
951,-3792,-12,186,-4678,23,-44,-21,16
952,-3786,4,182,-4696,23,-43,-20,18
953,-3779,8,186,-4702,23,-42,-20,17
954,-3768,-10,175,-4690,23,-43,-21,19
955,-3783,9,212,-4688,23,-44,-20,17
956,-3793,2,194,-4685,23,-44,-20,17
957,-3785,-4,198,-4693,23,-45,-20,17
958,-3790,6,170,-4690,23,-45,-20,16
959,-3789,14,180,-4694,23,-45,-21,17
960,-3780,-1,189,-4688,23,-42,-17,17
961,-3795,-10,173,-4702,23,-44,-20,15
962,-3785,-18,188,-4682,23,-42,-20,18
963,-3791,-8,164,-4683,23,-44,-19,16
964,-3788,-2,186,-4692,23,-43,-21,17
965,-3794,-7,185,-4697,23,-43,-19,16
966,-3792,-19,183,-4697,23,-45,-18,16
967,-3779,-30,189,-4697,23,-43,-19,16
968,-3797,-6,224,-4696,23,-43,-20,18
969,-3781,-6,202,-4683,23,-46,-19,18
970,-3795,8,185,-4702,23,-44,-19,16
971,-3783,2,181,-4690,23,-42,-18,17
972,-3781,-10,182,-4690,23,-45,-20,17
973,-3798,-10,180,-4686,23,-42,-19,18
974,-3789,-9,191,-4691,23,-44,-20,18
975,-3798,-11,181,-4687,23,-44,-18,19
976,-3803,-3,198,-4693,23,-43,-21,17
977,-3793,-6,181,-4693,23,-45,-21,17
978,-3772,-1,202,-4691,23,-42,-19,16
979,-3786,3,184,-4688,23,-43,-18,17
980,-3792,-10,183,-4685,23,-44,-19,16
981,-3791,-13,186,-4704,23,-43,-19,16
982,-3776,-8,171,-4680,23,-44,-19,19
983,-3790,1,176,-4690,23,-45,-18,16
984,-3766,-5,176,-4685,23,-44,-21,18
985,-3785,3,196,-4699,23,-44,-22,17
986,-3796,-4,190,-4691,23,-42,-20,17
987,-3782,-14,218,-4696,23,-44,-20,19
988,-3786,-20,189,-4707,23,-43,-20,17
989,-3793,-1,195,-4699,23,-44,-20,18
990,-3798,1,188,-4688,23,-43,-20,16
991,-3786,-8,183,-4698,23,-43,-18,18
992,-3794,-14,198,-4705,23,-44,-18,18
993,-3798,5,181,-4689,23,-44,-18,19
994,-3804,-12,178,-4698,23,-44,-19,17
995,-3796,-3,170,-4690,23,-44,-20,17
996,-3789,-1,185,-4690,23,-44,-21,17
997,-3782,5,176,-4691,23,-45,-20,17
998,-3794,-20,172,-4685,23,-44,-17,17
