,acc_X,acc_Y,acc_Z,temp,tempC,gyr_X,gyr_Y,gyr_Z
0,-7594,-7,379,-4645,23,-85,-37,35
1,-7577,-14,370,-4648,23,-86,-38,36
2,-7586,-14,383,-4645,23,-88,-38,35
3,-7578,-1,382,-4648,23,-89,-37,35
4,-7567,-19,390,-4642,23,-86,-37,35
5,-7595,-18,357,-4645,23,-86,-36,33
6,-7589,-19,371,-4644,23,-87,-37,34
7,-7581,-17,366,-4639,23,-87,-38,33
8,-7568,14,385,-4638,23,-87,-38,32
9,-7576,-1,394,-4640,23,-86,-38,32
10,-7577,11,378,-4648,23,-86,-37,33
11,-7562,-3,370,-4645,23,-88,-38,34
12,-7581,-2,364,-4647,23,-88,-39,34
13,-7601,-16,360,-4640,23,-88,-39,34
14,-7602,-4,365,-4646,23,-87,-38,35
15,-7576,-15,380,-4649,23,-85,-40,35
16,-7576,-3,382,-4644,23,-88,-38,36
17,-7570,-11,383,-4646,23,-88,-39,35
18,-7562,-2,372,-4647,23,-86,-38,34
19,-7585,-2,362,-4644,23,-87,-37,34
20,-7575,0,362,-4646,23,-89,-37,33
21,-7565,-9,369,-4647,23,-88,-39,33
22,-7577,-2,369,-4646,23,-89,-39,34
23,-7570,-20,383,-4647,23,-88,-39,35
24,-7576,-11,368,-4648,23,-88,-37,34
25,-7586,1,385,-4644,23,-88,-38,33
26,-7586,-12,372,-4642,23,-89,-37,36
27,-7571,-12,381,-4644,23,-89,-38,36
28,-7570,-3,394,-4643,23,-87,-39,35
29,-7584,2,382,-4641,23,-87,-39,36
30,-7577,1,363,-4642,23,-85,-38,36
31,-7573,-6,383,-4646,23,-88,-39,35
32,-7575,4,366,-4644,23,-87,-38,35
33,-7584,16,377,-4643,23,-88,-40,35
34,-7576,-1,364,-4646,23,-87,-39,35
35,-7603,-5,388,-4645,23,-88,-39,34
36,-7595,-7,406,-4646,23,-87,-38,35
37,-7580,-13,381,-4650,23,-87,-39,35
38,-7588,-9,383,-4648,23,-89,-39,34
39,-7572,-10,372,-4646,23,-89,-39,35
40,-7581,-18,358,-4646,23,-88,-39,35
41,-7586,-11,377,-4645,23,-88,-39,35
42,-7590,-15,370,-4645,23,-89,-39,34
43,-7580,-24,369,-4646,23,-88,-38,36
44,-7583,-13,384,-4642,23,-88,-39,36
45,-7582,-8,368,-4640,23,-87,-40,36
46,-7571,-7,367,-4640,23,-88,-39,36
47,-7576,2,373,-4648,23,-88,-39,35
48,-7578,-1,378,-4649,23,-88,-38,35
49,-7577,0,384,-4645,23,-87,-39,34
50,-7581,-4,374,-4643,23,-87,-38,35
51,-7574,-13,370,-4646,23,-86,-36,34
52,-7573,-8,366,-4648,23,-88,-38,34
53,-7572,-11,360,-4647,23,-88,-38,34
54,-7572,-1,352,-4646,23,-86,-37,33
55,-7582,-2,354,-4649,23,-88,-40,34
56,-7574,-5,360,-4645,23,-88,-40,33
57,-7572,-6,371,-4641,23,-87,-38,34
58,-7563,-9,377,-4645,23,-88,-38,36
59,-7582,-11,364,-4644,23,-88,-39,34
60,-7587,-1,382,-4642,23,-88,-39,35
61,-7588,-8,369,-4646,23,-88,-37,35
62,-7586,-9,387,-4646,23,-89,-39,35
63,-7580,-7,370,-4643,23,-89,-39,35
64,-7585,-1,371,-4649,23,-88,-39,35
65,-7563,-5,373,-4648,23,-88,-38,34
66,-7576,11,368,-4645,23,-88,-39,34
67,-7584,-8,376,-4647,23,-88,-36,36
68,-7583,-6,378,-4648,23,-87,-38,36
69,-7588,-13,386,-4647,23,-86,-39,35
70,-7577,-2,373,-4647,23,-87,-39,36
71,-7592,-11,369,-4645,23,-87,-40,33
72,-7583,-6,376,-4641,23,-87,-37,34
73,-7570,8,366,-4645,23,-88,-39,35
74,-7557,4,398,-4644,23,-88,-39,33
75,-7573,-1,386,-4645,23,-86,-38,34
76,-7580,-6,384,-4645,23,-88,-38,34
77,-7585,9,387,-4645,23,-87,-38,35
78,-7590,7,373,-4642,23,-88,-38,35
79,-7578,3,403,-4640,23,-88,-40,36
80,-7571,0,398,-4641,23,-89,-40,34
81,-7575,-5,366,-4645,23,-87,-39,35
82,-7567,-6,372,-4638,23,-86,-39,34
83,-7579,0,365,-4645,23,-87,-40,35
84,-7567,-13,380,-4648,23,-86,-41,35
85,-7577,-6,389,-4646,23,-86,-38,34
86,-7586,-24,361,-4640,23,-86,-40,35
87,-7571,-12,383,-4644,23,-85,-40,35
88,-7578,-12,402,-4645,23,-85,-39,34
89,-7566,-2,401,-4639,23,-85,-40,35
90,-7563,-6,364,-4642,23,-85,-39,34
91,-7584,2,375,-4646,23,-88,-39,34
92,-7574,-9,392,-4645,23,-88,-37,34
93,-7584,-11,382,-4640,23,-88,-38,34
94,-7593,5,385,-4642,23,-88,-37,34
95,-7599,-3,378,-4645,23,-87,-39,34
96,-7586,-2,362,-4645,23,-88,-39,34
97,-7583,-15,383,-4638,23,-89,-39,34
98,-7582,-12,389,-4643,23,-91,-38,34
99,-7589,-22,388,-4643,23,-89,-37,35
100,-7586,-4,367,-4642,23,-88,-37,36
101,-7597,-7,379,-4647,23,-86,-39,36
102,-7590,-12,356,-4641,23,-88,-39,35
103,-7584,-10,364,-4644,23,-87,-38,36
104,-7556,-14,349,-4643,23,-88,-37,35
105,-7567,-1,357,-4645,23,-88,-38,35
106,-7569,-6,387,-4645,23,-87,-39,35
107,-7572,-3,382,-4643,23,-87,-37,37
108,-7569,-6,384,-4649,23,-87,-38,35
109,-7590,-10,376,-4650,23,-86,-39,36
110,-7577,-7,376,-4651,23,-88,-38,35
111,-7577,-12,370,-4646,23,-88,-37,37
112,-7572,-6,373,-4646,23,-88,-39,34
113,-7581,-8,371,-4649,23,-86,-38,35
114,-7585,-7,374,-4645,23,-88,-38,34
115,-7586,-11,367,-4645,23,-89,-37,36
116,-7558,-4,398,-4651,23,-87,-40,37
117,-7576,-3,354,-4652,23,-88,-39,35
118,-7572,-11,362,-4646,23,-88,-40,34
119,-7571,-3,356,-4645,23,-88,-39,33
120,-7575,-9,358,-4642,23,-89,-38,35
121,-7578,7,352,-4652,23,-88,-39,35
122,-7579,-8,369,-4648,23,-87,-38,35
123,-7586,-18,370,-4647,23,-86,-40,34
124,-7590,-5,379,-4649,23,-86,-39,34
125,-7582,-12,374,-4649,23,-86,-39,36
126,-7570,-9,379,-4650,23,-86,-38,35
127,-7584,-5,370,-4644,23,-87,-38,35
128,-7578,-13,358,-4647,23,-88,-38,32
129,-7578,14,366,-4651,23,-88,-39,35
130,-7575,2,360,-4647,23,-89,-39,35
131,-7592,-14,365,-4644,23,-87,-40,36
132,-7587,-11,374,-4647,23,-85,-40,34
133,-7585,-20,371,-4645,23,-86,-40,33
134,-7589,5,350,-4651,23,-89,-39,35
135,-7591,-7,377,-4647,23,-90,-41,35
136,-7575,0,371,-4645,23,-90,-39,35
137,-7572,-2,390,-4646,23,-88,-39,34
138,-7585,-3,392,-4646,23,-88,-39,34
139,-7574,-27,362,-4642,23,-87,-40,35
140,-7581,-9,367,-4642,23,-86,-38,36
141,-7568,-14,379,-4649,23,-88,-39,34
142,-7579,-6,382,-4645,23,-86,-39,35
143,-7581,-1,380,-4643,23,-87,-39,34
144,-7578,-11,370,-4645,23,-87,-38,35
145,-7584,-9,383,-4647,23,-87,-40,34
146,-7594,-12,363,-4647,23,-86,-39,34
147,-7568,-6,350,-4643,23,-86,-37,34
148,-7575,4,348,-4643,23,-88,-37,34
149,-7585,-8,349,-4644,23,-86,-38,34
150,-7597,-15,362,-4646,23,-86,-40,34
151,-7586,0,392,-4641,23,-88,-37,36
152,-7582,-10,408,-4641,23,-88,-39,37
153,-7581,-9,431,-4645,23,-87,-41,35
154,-7576,-11,395,-4642,23,-87,-39,35
155,-7587,-2,389,-4642,23,-89,-38,35
156,-7570,-8,368,-4640,23,-85,-40,34
157,-7584,-5,366,-4641,23,-86,-38,34
158,-7587,1,385,-4644,23,-89,-38,35
159,-7589,-15,379,-4642,23,-88,-39,35
160,-7590,-1,392,-4647,23,-88,-40,37
161,-7584,6,386,-4642,23,-88,-37,35
162,-7585,-1,387,-4644,23,-86,-38,35
163,-7588,0,374,-4642,23,-87,-39,34
164,-7583,-1,358,-4640,23,-89,-39,36
165,-7575,-18,381,-4637,23,-88,-39,35
166,-7573,-9,367,-4643,23,-87,-38,36
167,-7589,-13,366,-4646,23,-87,-38,35
168,-7594,2,372,-4644,23,-86,-39,34
169,-7599,3,359,-4638,23,-86,-39,35
170,-7602,12,375,-4644,23,-86,-40,34
171,-7598,5,372,-4642,23,-88,-38,34
172,-7596,-2,384,-4641,23,-87,-38,34
173,-7593,-9,399,-4643,23,-88,-38,34
174,-7591,-34,404,-4643,23,-86,-39,35
175,-7598,-1,406,-4645,23,-89,-38,36
176,-7596,-14,398,-4645,23,-88,-37,34
177,-7592,-8,358,-4641,23,-87,-40,35
178,-7592,-12,362,-4641,23,-87,-39,34
179,-7585,-8,369,-4641,23,-88,-37,35
180,-7570,5,357,-4642,23,-89,-38,34
181,-7571,5,371,-4638,23,-88,-38,35
182,-7573,6,365,-4641,23,-87,-40,34
183,-7582,-7,366,-4641,23,-88,-40,35
184,-7576,-4,384,-4646,23,-86,-40,35
185,-7580,-13,372,-4639,23,-87,-40,36
186,-7589,-14,370,-4642,23,-88,-38,35
187,-7577,-4,378,-4643,23,-86,-39,34
188,-7577,-7,392,-4649,23,-86,-39,34
189,-7571,3,365,-4642,23,-88,-37,35
190,-7572,3,369,-4643,23,-87,-38,36
191,-7566,-14,380,-4643,23,-87,-39,36
192,-7576,-15,373,-4649,23,-86,-38,34
193,-7581,-5,369,-4649,23,-87,-40,35
194,-7571,-13,383,-4645,23,-86,-39,34
195,-7590,-18,366,-4646,23,-88,-37,36
196,-7581,9,378,-4645,23,-88,-38,34
197,-7587,5,383,-4644,23,-88,-39,36
198,-7585,4,384,-4649,23,-88,-40,36
199,-7581,11,385,-4648,23,-87,-40,34
200,-7580,-4,385,-4642,23,-88,-39,35
201,-7589,-1,395,-4646,23,-88,-38,36
202,-7582,-4,382,-4647,23,-88,-40,35
203,-7579,-1,382,-4648,23,-86,-39,34
204,-7574,1,362,-4644,23,-87,-38,35
205,-7573,8,377,-4644,23,-88,-38,35
206,-7566,-4,351,-4640,23,-87,-38,35
207,-7570,2,363,-4648,23,-88,-39,35
208,-7571,-9,379,-4647,23,-87,-38,33
209,-7574,-3,369,-4643,23,-88,-37,35
210,-7590,14,382,-4644,23,-87,-38,34
211,-7580,5,378,-4643,23,-88,-39,34
212,-7573,-11,404,-4643,23,-89,-38,34
213,-7582,-14,387,-4641,23,-89,-39,35
214,-7580,-4,383,-4639,23,-86,-39,36
215,-7585,-8,392,-4640,23,-87,-38,35
216,-7567,-5,387,-4642,23,-88,-40,33
217,-7572,-19,383,-4638,23,-89,-39,35
218,-7592,-11,392,-4637,23,-89,-41,35
219,-7590,-13,390,-4639,23,-88,-38,33
220,-7590,-7,382,-4640,23,-86,-38,33
221,-7591,-7,362,-4641,23,-87,-38,34
222,-7574,-12,372,-4643,23,-89,-39,35
223,-7563,2,403,-4643,23,-88,-37,33
224,-7564,-13,392,-4645,23,-89,-39,34
225,-7559,-7,411,-4644,23,-89,-36,36
226,-7576,-8,391,-4643,23,-89,-38,33
227,-7577,-13,394,-4637,23,-88,-38,34
228,-7566,-3,385,-4640,23,-88,-38,34
229,-7578,0,395,-4641,23,-87,-41,35
230,-7583,-4,379,-4640,23,-88,-40,34
231,-7566,-8,404,-4642,23,-88,-39,36
232,-7583,-8,402,-4647,23,-87,-38,36
233,-7581,-2,397,-4643,23,-86,-37,35
234,-7579,2,373,-4647,23,-88,-39,34
235,-7583,-4,361,-4644,23,-86,-40,36
236,-7586,-19,363,-4646,23,-89,-39,35
237,-7577,-5,355,-4649,23,-88,-38,33
238,-7585,5,376,-4647,23,-87,-39,34
239,-7572,3,380,-4649,23,-87,-38,36
240,-7581,-13,356,-4649,23,-87,-38,34
241,-7558,4,378,-4645,23,-87,-38,33
242,-7579,-1,358,-4642,23,-90,-39,34
243,-7578,3,372,-4641,23,-88,-39,36
244,-7581,-5,409,-4645,23,-87,-41,35
245,-7578,-9,385,-4641,23,-89,-40,36
246,-7572,-4,357,-4638,23,-89,-38,36
247,-7574,0,376,-4640,23,-88,-37,35
248,-7570,2,390,-4639,23,-89,-38,35
249,-7585,-5,370,-4645,23,-89,-39,35
250,-7585,-6,370,-4645,23,-89,-41,33
251,-7568,-17,376,-4641,23,-89,-41,34
252,-7569,-16,373,-4644,23,-87,-40,34
253,-7580,-24,377,-4642,23,-88,-39,33
254,-7567,-13,349,-4644,23,-86,-40,36
255,-7584,6,362,-4647,23,-87,-39,36
256,-7577,-4,361,-4644,23,-89,-39,35
257,-7575,1,368,-4643,23,-87,-39,34
258,-7575,-10,380,-4641,23,-87,-38,35
259,-7585,-14,381,-4651,23,-88,-38,34
260,-7588,-13,365,-4646,23,-89,-40,35
261,-7590,-16,389,-4652,23,-88,-39,34
262,-7590,-7,388,-4650,23,-86,-39,35
263,-7561,-3,377,-4646,23,-86,-40,36
264,-7580,-15,369,-4648,23,-87,-40,35
265,-7586,-11,379,-4646,23,-87,-39,35
266,-7581,-10,398,-4650,23,-89,-39,34
267,-7591,6,392,-4647,23,-89,-38,37
268,-7574,-9,357,-4642,23,-86,-39,36
269,-7575,-2,375,-4644,23,-86,-39,36
270,-7575,-8,386,-4646,23,-86,-38,35
271,-7592,-4,398,-4642,23,-87,-39,34
272,-7590,-6,388,-4641,23,-86,-38,34
273,-7583,-5,367,-4649,23,-89,-38,35
274,-7573,-11,374,-4649,23,-87,-38,35
275,-7576,-6,363,-4647,23,-88,-38,36
276,-7577,-6,363,-4642,23,-89,-39,35
277,-7581,12,359,-4646,23,-88,-39,35
278,-7591,-1,387,-4646,23,-89,-38,33
279,-7582,-7,380,-4643,23,-87,-40,34
280,-7578,9,375,-4643,23,-88,-39,34
281,-7573,6,357,-4649,23,-88,-38,34
282,-7598,-11,366,-4651,23,-87,-38,34
283,-7592,-24,380,-4647,23,-86,-39,35
284,-7587,-5,378,-4643,23,-85,-39,35
285,-7579,4,380,-4641,23,-87,-38,34
286,-7555,-18,388,-4641,23,-87,-39,34
287,-7566,-13,379,-4644,23,-88,-40,34
288,-7572,-22,381,-4646,23,-87,-37,34
289,-7576,-9,367,-4644,23,-87,-38,34
290,-7573,-10,344,-4650,23,-89,-37,34
291,-7580,6,351,-4646,23,-88,-39,34
292,-7584,0,374,-4644,23,-87,-40,34
293,-7589,-6,392,-4644,23,-88,-40,36
294,-7570,-6,379,-4645,23,-87,-41,35
295,-7567,-16,347,-4641,23,-89,-40,35
296,-7571,9,385,-4639,23,-87,-38,35
297,-7560,1,388,-4641,23,-87,-39,34
298,-7567,-2,377,-4643,23,-87,-38,35
299,-7575,8,364,-4643,23,-88,-39,35
300,-7570,14,374,-4640,23,-88,-37,34
301,-7585,-6,398,-4642,23,-87,-38,34
302,-7580,-5,383,-4642,23,-88,-38,35
303,-7583,-13,392,-4641,23,-88,-38,36
304,-7585,-10,384,-4641,23,-87,-39,35
305,-7596,-3,352,-4645,23,-88,-38,34
306,-7586,-2,388,-4644,23,-88,-39,34
307,-7593,-29,405,-4643,23,-89,-38,35
308,-7595,-24,397,-4645,23,-89,-36,36
309,-7597,-11,380,-4640,23,-87,-38,34
310,-7596,-4,364,-4649,23,-87,-40,36
311,-7582,-20,380,-4639,23,-90,-39,36
312,-7575,-21,393,-4645,23,-88,-38,34
313,-7581,-15,382,-4645,23,-86,-39,33
314,-7584,-3,389,-4646,23,-88,-36,33
315,-7580,-13,361,-4644,23,-86,-39,34
316,-7580,-5,369,-4637,23,-88,-40,34
317,-7591,-3,375,-4646,23,-87,-38,35
318,-7591,8,392,-4643,23,-89,-37,35
319,-7586,8,390,-4648,23,-87,-39,33
320,-7583,2,371,-4645,23,-87,-39,34
321,-7585,-6,366,-4646,23,-88,-37,34
322,-7575,-9,384,-4644,23,-89,-39,34
323,-7569,-9,371,-4643,23,-88,-38,35
324,-7583,-12,376,-4641,23,-86,-37,34
325,-7583,-18,378,-4644,23,-88,-38,34
326,-7577,-14,373,-4643,23,-87,-37,34
327,-7565,-10,366,-4643,23,-88,-37,33
328,-7569,-12,367,-4642,23,-87,-38,35
329,-7590,-3,376,-4645,23,-87,-38,34
330,-7580,4,370,-4643,23,-86,-39,35
331,-7584,-14,384,-4643,23,-88,-39,35
332,-7581,-4,379,-4639,23,-88,-38,35
333,-7583,5,373,-4635,23,-85,-38,36
334,-7565,-3,369,-4644,23,-87,-36,36
335,-7573,-1,377,-4642,23,-87,-38,35
336,-7567,-9,370,-4644,23,-89,-38,35
337,-7565,-9,370,-4648,23,-89,-40,35
338,-7577,-8,370,-4642,23,-87,-40,35
339,-7571,-23,372,-4641,23,-89,-38,33
340,-7577,-17,346,-4638,23,-88,-38,35
341,-7578,-10,351,-4641,23,-88,-40,34
342,-7566,-4,365,-4641,23,-86,-39,35
343,-7582,-7,376,-4646,23,-86,-37,33
344,-7579,-13,388,-4641,23,-86,-39,33
345,-7566,9,380,-4643,23,-88,-39,34
346,-7572,-2,375,-4645,23,-87,-37,34
347,-7583,6,379,-4644,23,-87,-37,35
348,-7582,2,381,-4643,23,-87,-37,35
349,-7575,-11,381,-4648,23,-86,-38,35
350,-7570,-8,376,-4645,23,-89,-38,33
351,-7587,-1,370,-4642,23,-87,-40,33
352,-7577,-19,361,-4645,23,-86,-39,33
353,-7571,-2,352,-4647,23,-88,-37,34
354,-7581,-8,361,-4642,23,-87,-39,34
355,-7576,-14,372,-4642,23,-87,-37,34
356,-7584,-14,358,-4645,23,-88,-37,34
357,-7571,-4,394,-4645,23,-88,-38,33
358,-7578,7,379,-4645,23,-87,-38,35
359,-7571,-7,377,-4642,23,-87,-40,34
360,-7565,-17,381,-4642,23,-87,-38,34
361,-7571,-16,380,-4642,23,-87,-38,34
362,-7574,-15,359,-4645,23,-87,-39,33
363,-7575,-11,369,-4642,23,-88,-38,34
364,-7575,-6,378,-4640,23,-88,-38,34
365,-7586,-16,374,-4640,23,-87,-40,34
366,-7595,-12,362,-4643,23,-87,-38,35
367,-7598,1,373,-4646,23,-89,-40,35
368,-7577,-19,376,-4642,23,-88,-39,35
369,-7585,-6,389,-4642,23,-88,-38,35
370,-7582,5,373,-4636,23,-88,-38,36
371,-7590,-6,381,-4639,23,-87,-40,36
372,-7592,2,376,-4637,23,-87,-39,35
373,-7579,-8,373,-4642,23,-86,-40,34
374,-7587,-11,367,-4638,23,-87,-40,32
375,-7586,-10,375,-4638,23,-86,-41,34
376,-7577,-16,388,-4643,23,-86,-39,35
377,-7575,-14,379,-4637,23,-87,-38,36
378,-7574,-3,400,-4644,23,-88,-39,36
379,-7568,-8,396,-4642,23,-87,-40,34
380,-7580,-3,398,-4643,23,-85,-39,35
381,-7584,-8,398,-4646,23,-86,-40,35
382,-7571,-7,373,-4641,23,-87,-39,34
383,-7582,-32,369,-4642,23,-86,-38,34
384,-7576,-11,377,-4643,23,-86,-37,34
385,-7600,5,335,-4640,23,-87,-38,35
386,-7595,4,366,-4639,23,-87,-37,34
387,-7581,12,375,-4639,23,-86,-37,34
388,-7564,-1,408,-4639,23,-89,-37,33
389,-7581,6,401,-4635,23,-88,-37,34
390,-7592,-13,377,-4640,23,-87,-38,35
391,-7589,-2,382,-4641,23,-88,-38,38
392,-7569,-3,379,-4637,23,-88,-39,35
393,-7575,10,376,-4640,23,-87,-38,34
394,-7576,-4,374,-4645,23,-87,-38,33
395,-7577,5,372,-4638,23,-88,-39,36
396,-7579,2,375,-4639,23,-86,-39,35
397,-7578,1,374,-4643,23,-86,-38,35
398,-7593,4,374,-4638,23,-87,-39,35
399,-7584,0,365,-4642,23,-87,-38,35
400,-7593,10,360,-4645,23,-87,-40,35
401,-7579,3,371,-4644,23,-88,-37,34
402,-7575,-10,359,-4637,23,-89,-38,34
403,-7586,-6,378,-4642,23,-88,-37,34
404,-7576,-6,381,-4638,23,-88,-38,34
405,-7562,-4,384,-4646,23,-89,-39,35
406,-7559,4,354,-4645,23,-88,-39,35
407,-7566,-8,356,-4645,23,-86,-39,34
408,-7576,-10,365,-4639,23,-87,-39,35
409,-7588,-6,360,-4645,23,-87,-40,34
410,-7576,5,380,-4643,23,-87,-41,35
411,-7575,-10,363,-4638,23,-88,-41,35
412,-7570,-19,366,-4637,23,-88,-40,35
413,-7580,-25,373,-4640,23,-86,-39,34
414,-7580,-13,369,-4639,23,-87,-38,33
415,-7565,1,371,-4637,23,-88,-37,35
416,-7580,3,371,-4640,23,-87,-38,34
417,-7574,3,368,-4638,23,-88,-38,34
418,-7581,-1,394,-4639,23,-87,-37,35
419,-7580,4,387,-4643,23,-86,-38,33
420,-7576,11,387,-4645,23,-86,-37,33
421,-7572,8,377,-4644,23,-88,-39,34
422,-7580,-3,367,-4642,23,-87,-39,37
423,-7559,-14,361,-4639,23,-87,-39,35
424,-7580,-14,357,-4641,23,-86,-38,34
425,-7579,-3,359,-4644,23,-87,-38,34
426,-7576,-4,359,-4640,23,-88,-38,35
427,-7579,1,382,-4636,23,-88,-37,34
428,-7566,-18,376,-4638,23,-87,-38,34
429,-7566,-5,382,-4637,23,-87,-39,34
430,-7575,-11,372,-4635,23,-86,-39,34
431,-7576,-5,365,-4642,23,-85,-38,36
432,-7574,-13,350,-4641,23,-88,-38,38
433,-7576,-12,362,-4644,23,-89,-36,36
434,-7564,-4,379,-4643,23,-88,-37,35
435,-7578,-5,395,-4644,23,-89,-38,33
436,-7580,-11,360,-4646,23,-92,-38,33
437,-7593,-7,370,-4648,23,-89,-38,34
438,-7579,-20,356,-4647,23,-88,-39,32
439,-7579,-17,359,-4644,23,-87,-38,35
440,-7576,8,369,-4644,23,-86,-39,33
441,-7579,-8,399,-4643,23,-87,-38,33
442,-7579,-15,388,-4644,23,-88,-37,35
443,-7571,-9,385,-4643,23,-87,-38,34
444,-7564,-5,376,-4642,23,-87,-39,33
445,-7571,-5,388,-4645,23,-86,-40,34
446,-7585,-13,372,-4648,23,-89,-41,33
447,-7584,-2,399,-4648,23,-88,-41,33
448,-7567,-3,377,-4648,23,-87,-40,34
449,-7570,-1,360,-4644,23,-87,-39,34
450,-7563,11,373,-4647,23,-86,-39,34
451,-7569,-9,381,-4640,23,-85,-38,34
452,-7584,2,388,-4641,23,-87,-39,33
453,-7581,-1,364,-4643,23,-88,-39,34
454,-7570,5,366,-4646,23,-87,-40,34
455,-7569,-6,373,-4645,23,-87,-37,34
456,-7569,9,359,-4652,23,-88,-39,33
457,-7575,5,384,-4648,23,-87,-40,36
458,-7572,-8,381,-4645,23,-88,-39,35
459,-7560,-24,373,-4646,23,-87,-38,35
460,-7584,-13,400,-4650,23,-89,-38,34
461,-7584,-2,383,-4650,23,-89,-39,34
462,-7573,-5,388,-4648,23,-88,-39,34
463,-7585,3,378,-4645,23,-88,-38,33
464,-7602,17,375,-4644,23,-87,-40,33
465,-7587,-1,377,-4644,23,-88,-39,34
466,-7572,-7,361,-4645,23,-86,-40,33
467,-7572,-7,355,-4638,23,-88,-39,34
468,-7582,0,366,-4644,23,-87,-38,34
469,-7583,-13,391,-4638,23,-87,-39,34
470,-7581,-4,358,-4642,23,-86,-37,33
471,-7582,5,375,-4642,23,-85,-38,34
472,-7566,8,371,-4646,23,-86,-37,34
473,-7571,-5,369,-4648,23,-87,-37,35
474,-7574,0,365,-4645,23,-87,-38,34
475,-7580,-4,363,-4645,23,-86,-37,34
476,-7586,-4,362,-4649,23,-86,-40,34
477,-7594,-4,375,-4643,23,-87,-38,33
478,-7576,2,386,-4646,23,-87,-38,34
479,-7575,-2,382,-4644,23,-86,-39,34
480,-7590,-10,369,-4646,23,-87,-39,34
481,-7587,-12,350,-4645,23,-87,-39,34
482,-7586,-8,370,-4643,23,-85,-39,34
483,-7566,-7,382,-4645,23,-87,-39,33
484,-7567,-6,369,-4648,23,-88,-38,34
485,-7575,-8,374,-4645,23,-88,-39,34
486,-7591,-6,356,-4644,23,-88,-39,35
487,-7577,-5,364,-4644,23,-87,-40,35
488,-7563,-7,377,-4642,23,-88,-39,35
489,-7586,-10,385,-4645,23,-88,-40,35
490,-7573,-15,387,-4643,23,-87,-39,35
491,-7575,-1,398,-4645,23,-84,-40,35
492,-7604,-3,379,-4644,23,-86,-39,34
493,-7590,-16,368,-4642,23,-86,-38,35
494,-7586,-7,365,-4647,23,-87,-37,37
495,-7579,-7,379,-4642,23,-88,-37,35
496,-7575,-4,374,-4645,23,-87,-39,35
497,-7564,-10,372,-4649,23,-87,-38,34
498,-7572,-15,377,-4647,23,-87,-38,36
499,-7575,-19,365,-4642,23,-87,-38,35
500,-7569,-17,387,-4643,23,-87,-39,35
501,-7579,5,374,-4639,23,-90,-39,34
502,-7579,1,362,-4645,23,-89,-40,35
503,-7574,-18,374,-4649,23,-86,-39,34
504,-7587,-14,393,-4641,23,-87,-38,33
505,-7581,-17,361,-4639,23,-88,-37,35
506,-7583,-9,385,-4645,23,-88,-36,35
507,-7577,11,399,-4643,23,-87,-39,35
508,-7586,-15,403,-4648,23,-88,-39,34
509,-7580,-14,376,-4643,23,-85,-39,33
510,-7575,-21,362,-4647,23,-86,-39,34
511,-7596,-15,372,-4645,23,-86,-40,34
512,-7589,-13,363,-4641,23,-89,-39,34
513,-7574,-6,340,-4640,23,-89,-38,35
514,-7592,-17,347,-4637,23,-88,-39,37
515,-7568,-5,365,-4637,23,-87,-39,36
516,-7575,-29,358,-4639,23,-87,-38,35
517,-7569,-15,376,-4641,23,-86,-39,34
518,-7573,5,392,-4641,23,-87,-40,35
519,-7559,-7,380,-4643,23,-88,-41,36
520,-7569,1,382,-4641,23,-87,-39,33
521,-7561,-11,374,-4640,23,-87,-38,34
522,-7559,-3,349,-4638,23,-87,-39,36
523,-7575,-7,376,-4639,23,-87,-37,35
524,-7580,-1,383,-4640,23,-87,-37,35
525,-7580,-13,386,-4641,23,-88,-37,36
526,-7578,-11,399,-4649,23,-87,-38,35
527,-7587,-4,397,-4642,23,-87,-38,34
528,-7572,0,389,-4638,23,-87,-39,35
529,-7559,-17,381,-4641,23,-87,-39,35
530,-7578,-3,353,-4636,23,-86,-39,35
531,-7585,-15,371,-4636,23,-86,-40,34
532,-7582,-10,366,-4642,23,-86,-39,36
533,-7573,-1,378,-4639,23,-86,-39,36
534,-7583,-5,367,-4640,23,-86,-37,35
535,-7568,-1,379,-4642,23,-86,-37,34
536,-7571,5,363,-4640,23,-88,-38,33
537,-7577,-10,364,-4640,23,-88,-40,34
538,-7572,-20,369,-4644,23,-87,-39,34
539,-7573,-5,396,-4643,23,-87,-38,35
540,-7584,8,377,-4642,23,-88,-38,35
541,-7577,4,379,-4644,23,-87,-38,35
542,-7592,6,363,-4643,23,-88,-39,35
543,-7583,7,362,-4641,23,-87,-38,34
544,-7574,3,385,-4641,23,-88,-39,34
545,-7589,-9,378,-4640,23,-86,-39,34
546,-7586,-10,367,-4640,23,-87,-38,35
547,-7578,-17,358,-4649,23,-87,-37,34
548,-7592,0,366,-4649,23,-88,-38,35
549,-7572,2,379,-4646,23,-87,-39,35
550,-7576,-5,386,-4647,23,-86,-39,34
551,-7573,-7,398,-4641,23,-87,-38,34
552,-7578,-9,397,-4644,23,-87,-39,33
553,-7594,-7,372,-4646,23,-88,-40,34
554,-7576,-1,381,-4643,23,-87,-37,35
555,-7574,-7,379,-4640,23,-87,-37,35
556,-7592,-10,384,-4643,23,-87,-39,35
557,-7583,-4,378,-4643,23,-87,-37,36
558,-7579,-11,378,-4641,23,-88,-39,34
559,-7588,-6,388,-4640,23,-87,-38,36
560,-7575,2,376,-4639,23,-88,-38,36
561,-7572,-16,390,-4640,23,-87,-38,35
562,-7576,0,386,-4640,23,-90,-38,34
563,-7567,-17,381,-4642,23,-88,-41,33
564,-7586,-24,378,-4643,23,-87,-39,33
565,-7584,-2,383,-4646,23,-87,-39,33
566,-7572,-8,384,-4640,23,-88,-40,34
567,-7577,-1,399,-4643,23,-89,-39,35
568,-7567,6,372,-4642,23,-86,-39,35
569,-7580,-7,392,-4639,23,-87,-40,36
570,-7582,-2,388,-4640,23,-87,-40,34
571,-7575,-1,366,-4641,23,-88,-40,33
572,-7573,-2,372,-4647,23,-89,-40,34
573,-7560,-4,393,-4646,23,-86,-40,34
574,-7561,1,372,-4644,23,-88,-39,35
575,-7565,-4,374,-4639,23,-88,-36,35
576,-7561,-19,362,-4639,23,-89,-38,36
577,-7571,-16,381,-4641,23,-88,-38,36
578,-7582,-10,372,-4642,23,-87,-39,36
579,-7580,-3,384,-4645,23,-87,-41,36
580,-7575,-9,391,-4644,23,-86,-41,34
581,-7584,-18,383,-4642,23,-88,-38,36
582,-7564,-9,384,-4643,23,-89,-38,33
583,-7578,3,383,-4644,23,-90,-38,34
584,-7583,-3,375,-4643,23,-88,-38,35
585,-7578,-6,383,-4643,23,-87,-39,36
586,-7581,-3,382,-4643,23,-88,-38,35
587,-7581,-3,389,-4639,23,-86,-38,34
588,-7587,4,398,-4645,23,-87,-37,35
589,-7579,13,376,-4640,23,-87,-38,34
590,-7574,-8,384,-4639,23,-85,-39,34
591,-7578,-10,377,-4637,23,-86,-38,35
592,-7580,-18,371,-4644,23,-86,-39,34
593,-7590,-2,376,-4638,23,-86,-37,35
594,-7597,-13,380,-4639,23,-87,-37,34
595,-7592,-3,392,-4639,23,-88,-37,35
596,-7585,4,376,-4634,23,-87,-39,36
597,-7598,4,387,-4637,23,-86,-39,36
598,-7591,-2,384,-4645,23,-88,-40,35
599,-7584,14,361,-4646,23,-88,-39,34
600,-7582,6,367,-4647,23,-88,-38,36
601,-7583,-22,373,-4641,23,-88,-37,35
602,-7586,-11,393,-4645,23,-88,-39,35
603,-7590,-13,375,-4641,23,-88,-40,33
604,-7589,-5,368,-4641,23,-88,-39,33
605,-7579,-6,378,-4639,23,-89,-38,35
606,-7584,2,373,-4643,23,-88,-38,35
607,-7571,0,390,-4642,23,-89,-40,34
608,-7562,-9,385,-4646,23,-86,-41,34
609,-7559,-15,388,-4641,23,-88,-41,33
610,-7567,-9,387,-4639,23,-87,-39,34
611,-7573,-3,386,-4646,23,-88,-37,35
612,-7567,-13,383,-4642,23,-87,-37,34
613,-7583,-1,371,-4641,23,-88,-37,35
614,-7583,-13,352,-4643,23,-87,-38,35
615,-7581,-20,370,-4642,23,-89,-40,36
616,-7572,-12,380,-4643,23,-88,-38,35
617,-7583,-14,356,-4639,23,-89,-38,35
618,-7593,-4,368,-4642,23,-88,-38,35
619,-7592,1,362,-4639,23,-86,-39,35
620,-7586,-4,377,-4643,23,-88,-39,35
621,-7574,12,386,-4644,23,-88,-39,35
622,-7580,18,379,-4640,23,-89,-37,35
623,-7593,15,360,-4637,23,-89,-37,34
624,-7593,18,357,-4640,23,-89,-37,34
625,-7595,-2,376,-4642,23,-88,-40,35
626,-7586,7,387,-4643,23,-88,-39,35
627,-7568,8,376,-4636,23,-88,-40,36
628,-7584,-18,363,-4639,23,-88,-40,35
629,-7563,-10,369,-4640,23,-87,-41,35
630,-7575,-7,367,-4644,23,-88,-39,34
631,-7583,-8,380,-4642,23,-87,-39,33
632,-7588,-9,374,-4646,23,-87,-38,35
633,-7597,-18,372,-4638,23,-86,-37,34
634,-7595,-10,372,-4637,23,-86,-38,34
635,-7578,-16,370,-4639,23,-86,-38,34
636,-7584,-14,367,-4641,23,-86,-38,35
637,-7583,4,360,-4640,23,-87,-39,34
638,-7578,-14,381,-4642,23,-88,-39,34
639,-7576,-13,391,-4639,23,-88,-39,35
640,-7567,-15,396,-4642,23,-86,-38,35
641,-7566,3,374,-4636,23,-86,-38,35
642,-7560,11,376,-4638,23,-86,-39,35
643,-7567,-5,374,-4647,23,-87,-39,34
644,-7571,4,378,-4646,23,-87,-40,35
645,-7574,4,379,-4640,23,-88,-37,35
646,-7581,-12,389,-4638,23,-88,-38,33
647,-7587,-5,372,-4635,23,-87,-37,35
648,-7572,-5,374,-4637,23,-87,-37,35
649,-7568,-2,376,-4641,23,-86,-39,33
650,-7566,0,382,-4643,23,-86,-40,35
651,-7581,-20,379,-4642,23,-86,-39,34
652,-7585,-3,367,-4640,23,-86,-38,35
653,-7584,-9,357,-4640,23,-86,-38,35
654,-7588,-6,380,-4645,23,-88,-38,33
655,-7570,-12,394,-4643,23,-87,-39,34
656,-7576,-7,376,-4644,23,-87,-40,35
657,-7585,2,377,-4639,23,-88,-38,32
658,-7590,-12,366,-4647,23,-87,-39,34
659,-7585,-15,365,-4642,23,-87,-38,35
660,-7587,-18,386,-4644,23,-87,-38,37
661,-7589,-19,368,-4640,23,-85,-38,36
662,-7577,-10,363,-4645,23,-85,-39,36
663,-7569,-8,363,-4646,23,-87,-39,34
664,-7558,-20,357,-4639,23,-86,-38,34
665,-7558,-15,359,-4643,23,-86,-38,36
666,-7573,-17,373,-4641,23,-87,-40,35
667,-7579,11,373,-4636,23,-86,-39,34
668,-7591,-3,361,-4639,23,-88,-39,33
669,-7589,-5,390,-4643,23,-88,-37,35
670,-7572,12,391,-4645,23,-88,-37,34
671,-7576,2,389,-4641,23,-87,-38,35
672,-7578,-10,373,-4638,23,-88,-38,35
673,-7575,-9,384,-4635,23,-88,-40,35
674,-7576,-3,394,-4633,23,-89,-38,35
675,-7583,-15,376,-4634,23,-88,-37,35
676,-7574,-10,364,-4636,23,-86,-38,36
677,-7590,-3,374,-4642,23,-86,-38,34
678,-7589,-11,397,-4644,23,-88,-40,34
679,-7581,-11,364,-4640,23,-87,-38,35
680,-7594,-4,382,-4642,23,-87,-37,35
681,-7595,-4,365,-4639,23,-88,-40,35
682,-7578,-19,381,-4640,23,-87,-38,37
683,-7567,-8,371,-4641,23,-89,-39,35
684,-7554,-9,378,-4636,23,-89,-38,36
685,-7562,-14,390,-4642,23,-87,-38,35
686,-7574,-12,387,-4644,23,-87,-38,36
687,-7572,-4,380,-4641,23,-87,-39,33
688,-7578,-9,371,-4642,23,-87,-40,33
689,-7586,-5,361,-4637,23,-87,-40,35
690,-7587,-10,345,-4637,23,-86,-39,34
691,-7592,-18,371,-4640,23,-86,-40,35
692,-7590,-19,371,-4642,23,-87,-38,35
693,-7595,-2,374,-4644,23,-88,-38,34
694,-7578,-14,393,-4642,23,-88,-38,34
695,-7573,3,377,-4640,23,-89,-37,35
696,-7580,3,365,-4641,23,-88,-38,34
697,-7570,-6,372,-4645,23,-87,-39,34
698,-7569,-4,369,-4641,23,-87,-38,36
699,-7573,-8,368,-4642,23,-87,-38,35
700,-7557,-12,385,-4637,23,-86,-38,34
701,-7568,-6,376,-4637,23,-88,-40,35
702,-7582,-22,392,-4642,23,-86,-37,35
703,-7580,-11,383,-4637,23,-87,-39,35
704,-7579,-15,394,-4638,23,-86,-40,34
705,-7577,-8,368,-4637,23,-85,-40,33
706,-7567,-8,370,-4639,23,-87,-39,34
707,-7574,-11,367,-4641,23,-86,-37,36
708,-7581,-11,376,-4636,23,-86,-41,37
709,-7579,-11,374,-4637,23,-88,-38,35
710,-7584,-6,357,-4641,23,-86,-39,35
711,-7587,-7,381,-4642,23,-87,-38,35
712,-7582,4,382,-4643,23,-88,-37,35
713,-7578,-11,365,-4643,23,-88,-37,35
714,-7575,-6,369,-4644,23,-88,-38,36
715,-7579,7,389,-4638,23,-88,-38,35
716,-7577,-6,385,-4638,23,-88,-39,34
717,-7577,-12,398,-4635,23,-88,-40,35
718,-7582,-6,397,-4635,23,-87,-40,35
719,-7595,0,402,-4640,23,-87,-40,35
720,-7577,6,375,-4641,23,-87,-41,36
721,-7577,4,358,-4638,23,-87,-38,35
722,-7578,5,379,-4641,23,-86,-37,36
723,-7584,6,380,-4641,23,-87,-40,36
724,-7577,-20,407,-4644,23,-87,-39,35
725,-7567,6,383,-4645,23,-87,-39,34
726,-7588,-8,368,-4642,23,-88,-40,34
727,-7584,-19,377,-4638,23,-88,-39,36
728,-7578,-9,361,-4637,23,-87,-39,33
729,-7569,-8,386,-4645,23,-88,-40,35
730,-7579,-10,386,-4641,23,-89,-39,35
731,-7569,-1,382,-4642,23,-89,-39,34
732,-7569,-9,393,-4643,23,-89,-39,35
733,-7580,1,393,-4641,23,-88,-39,35
734,-7586,-6,377,-4638,23,-88,-39,34
735,-7579,14,370,-4638,23,-87,-37,33
736,-7577,4,364,-4643,23,-87,-39,34
737,-7572,1,374,-4645,23,-89,-38,34
738,-7575,11,390,-4642,23,-88,-39,34
739,-7580,13,393,-4644,23,-88,-37,36
740,-7580,-3,385,-4639,23,-89,-38,35
741,-7580,-4,395,-4641,23,-87,-38,35
742,-7571,-7,387,-4636,23,-89,-38,36
743,-7571,5,385,-4644,23,-87,-38,34
744,-7566,3,378,-4638,23,-87,-39,33
745,-7575,-2,384,-4638,23,-88,-40,33
746,-7574,-11,382,-4640,23,-88,-40,34
747,-7588,-11,397,-4641,23,-88,-41,34
748,-7591,-10,389,-4639,23,-88,-38,34
749,-7569,-12,378,-4641,23,-88,-37,35
750,-7567,-2,398,-4638,23,-89,-38,34
751,-7569,-15,363,-4634,23,-87,-38,34
752,-7578,-13,371,-4635,23,-87,-38,34
753,-7568,-19,347,-4641,23,-87,-40,35
754,-7573,-13,365,-4642,23,-88,-39,35
755,-7585,-3,362,-4640,23,-88,-40,36
756,-7561,-5,376,-4635,23,-87,-39,34
757,-7566,-8,383,-4640,23,-86,-40,35
758,-7581,-11,388,-4640,23,-88,-40,34
759,-7581,-12,378,-4642,23,-87,-39,34
760,-7586,-4,397,-4641,23,-86,-36,35
761,-7564,-16,368,-4638,23,-86,-38,36
762,-7573,-5,389,-4639,23,-87,-39,35
763,-7583,-6,381,-4641,23,-86,-38,35
764,-7581,-8,367,-4642,23,-85,-38,34
765,-7577,1,363,-4636,23,-88,-39,35
766,-7573,-19,359,-4639,23,-88,-40,34
767,-7584,-8,370,-4637,23,-86,-39,33
768,-7587,-1,371,-4642,23,-87,-39,34
769,-7586,-10,363,-4639,23,-87,-40,35
770,-7590,-8,388,-4638,23,-86,-40,35
771,-7591,-13,393,-4642,23,-87,-39,36
772,-7565,-8,384,-4641,23,-86,-38,35
773,-7571,-11,394,-4643,23,-87,-39,34
774,-7571,-15,385,-4641,23,-86,-40,34
775,-7580,-3,381,-4641,23,-87,-39,35
776,-7592,-5,383,-4642,23,-87,-38,36
777,-7586,-1,370,-4643,23,-88,-38,36
778,-7577,-4,387,-4644,23,-87,-39,36
779,-7581,4,371,-4641,23,-87,-38,35
780,-7581,3,377,-4641,23,-88,-37,33
781,-7591,-5,380,-4640,23,-87,-39,34
782,-7586,5,373,-4638,23,-89,-38,35
783,-7578,6,387,-4642,23,-89,-38,36
784,-7594,-11,386,-4644,23,-89,-37,35
785,-7576,3,381,-4646,23,-87,-39,34
786,-7575,7,365,-4647,23,-87,-37,35
787,-7565,-4,378,-4644,23,-88,-38,35
788,-7581,5,364,-4642,23,-88,-39,33
789,-7571,-8,354,-4643,23,-87,-36,33
790,-7565,-10,370,-4641,23,-87,-39,34
791,-7583,-9,366,-4639,23,-88,-41,34
792,-7587,-5,367,-4637,23,-88,-39,32
793,-7583,-6,363,-4639,23,-89,-38,32
794,-7585,-15,382,-4640,23,-87,-39,32
795,-7577,-12,382,-4641,23,-88,-37,35
796,-7574,-7,380,-4641,23,-87,-37,34
797,-7580,5,370,-4639,23,-87,-37,34
798,-7572,5,377,-4642,23,-87,-37,33
799,-7564,-1,379,-4643,23,-88,-39,34
800,-7571,-17,392,-4641,23,-88,-40,34
801,-7584,-17,368,-4642,23,-88,-40,34
802,-7588,-10,377,-4638,23,-88,-39,34
803,-7580,-4,368,-4640,23,-88,-39,35
804,-7579,5,371,-4635,23,-86,-40,34
805,-7575,-10,377,-4637,23,-88,-37,34
806,-7575,-9,371,-4638,23,-88,-40,33
807,-7577,-6,388,-4641,23,-87,-40,34
808,-7586,-19,369,-4636,23,-87,-39,34
809,-7592,-18,373,-4637,23,-86,-39,35
810,-7592,-6,374,-4643,23,-86,-39,36
811,-7574,-3,370,-4640,23,-87,-39,35
812,-7583,-8,366,-4638,23,-88,-38,34
813,-7584,-10,373,-4640,23,-88,-39,35
814,-7589,-10,389,-4638,23,-87,-38,36
815,-7567,-5,349,-4641,23,-87,-37,35
816,-7559,-13,370,-4641,23,-88,-38,35
817,-7578,-25,363,-4644,23,-88,-38,36
818,-7588,-14,372,-4646,23,-88,-37,35
819,-7582,-3,385,-4642,23,-88,-39,34
820,-7579,-15,370,-4643,23,-89,-40,34
821,-7598,-27,397,-4643,23,-89,-40,33
822,-7585,-15,380,-4649,23,-88,-39,34
823,-7581,-12,371,-4640,23,-88,-41,35
824,-7592,-10,376,-4638,23,-88,-39,35
825,-7586,-13,376,-4638,23,-88,-39,35
826,-7586,-12,373,-4641,23,-84,-39,37
827,-7580,-12,375,-4638,23,-86,-37,36
828,-7588,-24,379,-4638,23,-85,-36,37
829,-7585,-11,376,-4641,23,-84,-38,36
830,-7577,-1,362,-4640,23,-87,-39,36
831,-7575,-5,353,-4642,23,-86,-40,35
832,-7576,-23,351,-4638,23,-89,-40,33
833,-7585,-6,373,-4640,23,-85,-38,33
834,-7583,-15,370,-4640,23,-88,-37,34
835,-7582,-8,390,-4641,23,-86,-38,34
836,-7564,-15,369,-4636,23,-87,-37,33
837,-7593,-8,389,-4636,23,-88,-37,35
838,-7586,13,387,-4635,23,-88,-38,34
839,-7585,-3,382,-4641,23,-88,-38,35
840,-7572,-5,384,-4640,23,-87,-38,35
841,-7572,-9,371,-4639,23,-87,-39,34
842,-7570,-13,373,-4636,23,-87,-38,35
843,-7568,-25,376,-4638,23,-88,-38,35
844,-7557,0,379,-4643,23,-87,-38,34
845,-7575,-3,396,-4640,23,-87,-36,35
846,-7572,-9,375,-4641,23,-87,-37,34
847,-7570,-10,386,-4638,23,-88,-38,34
848,-7580,2,385,-4631,23,-87,-39,34
849,-7580,-7,388,-4633,23,-88,-39,33
850,-7576,-9,364,-4639,23,-89,-39,33
851,-7573,-13,374,-4637,23,-88,-40,34
852,-7580,-1,369,-4642,23,-87,-39,35
853,-7573,-13,362,-4641,23,-86,-38,35
854,-7581,-16,386,-4638,23,-86,-38,33
855,-7584,-9,377,-4641,23,-87,-40,35
856,-7592,-19,373,-4645,23,-88,-40,36
857,-7591,-4,375,-4640,23,-88,-40,35
858,-7575,-6,369,-4640,23,-86,-39,35
859,-7578,-11,386,-4638,23,-85,-40,33
860,-7578,-8,383,-4642,23,-86,-39,34
861,-7583,4,374,-4638,23,-87,-40,35
862,-7582,-19,397,-4638,23,-87,-39,34
863,-7591,-18,388,-4636,23,-86,-38,34
864,-7579,-7,361,-4635,23,-85,-38,34
865,-7565,-1,363,-4633,23,-86,-39,37
866,-7565,-2,389,-4633,23,-88,-39,35
867,-7583,-10,383,-4633,23,-89,-38,34
868,-7590,-15,367,-4634,23,-88,-38,33
869,-7581,-14,382,-4635,23,-86,-40,33
870,-7565,-15,393,-4635,23,-87,-39,33
871,-7576,-26,399,-4637,23,-87,-40,35
872,-7575,-20,377,-4637,23,-87,-39,34
873,-7576,-15,363,-4637,23,-86,-38,34
874,-7601,-5,385,-4646,23,-87,-39,35
875,-7590,-21,391,-4643,23,-88,-38,35
876,-7586,-10,386,-4646,23,-87,-39,34
877,-7592,-11,375,-4634,23,-88,-37,34
878,-7575,-20,379,-4636,23,-87,-38,34
879,-7582,-6,371,-4638,23,-88,-37,34
880,-7579,6,388,-4639,23,-87,-38,34
881,-7581,1,382,-4640,23,-86,-39,35
882,-7569,-5,387,-4638,23,-86,-39,36
883,-7585,3,368,-4640,23,-89,-37,35
884,-7573,-17,370,-4635,23,-88,-37,34
885,-7570,-13,386,-4634,23,-87,-36,35
886,-7573,-11,380,-4642,23,-89,-38,33
887,-7590,-17,387,-4635,23,-88,-37,34
888,-7582,-11,393,-4639,23,-88,-39,35
889,-7574,0,372,-4643,23,-87,-38,35
890,-7572,6,368,-4643,23,-87,-38,35
891,-7583,2,362,-4641,23,-88,-39,36
892,-7591,4,368,-4638,23,-86,-38,35
893,-7577,-7,366,-4639,23,-88,-37,35
894,-7580,-14,358,-4638,23,-89,-37,34
895,-7590,6,346,-4641,23,-86,-37,33
896,-7589,-13,373,-4638,23,-87,-38,34
897,-7584,-14,355,-4637,23,-87,-40,35
898,-7595,3,393,-4635,23,-88,-39,34
899,-7582,-8,381,-4640,23,-87,-38,34
900,-7585,9,365,-4636,23,-89,-38,34
901,-7576,8,406,-4639,23,-89,-38,35
902,-7572,-1,378,-4640,23,-87,-37,34
903,-7557,-10,351,-4639,23,-89,-38,35
904,-7565,-2,368,-4639,23,-88,-38,34
905,-7580,7,367,-4637,23,-87,-38,33
906,-7580,-9,349,-4642,23,-87,-40,33
907,-7583,-16,377,-4641,23,-86,-39,35
908,-7587,-6,369,-4642,23,-87,-40,35
909,-7584,-11,371,-4640,23,-87,-39,35
910,-7576,-14,373,-4635,23,-86,-38,36
911,-7571,-5,372,-4641,23,-85,-39,36
912,-7582,-18,389,-4639,23,-87,-38,36
913,-7586,-16,362,-4638,23,-87,-40,35
914,-7576,-29,383,-4643,23,-89,-39,34
915,-7559,-17,364,-4635,23,-87,-40,35
916,-7564,-13,357,-4633,23,-87,-41,35
917,-7571,-17,380,-4642,23,-87,-41,35
918,-7580,-7,381,-4641,23,-87,-38,34
919,-7581,-1,413,-4640,23,-88,-37,35
920,-7587,-9,393,-4635,23,-88,-38,33
921,-7592,-11,398,-4632,23,-89,-38,33
922,-7578,-13,381,-4631,23,-88,-40,35
923,-7592,-6,370,-4636,23,-89,-39,35
924,-7565,-13,373,-4639,23,-91,-38,34
925,-7574,1,393,-4641,23,-88,-38,35
926,-7577,-11,401,-4646,23,-87,-38,35
927,-7568,-10,387,-4643,23,-87,-38,35
928,-7564,-1,378,-4640,23,-88,-38,36
929,-7574,-7,394,-4635,23,-88,-39,35
930,-7571,-18,348,-4640,23,-88,-38,34
931,-7576,-15,354,-4641,23,-86,-38,35
932,-7559,-6,372,-4641,23,-89,-38,33
933,-7559,1,350,-4638,23,-87,-39,34
934,-7565,2,371,-4636,23,-87,-39,34
935,-7586,1,388,-4638,23,-88,-36,35
936,-7579,4,395,-4633,23,-86,-38,37
937,-7576,5,382,-4637,23,-87,-39,36
938,-7568,-9,388,-4636,23,-87,-39,35
939,-7577,1,355,-4643,23,-87,-39,35
940,-7571,11,357,-4640,23,-87,-39,36
941,-7567,17,373,-4635,23,-88,-38,34
942,-7571,-4,365,-4639,23,-88,-38,35
943,-7569,-3,381,-4638,23,-87,-38,35
944,-7584,-15,377,-4636,23,-87,-38,35
945,-7574,-29,348,-4639,23,-88,-37,36
946,-7588,-1,365,-4636,23,-88,-37,35
947,-7575,-2,363,-4642,23,-88,-38,34
948,-7585,-10,364,-4638,23,-87,-38,34
949,-7575,-17,381,-4640,23,-88,-39,35
950,-7576,-11,358,-4640,23,-88,-39,35
951,-7581,-10,364,-4640,23,-87,-38,36
952,-7579,-17,367,-4637,23,-87,-37,35
953,-7563,-7,363,-4640,23,-88,-38,35
954,-7581,-22,361,-4636,23,-86,-37,35
955,-7588,-20,363,-4634,23,-86,-36,34
956,-7569,-14,366,-4630,23,-86,-38,34
957,-7596,-10,368,-4635,23,-87,-40,36
958,-7593,-4,365,-4635,23,-88,-38,36
959,-7580,-6,391,-4635,23,-88,-38,36
960,-7581,5,362,-4636,23,-89,-38,34
961,-7584,-12,378,-4631,23,-88,-40,35
962,-7576,-27,394,-4632,23,-89,-39,35
963,-7583,-14,391,-4636,23,-87,-40,35
964,-7595,-13,364,-4639,23,-87,-39,34
965,-7585,-3,383,-4632,23,-87,-38,34
966,-7583,-10,372,-4636,23,-88,-39,35
967,-7572,-4,384,-4639,23,-88,-39,33
968,-7580,-9,370,-4639,23,-88,-40,34
969,-7576,-3,375,-4637,23,-89,-39,34
970,-7572,1,390,-4634,23,-88,-40,34
971,-7568,-11,383,-4636,23,-87,-39,34
972,-7571,-12,386,-4631,23,-87,-39,35
973,-7564,-6,374,-4634,23,-88,-39,34
974,-7573,-14,379,-4636,23,-88,-41,34
975,-7590,-7,395,-4633,23,-86,-38,34
976,-7581,1,378,-4636,23,-87,-39,35
977,-7571,-4,370,-4640,23,-88,-38,35
978,-7580,-13,350,-4637,23,-87,-40,35
979,-7581,-1,354,-4635,23,-87,-39,33
980,-7586,-1,359,-4634,23,-87,-39,34
981,-7602,-10,373,-4632,23,-88,-39,35
982,-7576,4,379,-4630,23,-87,-39,36
983,-7567,-22,394,-4638,23,-89,-41,34
984,-7574,-11,368,-4633,23,-89,-38,34
985,-7587,-11,378,-4635,23,-87,-39,35
986,-7572,2,351,-4630,23,-88,-41,34
987,-7571,3,355,-4634,23,-87,-39,36
988,-7575,-3,352,-4631,23,-88,-38,35
989,-7585,-7,361,-4630,23,-88,-38,34
990,-7578,-16,362,-4635,23,-89,-38,35
991,-7591,-7,378,-4639,23,-88,-39,35
992,-7577,-3,391,-4637,23,-88,-40,36
993,-7583,-11,380,-4637,23,-87,-39,34
994,-7584,-12,378,-4640,23,-87,-39,34
995,-7576,-16,373,-4634,23,-85,-37,34
996,-7570,-9,388,-4633,23,-88,-38,34
997,-7588,0,370,-4639,23,-89,-37,33
998,-7584,-16,383,-4635,23,-88,-36,34
