,acc_X,acc_Y,acc_Z,temp,tempC,gyr_X,gyr_Y,gyr_Z
0,-3784,-3,181,-4754,23,-345,-153,140
1,-3784,-5,180,-4754,23,-345,-154,141
2,-3784,-5,178,-4754,23,-346,-157,140
3,-3784,-5,182,-4754,23,-349,-152,136
4,-3790,-2,184,-4753,23,-346,-151,138
5,-3787,-2,180,-4753,23,-350,-153,135
6,-3785,-4,185,-4753,23,-344,-155,138
7,-3787,-7,183,-4753,23,-346,-149,139
8,-3790,-9,180,-4753,23,-350,-151,140
9,-3794,-11,184,-4751,23,-346,-153,141
10,-3790,-6,185,-4751,23,-348,-155,140
11,-3791,-5,180,-4751,23,-352,-153,135
12,-3788,-1,180,-4751,23,-352,-149,137
13,-3790,4,189,-4752,23,-350,-153,137
14,-3787,1,183,-4749,23,-347,-154,140
15,-3787,1,184,-4751,23,-346,-154,141
16,-3789,2,184,-4748,23,-345,-156,137
17,-3788,4,195,-4745,23,-344,-154,139
18,-3786,-2,194,-4746,23,-345,-151,141
19,-3785,-5,190,-4743,23,-339,-151,143
20,-3788,-9,194,-4742,23,-341,-152,141
21,-3791,-5,194,-4745,23,-339,-150,140
22,-3791,-3,195,-4743,23,-338,-151,138
23,-3790,-6,188,-4744,23,-340,-150,137
24,-3789,-6,188,-4742,23,-339,-148,137
25,-3793,-6,191,-4741,23,-338,-154,135
26,-3790,-6,186,-4742,23,-339,-155,139
27,-3789,-4,178,-4743,23,-344,-153,139
28,-3790,0,180,-4742,23,-347,-155,142
29,-3790,-2,180,-4743,23,-349,-152,137
30,-3787,-1,180,-4741,23,-347,-152,134
31,-3788,-1,184,-4741,23,-347,-153,137
32,-3792,-6,183,-4741,23,-346,-150,136
33,-3790,-9,184,-4740,23,-343,-149,137
34,-3789,-5,183,-4741,23,-347,-153,136
35,-3789,-3,185,-4738,23,-346,-155,139
36,-3790,-1,190,-4740,23,-346,-153,137
37,-3788,1,192,-4738,23,-342,-150,139
38,-3790,1,186,-4739,23,-343,-148,138
39,-3788,3,188,-4738,23,-345,-149,139
40,-3792,3,191,-4739,23,-349,-148,140
41,-3788,3,193,-4740,23,-351,-148,140
42,-3790,-1,188,-4743,23,-352,-151,141
43,-3786,1,185,-4740,23,-347,-151,142
44,-3785,-1,189,-4740,23,-351,-153,143
45,-3787,-3,190,-4742,23,-349,-153,144
46,-3785,-8,189,-4741,23,-345,-151,145
47,-3790,-4,194,-4740,23,-347,-149,148
48,-3790,-4,190,-4739,23,-348,-149,143
49,-3789,0,191,-4739,23,-348,-154,142
50,-3789,-3,191,-4737,23,-345,-155,138
51,-3790,-6,192,-4739,23,-348,-149,138
52,-3791,-6,195,-4740,23,-350,-154,141
53,-3798,-3,192,-4737,23,-343,-155,143
54,-3790,-4,187,-4735,23,-345,-153,144
55,-3789,-8,190,-4734,23,-346,-154,143
56,-3784,-4,191,-4734,23,-350,-157,140
57,-3785,-10,187,-4732,23,-343,-154,142
58,-3791,-2,185,-4734,23,-346,-155,140
59,-3788,-2,186,-4736,23,-345,-156,140
60,-3787,-5,187,-4735,23,-348,-155,136
61,-3789,-1,186,-4734,23,-348,-153,137
62,-3793,-6,185,-4734,23,-345,-149,136
63,-3793,-4,180,-4734,23,-346,-146,137
64,-3797,-8,183,-4737,23,-346,-151,136
65,-3796,-7,183,-4740,23,-345,-150,134
66,-3793,-7,178,-4738,23,-343,-153,136
67,-3792,-4,183,-4737,23,-339,-155,138
68,-3789,0,185,-4737,23,-343,-153,134
69,-3792,-1,188,-4737,23,-342,-150,135
70,-3790,-2,184,-4738,23,-344,-153,134
71,-3790,0,180,-4736,23,-347,-152,136
72,-3787,-6,181,-4740,23,-348,-150,138
73,-3794,-7,183,-4735,23,-349,-149,137
74,-3791,1,184,-4736,23,-349,-150,135
75,-3796,-3,189,-4733,23,-346,-152,140
76,-3791,-2,189,-4734,23,-348,-152,138
77,-3789,-2,183,-4733,23,-348,-150,137
78,-3789,0,191,-4734,23,-347,-149,139
79,-3791,-5,190,-4732,23,-350,-151,138
80,-3790,-4,191,-4728,23,-347,-150,137
81,-3785,-3,196,-4728,23,-344,-150,137
82,-3788,-5,191,-4729,23,-346,-156,136
83,-3790,-8,187,-4732,23,-347,-155,142
84,-3791,-5,186,-4730,23,-346,-155,143
85,-3789,0,189,-4731,23,-347,-156,144
86,-3788,0,182,-4730,23,-349,-155,141
87,-3787,-1,180,-4731,23,-347,-152,137
88,-3790,-2,187,-4729,23,-344,-154,137
89,-3792,-3,193,-4731,23,-342,-153,136
90,-3789,-3,188,-4730,23,-346,-152,142
91,-3792,-5,180,-4728,23,-349,-153,142
92,-3787,-4,184,-4731,23,-347,-150,142
93,-3790,-3,184,-4730,23,-345,-153,141
94,-3789,0,183,-4727,23,-345,-157,140
95,-3785,5,180,-4732,23,-343,-157,141
96,-3784,-1,182,-4729,23,-349,-159,141
97,-3788,-1,183,-4732,23,-350,-157,142
98,-3791,0,182,-4728,23,-348,-157,142
99,-3791,-4,182,-4726,23,-346,-155,137
100,-3794,-2,190,-4728,23,-347,-150,132
101,-3792,0,187,-4727,23,-347,-151,136
102,-3789,0,192,-4726,23,-348,-155,139
103,-3786,-4,187,-4725,23,-350,-156,140
104,-3788,-9,188,-4724,23,-347,-155,138
105,-3790,-8,194,-4725,23,-347,-155,141
106,-3790,-8,191,-4720,23,-345,-153,140
107,-3787,-2,188,-4722,23,-346,-153,137
108,-3787,-3,188,-4722,23,-343,-153,134
109,-3788,-2,187,-4725,23,-343,-154,137
110,-3790,0,189,-4723,23,-346,-148,138
111,-3787,-4,192,-4721,23,-345,-153,138
112,-3790,-4,182,-4725,23,-347,-153,141
113,-3794,-1,182,-4728,23,-351,-151,142
114,-3788,-3,183,-4730,23,-349,-149,143
115,-3788,-7,190,-4726,23,-344,-150,142
116,-3788,-4,193,-4727,23,-342,-149,142
117,-3789,0,188,-4724,23,-343,-148,143
118,-3793,3,187,-4725,23,-346,-150,136
119,-3791,-1,186,-4725,23,-347,-153,135
120,-3788,-4,181,-4724,23,-346,-150,142
121,-3791,-4,186,-4722,23,-346,-150,140
122,-3791,-7,186,-4722,23,-349,-147,141
123,-3787,-2,182,-4723,23,-347,-149,139
124,-3783,-2,185,-4721,23,-347,-147,138
125,-3785,-3,188,-4719,23,-346,-145,140
126,-3789,-2,183,-4720,23,-348,-148,136
127,-3788,1,182,-4717,23,-346,-150,135
128,-3788,1,184,-4716,23,-349,-152,140
129,-3787,-1,178,-4720,23,-352,-152,140
130,-3789,0,181,-4715,23,-350,-149,142
131,-3789,2,181,-4716,23,-346,-150,136
132,-3789,3,181,-4719,23,-346,-154,138
133,-3792,0,185,-4721,23,-349,-158,137
134,-3788,-5,186,-4719,23,-352,-153,135
135,-3789,-1,187,-4723,23,-348,-151,136
136,-3788,-4,183,-4723,23,-347,-156,139
137,-3789,-1,187,-4721,23,-346,-156,140
138,-3789,-3,189,-4722,23,-345,-156,140
139,-3786,-4,189,-4720,23,-345,-156,144
140,-3786,-3,188,-4718,23,-348,-156,143
141,-3787,-4,189,-4721,23,-350,-150,140
142,-3790,-1,191,-4722,23,-349,-152,139
143,-3792,-3,184,-4719,23,-349,-152,136
144,-3791,-2,185,-4718,23,-345,-154,135
145,-3794,-4,183,-4717,23,-347,-152,132
146,-3793,-2,185,-4718,23,-347,-154,133
147,-3797,-6,185,-4719,23,-345,-153,135
148,-3793,-9,186,-4718,23,-347,-152,134
149,-3793,-4,186,-4717,23,-343,-151,135
150,-3790,-1,191,-4715,23,-347,-152,137
151,-3790,-1,187,-4716,23,-350,-157,136
152,-3786,-4,187,-4717,23,-347,-154,141
153,-3785,-1,193,-4716,23,-347,-153,136
154,-3788,1,194,-4714,23,-348,-153,137
155,-3790,-4,193,-4714,23,-348,-152,138
156,-3784,-9,193,-4717,23,-346,-153,135
157,-3783,-6,182,-4717,23,-347,-149,139
158,-3787,-3,184,-4713,23,-343,-149,139
159,-3790,-2,186,-4713,23,-343,-155,139
160,-3796,-5,192,-4711,23,-341,-155,136
161,-3792,-6,191,-4712,23,-344,-155,140
162,-3791,-3,188,-4711,23,-342,-154,140
163,-3792,-3,185,-4710,23,-340,-154,141
164,-3792,-5,190,-4712,23,-346,-149,140
165,-3787,-3,187,-4709,23,-342,-147,142
166,-3788,0,184,-4709,23,-345,-149,142
167,-3789,1,185,-4710,23,-345,-149,140
168,-3790,6,194,-4707,23,-345,-150,138
169,-3791,6,191,-4707,23,-348,-156,136
170,-3790,2,183,-4708,23,-350,-155,137
171,-3792,3,186,-4709,23,-350,-152,136
172,-3791,-4,187,-4709,23,-348,-157,136
173,-3789,-7,194,-4709,23,-349,-155,137
174,-3785,-7,192,-4704,23,-346,-154,139
175,-3786,-2,195,-4707,23,-342,-154,137
176,-3784,1,197,-4708,23,-344,-158,139
177,-3789,0,193,-4709,23,-344,-154,142
178,-3791,-2,196,-4712,23,-343,-157,140
179,-3788,-3,191,-4712,23,-348,-153,137
180,-3788,1,190,-4710,23,-347,-155,133
181,-3789,-2,185,-4713,23,-344,-156,136
182,-3791,-1,188,-4714,23,-348,-156,137
183,-3794,0,191,-4712,23,-349,-149,136
184,-3791,-3,189,-4711,23,-348,-151,136
185,-3789,-4,192,-4708,23,-344,-153,136
186,-3786,-4,192,-4713,23,-342,-158,134
187,-3789,-5,189,-4710,23,-346,-153,132
188,-3786,-4,194,-4710,23,-346,-157,135
189,-3783,-2,188,-4713,23,-349,-156,137
190,-3785,2,189,-4709,23,-348,-153,135
191,-3784,3,184,-4710,23,-350,-151,138
192,-3783,-2,188,-4710,23,-346,-151,136
193,-3786,-1,185,-4708,23,-347,-146,136
194,-3790,-3,183,-4709,23,-353,-152,134
195,-3790,-1,184,-4706,23,-351,-155,136
196,-3789,-1,183,-4706,23,-348,-151,136
197,-3787,0,185,-4707,23,-352,-147,135
198,-3789,-5,187,-4709,23,-348,-151,137
199,-3791,-3,184,-4704,23,-350,-147,138
200,-3786,-4,181,-4706,23,-349,-145,138
201,-3787,-1,187,-4705,23,-350,-151,139
202,-3787,-2,184,-4704,23,-348,-150,140
203,-3788,-1,186,-4706,23,-354,-149,139
204,-3791,-2,188,-4711,23,-346,-150,140
205,-3786,-3,186,-4706,23,-344,-151,139
206,-3787,0,185,-4706,23,-347,-150,136
207,-3792,-4,183,-4708,23,-348,-149,135
208,-3794,-4,184,-4707,23,-348,-152,135
209,-3789,-4,181,-4708,23,-345,-150,138
210,-3796,-1,183,-4708,23,-349,-156,139
211,-3792,-2,189,-4707,23,-344,-155,139
212,-3785,-3,189,-4706,23,-345,-153,138
213,-3786,-2,188,-4705,23,-347,-152,137
214,-3780,-2,187,-4705,23,-344,-156,139
215,-3783,-6,183,-4705,23,-348,-155,138
216,-3787,-8,188,-4705,23,-349,-155,137
217,-3788,-4,189,-4703,23,-351,-154,134
218,-3789,-3,191,-4704,23,-351,-156,135
219,-3786,-5,184,-4703,23,-349,-153,140
220,-3788,-5,181,-4706,23,-350,-153,137
221,-3787,-6,173,-4703,23,-349,-155,142
222,-3789,-7,179,-4704,23,-350,-155,140
223,-3787,-6,173,-4702,23,-351,-150,139
224,-3786,-7,180,-4703,23,-352,-149,145
225,-3788,-6,186,-4702,23,-349,-153,143
226,-3784,-6,188,-4703,23,-350,-151,140
227,-3783,-3,189,-4704,23,-351,-148,140
228,-3786,-1,194,-4703,23,-344,-147,140
229,-3785,-2,196,-4705,23,-349,-148,142
230,-3789,2,185,-4703,23,-349,-154,142
231,-3793,-1,189,-4703,23,-347,-154,140
232,-3791,-9,189,-4703,23,-348,-152,139
233,-3791,-5,191,-4703,23,-346,-153,140
234,-3794,-5,185,-4703,23,-345,-153,142
235,-3791,0,191,-4704,23,-344,-150,142
236,-3788,0,191,-4705,23,-343,-149,142
237,-3789,-5,188,-4706,23,-344,-146,136
238,-3788,-6,184,-4704,23,-347,-149,138
239,-3790,-5,179,-4704,23,-346,-149,140
240,-3792,-2,188,-4705,23,-348,-152,136
241,-3790,3,190,-4706,23,-347,-150,137
242,-3793,3,186,-4703,23,-347,-152,134
243,-3796,-3,193,-4702,23,-346,-152,138
244,-3794,-4,181,-4703,23,-348,-151,138
245,-3792,-5,182,-4703,23,-346,-152,138
246,-3789,-7,184,-4701,23,-346,-154,138
247,-3790,-1,186,-4701,23,-345,-156,138
248,-3793,-2,184,-4700,23,-347,-156,138
249,-3793,-1,188,-4699,23,-351,-156,137
250,-3794,-2,185,-4699,23,-352,-155,136
251,-3791,-5,183,-4703,23,-351,-152,137
252,-3789,-10,179,-4705,23,-347,-151,139
253,-3792,-1,190,-4703,23,-348,-153,141
254,-3792,-3,188,-4702,23,-347,-150,142
255,-3790,-5,188,-4701,23,-345,-149,146
256,-3793,-8,192,-4704,23,-345,-155,140
257,-3789,-6,192,-4701,23,-346,-158,141
258,-3787,1,194,-4701,23,-348,-157,140
259,-3791,0,190,-4699,23,-347,-156,145
260,-3791,4,192,-4699,23,-347,-155,145
261,-3791,2,190,-4697,23,-343,-148,141
262,-3791,0,187,-4699,23,-346,-148,139
263,-3787,-1,182,-4697,23,-347,-150,143
264,-3790,0,181,-4696,23,-345,-151,140
265,-3788,-2,184,-4695,23,-346,-150,138
266,-3791,-2,183,-4695,23,-349,-154,137
267,-3790,0,188,-4697,23,-350,-154,140
268,-3788,-6,191,-4700,23,-353,-155,141
269,-3789,-4,191,-4698,23,-351,-151,138
270,-3789,-1,199,-4699,23,-348,-155,142
271,-3790,0,196,-4700,23,-345,-154,139
272,-3788,3,194,-4702,23,-343,-150,143
273,-3787,4,194,-4703,23,-344,-150,140
274,-3787,-3,191,-4697,23,-346,-151,138
275,-3788,-2,189,-4699,23,-347,-154,139
276,-3787,-6,192,-4699,23,-346,-152,136
277,-3788,-2,192,-4701,23,-349,-147,139
278,-3789,0,185,-4702,23,-347,-149,139
279,-3787,0,189,-4699,23,-345,-151,137
280,-3787,-5,192,-4698,23,-347,-152,139
281,-3788,-2,188,-4699,23,-345,-151,142
282,-3788,-2,187,-4697,23,-344,-152,142
283,-3788,-2,188,-4696,23,-342,-150,143
284,-3788,1,188,-4698,23,-342,-154,140
285,-3786,-3,193,-4695,23,-345,-151,140
286,-3792,-1,189,-4698,23,-346,-149,138
287,-3790,1,190,-4700,23,-347,-152,138
288,-3789,-1,188,-4694,23,-344,-147,138
289,-3788,-3,186,-4695,23,-345,-147,142
290,-3788,-5,190,-4698,23,-344,-148,135
291,-3787,-1,194,-4697,23,-347,-149,137
292,-3787,-5,194,-4700,23,-349,-152,141
293,-3788,-3,198,-4701,23,-345,-149,138
294,-3788,-5,199,-4699,23,-351,-148,138
295,-3790,-5,195,-4701,23,-348,-147,139
296,-3787,-3,193,-4696,23,-351,-152,141
297,-3790,0,192,-4695,23,-351,-151,144
298,-3788,-3,186,-4696,23,-349,-146,138
299,-3788,-4,195,-4696,23,-352,-150,140
300,-3792,-4,198,-4695,23,-350,-151,143
301,-3790,-5,197,-4695,23,-347,-149,146
302,-3793,-7,190,-4696,23,-348,-155,143
303,-3791,-1,190,-4693,23,-347,-155,141
304,-3790,0,192,-4691,23,-346,-155,138
305,-3790,-2,196,-4692,23,-344,-156,141
306,-3790,-3,185,-4695,23,-345,-156,142
307,-3791,-3,181,-4693,23,-344,-153,144
308,-3788,-6,185,-4692,23,-343,-154,144
309,-3784,-5,189,-4695,23,-347,-153,142
310,-3788,-7,195,-4695,23,-349,-149,138
311,-3790,-1,190,-4695,23,-349,-151,140
312,-3788,-2,188,-4695,23,-349,-151,139
313,-3788,-4,185,-4695,23,-352,-151,139
314,-3790,-1,186,-4696,23,-352,-152,138
315,-3788,-2,184,-4697,23,-352,-152,136
316,-3791,-2,186,-4694,23,-353,-152,138
317,-3787,-3,187,-4694,23,-352,-157,141
318,-3784,-8,187,-4692,23,-353,-157,142
319,-3786,-9,185,-4695,23,-350,-155,137
320,-3788,-8,184,-4694,23,-349,-152,138
321,-3787,-5,181,-4691,23,-352,-149,138
322,-3791,-4,181,-4693,23,-352,-150,138
323,-3791,-3,186,-4695,23,-350,-149,140
324,-3788,-5,190,-4695,23,-350,-151,143
325,-3788,-4,194,-4693,23,-350,-146,142
326,-3786,-3,191,-4691,23,-348,-146,143
327,-3789,-6,189,-4691,23,-347,-149,143
328,-3789,-10,186,-4687,23,-346,-149,142
329,-3785,-8,188,-4689,23,-347,-149,136
330,-3786,-7,182,-4688,23,-351,-145,139
331,-3787,-6,184,-4691,23,-350,-152,138
332,-3791,-4,184,-4693,23,-349,-155,140
333,-3787,-4,191,-4691,23,-348,-153,140
334,-3792,-3,186,-4691,23,-350,-153,139
335,-3791,-2,186,-4694,23,-350,-151,136
336,-3790,-2,190,-4693,23,-348,-151,137
337,-3792,-3,189,-4692,23,-349,-151,139
338,-3794,-3,186,-4694,23,-349,-154,139
339,-3797,-4,192,-4694,23,-350,-153,137
340,-3794,-4,185,-4696,23,-349,-148,139
341,-3791,-7,188,-4691,23,-347,-147,141
342,-3788,-3,187,-4689,23,-347,-147,140
343,-3789,0,193,-4688,23,-343,-151,141
344,-3787,-2,199,-4693,23,-345,-151,142
345,-3793,2,187,-4692,23,-347,-149,142
346,-3794,0,189,-4692,23,-347,-153,142
347,-3791,3,189,-4689,23,-349,-152,141
348,-3790,4,186,-4686,23,-347,-153,140
349,-3788,-1,189,-4688,23,-344,-151,140
350,-3789,-7,192,-4690,23,-348,-157,140
351,-3789,-4,191,-4688,23,-345,-154,142
352,-3788,-7,188,-4686,23,-347,-153,139
353,-3786,-4,184,-4690,23,-347,-152,137
354,-3792,-1,186,-4688,23,-347,-149,138
355,-3791,-2,198,-4691,23,-346,-157,139
356,-3792,2,191,-4689,23,-347,-153,138
357,-3792,3,190,-4690,23,-347,-157,137
358,-3790,1,190,-4691,23,-346,-153,139
359,-3787,1,190,-4691,23,-348,-152,139
360,-3784,0,187,-4691,23,-346,-149,142
361,-3784,-3,197,-4687,23,-348,-155,138
362,-3785,-1,198,-4686,23,-350,-155,140
363,-3785,-2,191,-4687,23,-348,-154,143
364,-3786,2,192,-4685,23,-351,-153,140
365,-3788,-3,189,-4687,23,-347,-155,137
366,-3788,-6,187,-4687,23,-345,-154,136
367,-3794,-4,187,-4687,23,-347,-157,137
368,-3793,-6,186,-4687,23,-345,-162,138
369,-3791,-2,180,-4692,23,-343,-158,141
370,-3790,-6,179,-4692,23,-344,-157,139
371,-3787,-8,187,-4692,23,-346,-156,138
372,-3790,-8,191,-4692,23,-344,-156,136
373,-3792,-11,191,-4691,23,-343,-155,139
374,-3789,-4,186,-4690,23,-345,-154,136
375,-3789,-4,187,-4688,23,-342,-153,138
376,-3790,-2,184,-4685,23,-343,-154,141
377,-3794,-3,177,-4682,23,-343,-148,137
378,-3790,-1,177,-4684,23,-344,-149,139
379,-3791,-1,179,-4683,23,-340,-150,136
380,-3792,-4,184,-4687,23,-342,-151,139
381,-3789,-1,176,-4689,23,-345,-153,142
382,-3791,0,180,-4690,23,-341,-150,141
383,-3789,-5,183,-4686,23,-347,-151,141
384,-3791,-1,188,-4687,23,-350,-150,138
385,-3787,-4,186,-4686,23,-348,-148,140
386,-3783,-6,190,-4685,23,-352,-149,140
387,-3784,-7,192,-4686,23,-348,-146,138
388,-3792,-6,196,-4686,23,-350,-148,140
389,-3791,-3,191,-4685,23,-350,-149,139
390,-3790,2,181,-4686,23,-350,-148,135
391,-3786,0,181,-4687,23,-349,-148,137
392,-3786,0,185,-4687,23,-353,-149,137
393,-3786,-2,188,-4687,23,-352,-149,140
394,-3787,-6,192,-4687,23,-349,-151,137
395,-3785,-2,188,-4686,23,-347,-154,139
396,-3787,1,192,-4685,23,-350,-156,140
397,-3793,-3,185,-4685,23,-347,-160,137
398,-3792,-3,184,-4686,23,-345,-161,137
399,-3794,-4,182,-4686,23,-350,-157,140
400,-3795,-6,185,-4686,23,-348,-149,140
401,-3791,-2,190,-4685,23,-348,-148,142
402,-3789,-5,185,-4683,23,-344,-151,142
403,-3792,-6,185,-4683,23,-346,-153,139
404,-3790,-4,188,-4684,23,-349,-155,138
405,-3791,1,192,-4685,23,-347,-158,138
406,-3786,-6,193,-4687,23,-348,-154,139
407,-3784,-7,186,-4687,23,-349,-151,138
408,-3788,-7,187,-4686,23,-351,-152,134
409,-3787,-5,185,-4686,23,-350,-154,137
410,-3786,-6,186,-4686,23,-352,-151,137
411,-3784,-6,186,-4684,23,-355,-154,139
412,-3788,-3,186,-4684,23,-350,-151,136
413,-3786,2,186,-4686,23,-352,-153,135
414,-3787,-1,190,-4686,23,-352,-154,140
415,-3786,-3,185,-4686,23,-351,-151,141
416,-3788,1,181,-4686,23,-348,-150,141
417,-3794,0,187,-4689,23,-346,-152,141
418,-3791,-5,186,-4686,23,-349,-153,141
419,-3790,0,187,-4686,23,-346,-153,141
420,-3789,-2,191,-4685,23,-346,-151,142
421,-3790,-3,193,-4687,23,-349,-149,143
422,-3791,-5,192,-4687,23,-347,-149,144
423,-3789,-6,187,-4685,23,-345,-149,142
424,-3789,-3,193,-4684,23,-346,-153,141
425,-3789,0,189,-4680,23,-345,-152,143
426,-3788,-1,183,-4682,23,-350,-146,145
427,-3788,-5,185,-4680,23,-346,-150,144
428,-3783,0,194,-4681,23,-346,-151,145
429,-3785,-3,191,-4682,23,-342,-148,142
430,-3787,-4,191,-4683,23,-346,-143,140
431,-3787,-2,189,-4685,23,-344,-151,137
432,-3789,2,189,-4686,23,-345,-151,136
433,-3787,4,191,-4682,23,-346,-149,141
434,-3788,0,189,-4680,23,-346,-150,139
435,-3788,0,186,-4680,23,-343,-151,135
436,-3787,-2,190,-4677,23,-345,-153,137
437,-3791,-6,186,-4681,23,-350,-155,141
438,-3790,-6,188,-4683,23,-347,-150,139
439,-3788,-6,186,-4683,23,-345,-150,140
440,-3791,-10,183,-4680,23,-344,-149,139
441,-3790,-4,188,-4678,23,-350,-154,141
442,-3789,-7,191,-4682,23,-350,-155,139
443,-3785,0,187,-4681,23,-352,-155,138
444,-3787,1,190,-4684,23,-347,-156,141
445,-3788,-1,185,-4687,23,-347,-152,142
446,-3789,-2,190,-4685,23,-345,-153,140
447,-3786,-1,189,-4687,23,-347,-152,139
448,-3786,2,186,-4685,23,-349,-149,142
449,-3785,6,184,-4684,23,-348,-147,136
450,-3789,0,194,-4683,23,-348,-146,138
451,-3787,0,191,-4685,23,-347,-149,139
452,-3782,-1,190,-4685,23,-349,-149,134
453,-3785,0,183,-4683,23,-347,-152,135
454,-3787,-3,185,-4681,23,-345,-152,136
455,-3787,-5,183,-4683,23,-347,-151,136
456,-3784,-5,184,-4680,23,-346,-149,138
457,-3785,-3,181,-4682,23,-344,-154,136
458,-3788,4,184,-4679,23,-346,-152,139
459,-3783,0,185,-4683,23,-348,-154,140
460,-3783,2,186,-4683,23,-346,-151,136
461,-3787,-2,185,-4684,23,-350,-153,135
462,-3788,-6,188,-4685,23,-348,-154,138
463,-3788,-7,186,-4682,23,-350,-147,139
464,-3789,-10,184,-4683,23,-354,-150,139
465,-3789,-9,194,-4681,23,-353,-151,141
466,-3791,-5,191,-4682,23,-352,-152,138
467,-3792,-2,191,-4682,23,-355,-154,140
468,-3787,-2,187,-4680,23,-355,-154,139
469,-3783,-3,188,-4682,23,-352,-153,139
470,-3785,-1,187,-4681,23,-352,-152,136
471,-3784,1,179,-4681,23,-349,-153,141
472,-3779,-2,179,-4677,23,-345,-144,137
473,-3782,-6,187,-4677,23,-348,-144,137
474,-3788,-8,195,-4677,23,-344,-148,141
475,-3789,-7,187,-4679,23,-344,-148,141
476,-3790,-5,181,-4677,23,-349,-152,143
477,-3790,-1,190,-4679,23,-352,-148,140
478,-3787,-5,193,-4682,23,-349,-147,139
479,-3784,-3,193,-4681,23,-347,-148,138
480,-3785,-4,196,-4683,23,-349,-150,135
481,-3784,-2,192,-4681,23,-349,-147,137
482,-3785,0,191,-4684,23,-349,-147,137
483,-3788,-4,193,-4682,23,-348,-148,138
484,-3789,1,189,-4683,23,-348,-149,141
485,-3790,3,187,-4686,23,-350,-150,142
486,-3788,3,187,-4682,23,-352,-149,138
487,-3787,1,191,-4680,23,-347,-149,138
488,-3791,4,194,-4682,23,-350,-154,139
489,-3791,3,187,-4679,23,-352,-152,141
490,-3792,4,188,-4676,23,-350,-152,142
491,-3790,1,187,-4679,23,-349,-156,141
492,-3788,-1,184,-4678,23,-348,-153,140
493,-3785,-1,187,-4676,23,-351,-155,137
494,-3788,0,191,-4678,23,-350,-152,137
495,-3787,1,190,-4677,23,-351,-152,138
496,-3789,-2,191,-4679,23,-351,-149,140
497,-3789,-4,183,-4678,23,-349,-147,142
498,-3786,-8,185,-4678,23,-349,-147,140
499,-3792,-9,181,-4681,23,-346,-150,141
500,-3794,-3,182,-4680,23,-344,-151,137
501,-3791,-4,190,-4680,23,-346,-152,137
502,-3785,-5,195,-4679,23,-350,-153,137
503,-3792,-9,194,-4683,23,-345,-151,139
504,-3792,-10,193,-4678,23,-346,-154,137
505,-3793,-10,187,-4677,23,-348,-153,137
506,-3791,-7,185,-4680,23,-348,-154,139
507,-3791,-4,182,-4680,23,-346,-155,137
508,-3785,-2,182,-4682,23,-343,-150,139
509,-3784,2,184,-4677,23,-343,-154,141
510,-3784,-2,188,-4679,23,-346,-152,140
511,-3785,-5,182,-4680,23,-347,-157,142
512,-3783,-3,184,-4677,23,-349,-159,143
513,-3788,-2,183,-4680,23,-347,-151,146
514,-3788,-7,180,-4678,23,-348,-151,141
515,-3791,-3,182,-4679,23,-348,-149,141
516,-3791,1,184,-4677,23,-346,-151,141
517,-3790,3,189,-4679,23,-344,-150,143
518,-3788,2,187,-4679,23,-346,-148,143
519,-3789,-1,192,-4677,23,-346,-152,141
520,-3787,3,192,-4680,23,-345,-152,143
521,-3790,1,191,-4679,23,-350,-152,140
522,-3789,1,190,-4678,23,-346,-155,141
523,-3788,1,190,-4680,23,-347,-152,143
524,-3786,-3,184,-4681,23,-347,-149,143
525,-3790,-2,185,-4678,23,-353,-148,141
526,-3786,-2,189,-4679,23,-350,-151,141
527,-3791,-3,177,-4679,23,-352,-152,135
528,-3793,-2,181,-4678,23,-351,-156,137
529,-3794,-6,186,-4678,23,-350,-155,138
530,-3790,-10,185,-4676,23,-346,-150,140
531,-3789,-3,190,-4676,23,-348,-151,140
532,-3786,-2,184,-4678,23,-348,-155,139
533,-3785,-1,184,-4676,23,-347,-154,142
534,-3782,0,186,-4676,23,-349,-148,142
535,-3782,-1,187,-4679,23,-348,-149,146
536,-3787,0,193,-4676,23,-346,-153,142
537,-3786,-8,187,-4676,23,-344,-151,142
538,-3786,-4,180,-4674,23,-347,-154,140
539,-3784,1,196,-4677,23,-341,-153,139
540,-3787,1,196,-4677,23,-347,-156,137
541,-3786,-2,187,-4677,23,-349,-154,135
542,-3787,-6,189,-4678,23,-351,-153,136
543,-3785,-5,192,-4679,23,-350,-152,136
544,-3789,-5,186,-4682,23,-350,-154,136
545,-3787,-5,191,-4679,23,-352,-154,138
546,-3785,0,190,-4678,23,-350,-156,138
547,-3783,-1,191,-4679,23,-350,-157,139
548,-3790,-3,191,-4677,23,-349,-156,138
549,-3786,-1,193,-4676,23,-348,-151,140
550,-3784,-2,187,-4674,23,-349,-152,139
551,-3787,-3,180,-4678,23,-351,-148,140
552,-3793,-7,188,-4676,23,-353,-153,140
553,-3793,-4,189,-4675,23,-347,-153,144
554,-3789,-6,189,-4675,23,-343,-151,143
555,-3789,-5,191,-4675,23,-345,-152,143
556,-3786,-3,194,-4675,23,-347,-153,146
557,-3786,3,200,-4672,23,-347,-152,142
558,-3784,4,192,-4671,23,-346,-148,140
559,-3783,-2,196,-4673,23,-350,-152,137
560,-3783,-6,193,-4675,23,-348,-153,138
561,-3784,-7,193,-4676,23,-348,-154,139
562,-3787,-9,193,-4672,23,-349,-157,142
563,-3789,-8,195,-4670,23,-352,-154,140
564,-3786,-11,190,-4671,23,-350,-147,138
565,-3791,-7,186,-4673,23,-347,-147,137
566,-3790,-6,193,-4673,23,-342,-144,144
567,-3796,-5,188,-4671,23,-346,-152,140
568,-3794,-4,188,-4673,23,-348,-154,139
569,-3790,1,184,-4671,23,-348,-153,142
570,-3789,0,183,-4674,23,-344,-157,142
571,-3792,-3,189,-4676,23,-343,-155,143
572,-3790,-2,186,-4679,23,-345,-151,142
573,-3791,-1,186,-4681,23,-343,-144,142
574,-3789,-5,186,-4675,23,-344,-148,142
575,-3788,-5,185,-4679,23,-341,-151,144
576,-3793,-7,189,-4680,23,-338,-152,139
577,-3797,-6,186,-4680,23,-341,-147,140
578,-3789,-6,188,-4679,23,-340,-147,146
579,-3789,-6,188,-4679,23,-345,-147,140
580,-3790,-6,186,-4678,23,-344,-146,139
581,-3789,-3,187,-4676,23,-345,-144,141
582,-3792,0,191,-4679,23,-344,-146,142
583,-3790,0,191,-4679,23,-348,-150,143
584,-3790,-2,191,-4681,23,-352,-150,139
585,-3786,1,188,-4680,23,-347,-149,140
586,-3787,4,190,-4678,23,-349,-147,140
587,-3785,0,187,-4676,23,-353,-148,137
588,-3789,3,184,-4675,23,-352,-148,136
589,-3790,-1,183,-4678,23,-349,-148,143
590,-3788,-2,179,-4677,23,-348,-151,141
591,-3789,-7,180,-4677,23,-345,-149,139
592,-3789,-7,178,-4676,23,-349,-153,138
593,-3792,-4,184,-4676,23,-348,-148,140
594,-3793,0,195,-4675,23,-346,-149,140
595,-3793,0,190,-4675,23,-347,-149,137
596,-3795,-1,181,-4675,23,-353,-147,136
597,-3794,-6,182,-4677,23,-345,-152,137
598,-3791,-6,191,-4676,23,-346,-153,140
599,-3791,-2,187,-4678,23,-348,-150,139
600,-3792,1,184,-4676,23,-343,-156,136
601,-3791,-1,184,-4673,23,-348,-158,138
602,-3793,-2,189,-4673,23,-344,-154,134
603,-3795,-4,190,-4674,23,-346,-153,135
604,-3792,-4,186,-4675,23,-350,-155,139
605,-3792,-5,180,-4674,23,-346,-151,138
606,-3790,-2,186,-4676,23,-348,-150,140
607,-3788,-3,186,-4678,23,-346,-150,141
608,-3787,-4,186,-4677,23,-346,-150,138
609,-3789,-6,193,-4674,23,-346,-150,142
610,-3791,-8,189,-4673,23,-343,-152,139
611,-3790,-6,185,-4670,23,-345,-151,136
612,-3790,-6,190,-4675,23,-349,-152,141
613,-3793,-3,189,-4672,23,-349,-149,140
614,-3796,-1,187,-4673,23,-348,-151,144
615,-3798,-3,184,-4673,23,-351,-151,142
616,-3796,-3,191,-4675,23,-347,-152,142
617,-3794,-5,189,-4674,23,-350,-153,141
618,-3786,-6,188,-4674,23,-350,-152,140
619,-3787,-9,184,-4676,23,-348,-152,142
620,-3787,-6,182,-4673,23,-346,-151,140
621,-3785,-6,179,-4673,23,-344,-149,138
622,-3787,-4,182,-4670,23,-343,-153,137
623,-3790,-2,188,-4669,23,-349,-151,140
624,-3790,-3,183,-4671,23,-348,-152,139
625,-3792,-7,186,-4672,23,-347,-153,138
626,-3789,-2,183,-4673,23,-346,-154,140
627,-3788,-1,181,-4672,23,-346,-158,139
628,-3790,-4,184,-4674,23,-348,-155,140
629,-3790,-13,188,-4671,23,-347,-153,143
630,-3787,-8,191,-4669,23,-346,-151,142
631,-3789,-5,195,-4672,23,-350,-150,143
632,-3791,-4,195,-4673,23,-351,-152,139
633,-3791,-1,192,-4672,23,-345,-151,140
634,-3786,-5,190,-4671,23,-347,-150,142
635,-3785,-4,187,-4673,23,-346,-149,138
636,-3779,-8,181,-4673,23,-346,-148,135
637,-3780,-5,178,-4675,23,-347,-146,133
638,-3781,-2,176,-4673,23,-352,-154,134
639,-3782,1,185,-4674,23,-350,-157,136
640,-3786,-6,190,-4671,23,-352,-152,137
641,-3791,-2,186,-4669,23,-348,-154,138
642,-3785,0,186,-4672,23,-344,-157,140
643,-3788,-4,189,-4671,23,-349,-155,140
644,-3792,-6,196,-4671,23,-349,-157,140
645,-3794,-6,195,-4672,23,-347,-156,140
646,-3792,-6,195,-4674,23,-348,-150,139
647,-3787,-6,190,-4673,23,-347,-152,136
648,-3789,-2,191,-4672,23,-350,-147,141
649,-3793,-4,188,-4672,23,-347,-143,139
650,-3791,-9,190,-4670,23,-343,-145,144
651,-3790,-6,193,-4670,23,-342,-150,140
652,-3785,-5,190,-4671,23,-345,-152,141
653,-3785,-2,190,-4670,23,-347,-148,141
654,-3790,-2,180,-4669,23,-349,-149,139
655,-3792,-3,185,-4669,23,-345,-154,137
656,-3795,-6,183,-4668,23,-346,-154,139
657,-3792,-4,186,-4669,23,-346,-153,138
658,-3792,-2,187,-4671,23,-348,-152,138
659,-3790,1,191,-4674,23,-350,-150,136
660,-3790,2,193,-4673,23,-348,-149,140
661,-3787,-2,191,-4675,23,-347,-151,139
662,-3790,-3,189,-4673,23,-346,-151,139
663,-3787,-3,188,-4674,23,-342,-148,138
664,-3789,-7,191,-4673,23,-343,-150,138
665,-3786,-10,193,-4673,23,-347,-153,141
666,-3791,-7,192,-4674,23,-345,-154,140
667,-3794,-7,189,-4672,23,-345,-154,138
668,-3794,-6,190,-4676,23,-350,-151,136
669,-3788,-6,185,-4673,23,-350,-150,137
670,-3790,-4,185,-4675,23,-347,-149,137
671,-3791,-3,182,-4673,23,-347,-153,139
672,-3789,-3,179,-4673,23,-350,-152,136
673,-3786,-5,181,-4674,23,-346,-152,136
674,-3787,-4,183,-4676,23,-352,-149,135
675,-3791,-2,192,-4674,23,-353,-151,136
676,-3790,-4,196,-4672,23,-346,-156,138
677,-3788,-8,189,-4671,23,-351,-154,139
678,-3785,-3,196,-4672,23,-351,-153,137
679,-3789,-2,195,-4673,23,-352,-150,136
680,-3790,1,194,-4673,23,-349,-148,137
681,-3789,-1,191,-4674,23,-347,-153,141
682,-3787,-1,194,-4673,23,-347,-156,140
683,-3787,-1,191,-4674,23,-346,-154,138
684,-3791,-1,185,-4669,23,-347,-153,140
685,-3792,-3,182,-4669,23,-347,-152,140
686,-3788,-6,184,-4669,23,-349,-154,144
687,-3789,-8,181,-4671,23,-353,-156,142
688,-3788,-8,186,-4671,23,-356,-154,141
689,-3787,-8,193,-4669,23,-352,-152,141
690,-3791,-7,193,-4667,23,-350,-153,140
691,-3790,-4,190,-4668,23,-347,-152,142
692,-3788,1,188,-4669,23,-342,-154,142
693,-3786,2,191,-4668,23,-346,-151,141
694,-3788,2,191,-4668,23,-350,-148,141
695,-3789,2,189,-4666,23,-350,-153,140
696,-3787,1,192,-4665,23,-355,-150,138
697,-3787,2,186,-4667,23,-352,-153,139
698,-3785,0,194,-4664,23,-352,-155,138
699,-3790,-6,192,-4667,23,-351,-153,137
700,-3793,-7,191,-4671,23,-347,-153,140
701,-3791,-4,188,-4670,23,-350,-157,139
702,-3794,-2,194,-4671,23,-349,-153,135
703,-3796,-4,191,-4673,23,-353,-149,138
704,-3795,-4,192,-4672,23,-350,-149,141
705,-3795,-6,192,-4668,23,-347,-151,139
706,-3797,-9,189,-4669,23,-347,-153,136
707,-3793,-7,184,-4673,23,-347,-147,142
708,-3793,-6,182,-4672,23,-346,-142,142
709,-3789,-7,183,-4671,23,-345,-145,141
710,-3789,-7,188,-4669,23,-347,-147,140
711,-3787,0,187,-4669,23,-344,-147,139
712,-3786,-3,194,-4667,23,-343,-147,139
713,-3783,-7,188,-4668,23,-346,-147,140
714,-3783,-7,188,-4671,23,-348,-145,144
715,-3783,-6,185,-4671,23,-349,-145,139
716,-3785,0,190,-4670,23,-346,-147,143
717,-3781,0,192,-4669,23,-346,-146,138
718,-3785,2,183,-4670,23,-345,-151,138
719,-3783,1,180,-4669,23,-344,-151,137
720,-3787,-2,183,-4670,23,-346,-149,140
721,-3785,-6,193,-4669,23,-348,-156,139
722,-3786,-6,186,-4667,23,-348,-158,137
723,-3788,-1,182,-4673,23,-349,-154,136
724,-3790,5,189,-4671,23,-348,-152,138
725,-3791,0,193,-4671,23,-347,-150,137
726,-3791,0,190,-4670,23,-350,-151,141
727,-3790,-2,188,-4672,23,-346,-154,135
728,-3789,-4,182,-4670,23,-346,-154,137
729,-3788,-7,183,-4672,23,-348,-151,137
730,-3789,-3,180,-4670,23,-347,-151,138
731,-3792,-5,187,-4668,23,-347,-148,140
732,-3793,0,184,-4670,23,-346,-153,140
733,-3795,3,187,-4668,23,-349,-151,141
734,-3798,-1,185,-4668,23,-348,-151,134
735,-3796,4,184,-4669,23,-347,-150,134
736,-3790,2,186,-4665,23,-349,-153,139
737,-3791,4,189,-4665,23,-348,-152,140
738,-3793,3,187,-4666,23,-349,-152,142
739,-3791,3,183,-4668,23,-346,-151,141
740,-3789,-4,189,-4671,23,-348,-156,141
741,-3791,-4,187,-4670,23,-352,-156,137
742,-3789,-5,179,-4667,23,-354,-159,135
743,-3789,-9,182,-4669,23,-350,-156,137
744,-3790,-7,182,-4671,23,-347,-154,138
745,-3790,-5,188,-4667,23,-349,-152,140
746,-3794,-5,194,-4668,23,-352,-148,138
747,-3789,0,186,-4669,23,-349,-155,142
748,-3789,-5,187,-4671,23,-346,-152,142
749,-3789,-3,184,-4670,23,-343,-157,142
750,-3789,-1,190,-4671,23,-348,-158,142
751,-3789,2,192,-4669,23,-349,-158,145
752,-3786,-3,190,-4668,23,-347,-157,145
753,-3791,-4,184,-4667,23,-346,-158,146
754,-3788,-8,187,-4669,23,-346,-158,140
755,-3789,-6,191,-4668,23,-346,-148,142
756,-3793,-6,189,-4667,23,-343,-151,142
757,-3793,-8,192,-4666,23,-345,-154,141
758,-3792,-1,186,-4666,23,-346,-154,138
759,-3791,-2,187,-4669,23,-350,-153,137
760,-3793,2,178,-4664,23,-350,-152,136
761,-3788,-3,179,-4665,23,-348,-152,134
762,-3788,-2,190,-4666,23,-349,-154,136
763,-3792,-1,195,-4668,23,-350,-152,140
764,-3786,-2,190,-4667,23,-349,-151,141
765,-3788,2,190,-4668,23,-355,-148,140
766,-3788,6,184,-4666,23,-354,-150,142
767,-3786,4,186,-4663,23,-353,-151,143
768,-3789,2,189,-4667,23,-354,-154,141
769,-3786,3,194,-4666,23,-355,-152,137
770,-3787,-5,195,-4666,23,-350,-155,140
771,-3786,-5,193,-4665,23,-345,-158,138
772,-3788,-2,189,-4667,23,-343,-154,141
773,-3794,-2,190,-4666,23,-343,-151,144
774,-3792,-1,188,-4666,23,-344,-152,141
775,-3796,0,186,-4665,23,-350,-149,139
776,-3793,-2,185,-4665,23,-350,-150,139
777,-3790,-2,179,-4667,23,-350,-147,136
778,-3789,-1,179,-4666,23,-346,-148,136
779,-3788,-10,179,-4665,23,-350,-147,138
780,-3790,-8,182,-4668,23,-349,-146,134
781,-3792,-5,177,-4668,23,-350,-147,139
782,-3788,-2,184,-4669,23,-353,-150,141
783,-3790,0,184,-4665,23,-351,-152,141
784,-3789,2,185,-4666,23,-351,-154,141
785,-3790,3,186,-4670,23,-351,-156,142
786,-3790,1,187,-4667,23,-353,-148,142
787,-3792,-1,186,-4668,23,-351,-153,144
788,-3788,0,189,-4666,23,-351,-149,141
789,-3787,-6,187,-4667,23,-349,-151,142
790,-3785,-4,192,-4666,23,-350,-152,144
791,-3788,-3,189,-4665,23,-349,-154,145
792,-3788,-3,190,-4662,23,-352,-149,140
793,-3790,-8,189,-4662,23,-352,-152,140
794,-3787,-5,184,-4661,23,-350,-150,139
795,-3787,-2,190,-4659,23,-346,-151,139
796,-3785,-3,192,-4660,23,-347,-147,136
797,-3783,-4,192,-4665,23,-350,-151,141
798,-3787,-2,189,-4662,23,-349,-150,144
799,-3788,-1,184,-4666,23,-351,-145,140
800,-3787,-3,190,-4669,23,-347,-150,143
801,-3786,-2,185,-4667,23,-347,-150,147
802,-3785,0,187,-4665,23,-343,-152,142
803,-3788,-2,189,-4669,23,-347,-151,140
804,-3786,-3,187,-4668,23,-348,-154,140
805,-3788,-2,189,-4667,23,-350,-151,141
806,-3785,-1,191,-4666,23,-347,-151,138
807,-3785,-4,193,-4668,23,-347,-150,138
808,-3789,-1,190,-4669,23,-347,-155,136
809,-3790,-1,191,-4669,23,-348,-156,138
810,-3788,-1,187,-4669,23,-347,-158,139
811,-3788,0,189,-4670,23,-345,-157,139
812,-3790,1,187,-4670,23,-348,-156,136
813,-3789,-4,190,-4668,23,-353,-152,140
814,-3792,-6,189,-4666,23,-348,-152,141
815,-3793,-5,193,-4668,23,-351,-148,136
816,-3793,-6,191,-4665,23,-347,-152,137
817,-3791,-9,193,-4667,23,-349,-152,140
818,-3793,-3,192,-4667,23,-348,-151,137
819,-3791,-4,190,-4666,23,-347,-150,140
820,-3790,-8,190,-4667,23,-346,-151,141
821,-3785,-9,185,-4667,23,-346,-154,140
822,-3784,-7,189,-4669,23,-346,-151,143
823,-3789,-5,193,-4669,23,-348,-147,141
824,-3791,-3,193,-4670,23,-347,-150,138
825,-3791,0,194,-4665,23,-347,-154,140
826,-3795,-1,193,-4665,23,-349,-154,143
827,-3792,-5,190,-4664,23,-352,-154,139
828,-3792,-5,199,-4664,23,-351,-151,140
829,-3793,-7,195,-4664,23,-351,-153,140
830,-3788,-3,194,-4662,23,-350,-150,141
831,-3791,-2,192,-4665,23,-347,-150,140
832,-3789,-2,193,-4666,23,-350,-152,141
833,-3792,-1,191,-4663,23,-349,-154,137
834,-3794,-6,187,-4665,23,-350,-155,138
835,-3793,-5,188,-4666,23,-351,-151,139
836,-3789,-7,190,-4665,23,-351,-150,138
837,-3790,-6,190,-4661,23,-350,-150,139
838,-3786,-5,188,-4660,23,-352,-149,139
839,-3788,-7,192,-4660,23,-352,-150,138
840,-3784,-7,187,-4661,23,-354,-150,141
841,-3785,-6,185,-4663,23,-356,-149,140
842,-3785,-4,189,-4664,23,-355,-147,141
843,-3782,-3,188,-4664,23,-350,-150,138
844,-3784,0,184,-4665,23,-349,-155,142
845,-3783,-2,185,-4666,23,-349,-152,140
846,-3784,-4,187,-4665,23,-346,-152,142
847,-3788,-10,184,-4665,23,-345,-162,141
848,-3790,-6,187,-4666,23,-345,-161,139
849,-3789,-3,188,-4671,23,-345,-154,140
850,-3793,-6,191,-4669,23,-351,-155,143
851,-3791,-1,189,-4667,23,-352,-155,142
852,-3793,2,184,-4669,23,-352,-153,144
853,-3797,2,188,-4668,23,-348,-155,140
854,-3794,-3,182,-4667,23,-346,-153,140
855,-3788,-6,180,-4668,23,-342,-154,140
856,-3784,-5,181,-4670,23,-345,-155,144
857,-3784,-1,182,-4668,23,-347,-156,146
858,-3786,-5,183,-4667,23,-349,-154,144
859,-3787,-6,181,-4667,23,-347,-155,143
860,-3786,-9,185,-4669,23,-347,-152,140
861,-3788,-7,187,-4671,23,-349,-153,141
862,-3786,-3,185,-4667,23,-347,-153,138
863,-3788,-4,184,-4665,23,-348,-149,142
864,-3792,-4,179,-4662,23,-347,-150,141
865,-3795,-9,186,-4661,23,-346,-147,139
866,-3794,-9,186,-4663,23,-349,-145,135
867,-3791,-4,189,-4664,23,-350,-149,141
868,-3788,-5,183,-4666,23,-349,-147,141
869,-3788,-6,189,-4665,23,-350,-148,141
870,-3790,-2,187,-4668,23,-345,-146,140
871,-3789,-8,195,-4669,23,-348,-148,140
872,-3792,-8,194,-4665,23,-343,-152,141
873,-3791,-3,196,-4666,23,-345,-154,138
874,-3791,2,193,-4664,23,-347,-156,140
875,-3791,-3,187,-4666,23,-349,-154,140
876,-3789,1,190,-4665,23,-349,-152,140
877,-3789,2,189,-4665,23,-350,-152,139
878,-3790,-3,175,-4668,23,-348,-153,141
879,-3791,-4,181,-4670,23,-349,-149,139
880,-3792,-8,192,-4669,23,-346,-153,141
881,-3793,-6,198,-4669,23,-349,-150,138
882,-3791,-7,195,-4669,23,-345,-149,135
883,-3792,-6,186,-4664,23,-347,-152,137
884,-3789,-7,185,-4664,23,-348,-154,140
885,-3790,-4,185,-4664,23,-351,-151,140
886,-3789,0,191,-4666,23,-349,-148,139
887,-3793,3,190,-4666,23,-351,-151,141
888,-3792,0,187,-4666,23,-347,-150,143
889,-3790,-1,194,-4665,23,-346,-148,141
890,-3789,-3,195,-4664,23,-345,-150,145
891,-3793,-4,197,-4664,23,-349,-150,141
892,-3790,-6,191,-4666,23,-348,-149,144
893,-3783,-4,186,-4667,23,-349,-147,145
894,-3785,-2,181,-4669,23,-350,-153,140
895,-3785,-1,184,-4666,23,-346,-155,145
896,-3785,-3,189,-4666,23,-348,-153,145
897,-3789,-3,190,-4665,23,-353,-152,141
898,-3791,-9,185,-4661,23,-353,-152,137
899,-3786,-6,182,-4664,23,-350,-148,140
900,-3784,-5,181,-4665,23,-353,-149,139
901,-3788,-1,186,-4666,23,-352,-149,139
902,-3789,2,185,-4664,23,-348,-153,139
903,-3790,-1,182,-4662,23,-347,-155,138
904,-3791,-2,187,-4664,23,-348,-153,141
905,-3786,-9,189,-4663,23,-346,-153,137
906,-3787,-3,192,-4664,23,-343,-151,136
907,-3790,-4,188,-4662,23,-350,-153,140
908,-3786,-7,188,-4664,23,-351,-149,140
909,-3788,-5,182,-4664,23,-354,-150,141
910,-3792,-7,182,-4661,23,-347,-147,142
911,-3793,-3,192,-4661,23,-345,-150,137
912,-3792,-5,186,-4665,23,-346,-152,138
913,-3791,-5,188,-4664,23,-348,-149,140
914,-3789,-1,187,-4665,23,-349,-146,143
915,-3790,-2,185,-4665,23,-352,-150,140
916,-3788,-2,189,-4665,23,-350,-152,144
917,-3788,-7,188,-4667,23,-348,-152,143
918,-3787,-5,192,-4666,23,-349,-146,143
919,-3788,-2,186,-4664,23,-352,-145,141
920,-3786,-4,186,-4664,23,-353,-147,141
921,-3790,-4,185,-4665,23,-352,-151,142
922,-3789,-2,191,-4663,23,-349,-151,143
923,-3789,-4,189,-4665,23,-350,-153,137
924,-3788,-5,187,-4662,23,-345,-155,139
925,-3789,-3,186,-4662,23,-344,-149,139
926,-3786,-3,184,-4663,23,-346,-151,138
927,-3792,-3,191,-4664,23,-349,-154,141
928,-3792,-3,190,-4660,23,-348,-154,140
929,-3793,-5,182,-4666,23,-354,-150,138
930,-3789,-6,184,-4666,23,-353,-147,139
931,-3784,-3,191,-4667,23,-353,-147,141
932,-3781,-5,186,-4667,23,-350,-151,141
933,-3783,-9,189,-4668,23,-350,-155,143
934,-3786,-8,188,-4667,23,-350,-153,139
935,-3787,-4,184,-4667,23,-350,-153,138
936,-3786,-1,179,-4665,23,-350,-152,139
937,-3786,-5,179,-4664,23,-349,-152,141
938,-3786,-6,184,-4664,23,-348,-151,140
939,-3788,-8,183,-4661,23,-350,-147,137
940,-3792,-7,188,-4665,23,-350,-151,133
941,-3793,-12,190,-4664,23,-348,-145,137
942,-3793,-10,190,-4664,23,-350,-151,138
943,-3793,-9,189,-4664,23,-347,-150,136
944,-3792,-10,185,-4665,23,-344,-149,136
945,-3792,-9,188,-4667,23,-351,-146,140
946,-3791,-7,182,-4667,23,-345,-149,135
947,-3789,-5,180,-4666,23,-346,-150,134
948,-3793,-2,184,-4665,23,-343,-145,133
949,-3793,-6,187,-4665,23,-344,-146,135
950,-3793,-6,188,-4665,23,-345,-148,137
951,-3793,-4,193,-4661,23,-345,-145,138
952,-3790,-2,197,-4660,23,-345,-150,134
953,-3786,-2,191,-4661,23,-345,-157,136
954,-3787,-2,189,-4659,23,-344,-153,135
955,-3788,0,195,-4658,23,-346,-154,140
956,-3789,-4,200,-4660,23,-344,-155,141
957,-3792,-1,196,-4660,23,-346,-149,139
958,-3787,0,191,-4662,23,-347,-152,137
959,-3791,-1,189,-4658,23,-350,-151,140
960,-3789,3,186,-4659,23,-345,-154,140
961,-3788,-4,180,-4660,23,-347,-147,138
962,-3789,-2,175,-4660,23,-344,-147,137
963,-3789,-3,181,-4661,23,-342,-149,138
964,-3788,-2,186,-4662,23,-349,-150,135
965,-3787,-6,190,-4663,23,-350,-150,138
966,-3787,-5,196,-4666,23,-344,-150,139
967,-3792,-5,195,-4664,23,-349,-150,143
968,-3788,-5,195,-4662,23,-348,-146,145
969,-3788,-4,191,-4661,23,-347,-150,143
970,-3792,-2,188,-4661,23,-350,-156,143
971,-3794,-2,190,-4661,23,-351,-154,139
972,-3794,-3,191,-4665,23,-346,-154,141
973,-3790,-2,186,-4663,23,-348,-153,139
974,-3794,-2,186,-4663,23,-348,-152,136
975,-3794,-2,189,-4661,23,-350,-148,140
976,-3792,-5,190,-4659,23,-350,-150,143
977,-3791,-2,195,-4657,23,-348,-152,142
978,-3791,-4,190,-4658,23,-351,-156,143
979,-3790,-3,188,-4659,23,-353,-151,139
980,-3788,-7,187,-4659,23,-355,-152,140
981,-3789,-8,192,-4664,23,-348,-152,138
982,-3787,-11,183,-4663,23,-348,-152,134
983,-3787,-8,186,-4661,23,-351,-148,135
984,-3787,-7,179,-4663,23,-353,-146,136
985,-3785,-6,180,-4659,23,-350,-152,142
986,-3787,-4,184,-4657,23,-350,-151,143
987,-3788,-2,185,-4656,23,-351,-155,142
988,-3793,-7,186,-4658,23,-348,-153,140
989,-3794,-5,185,-4659,23,-352,-154,138
990,-3788,-4,183,-4661,23,-352,-158,138
991,-3787,-2,191,-4662,23,-350,-158,138
992,-3789,1,187,-4662,23,-349,-155,139
993,-3791,-3,184,-4662,23,-347,-154,141
994,-3793,-1,189,-4662,23,-345,-154,141
995,-3792,-3,182,-4663,23,-347,-150,138
