,acc_X,acc_Y,acc_Z,temp,tempC,gyr_X,gyr_Y,gyr_Z
0,-15142,-6,716,-4849,22,-172,-83,65
1,-15070,-88,740,-4860,22,-169,-82,71
2,-15182,32,748,-4856,22,-166,-82,64
3,-15200,4,788,-4844,22,-165,-76,67
4,-15174,18,684,-4839,22,-175,-75,69
5,-15152,-24,752,-4843,22,-169,-81,67
6,-15150,38,728,-4831,22,-176,-73,69
7,-15128,90,798,-4838,22,-179,-74,67
8,-15250,0,702,-4839,22,-170,-73,63
9,-15150,-54,788,-4840,22,-167,-84,70
10,-15204,-10,718,-4840,22,-173,-73,71
11,-15160,-40,700,-4845,22,-176,-77,74
12,-15136,6,762,-4846,22,-179,-76,72
13,-15132,22,756,-4837,22,-175,-76,66
14,-15108,24,758,-4833,22,-175,-79,66
15,-15154,-22,716,-4842,22,-173,-76,63
16,-15112,4,774,-4841,22,-179,-76,69
17,-15086,10,816,-4836,22,-172,-72,61
18,-15176,-36,818,-4844,22,-170,-75,65
19,-15134,-22,672,-4836,22,-170,-78,68
20,-15138,-4,670,-4841,22,-173,-83,68
21,-15186,-38,672,-4835,22,-172,-74,67
22,-15186,22,800,-4834,22,-169,-72,69
23,-15110,28,792,-4840,22,-174,-74,72
24,-15128,24,708,-4837,22,-176,-81,68
25,-15084,-24,810,-4834,22,-170,-77,74
26,-15132,14,676,-4844,22,-172,-78,65
27,-15098,-50,924,-4834,22,-179,-80,74
28,-15156,-64,784,-4833,22,-175,-82,71
29,-15214,-30,824,-4834,22,-172,-82,72
30,-15192,-26,626,-4833,22,-174,-82,69
31,-15158,-16,756,-4841,22,-174,-86,64
32,-15166,-46,756,-4829,22,-175,-77,68
33,-15210,20,710,-4830,22,-171,-71,69
34,-15122,40,746,-4832,22,-173,-81,69
35,-15198,-26,716,-4825,22,-172,-80,70
36,-15110,18,782,-4825,22,-171,-81,66
37,-15100,18,794,-4828,22,-175,-78,64
38,-15182,6,754,-4827,22,-169,-76,70
39,-15180,22,728,-4829,22,-174,-70,70
40,-15216,-30,780,-4829,22,-177,-77,69
41,-15172,-4,778,-4837,22,-180,-75,66
42,-15096,-16,718,-4820,22,-166,-78,70
43,-15120,-62,674,-4838,22,-175,-81,64
44,-15118,-60,728,-4833,22,-169,-75,70
45,-15122,4,728,-4832,22,-182,-73,65
46,-15122,-8,656,-4824,22,-169,-73,65
47,-15156,-4,722,-4832,22,-170,-80,65
48,-15122,14,788,-4833,22,-168,-77,71
49,-15150,32,728,-4831,22,-167,-79,70
50,-15098,0,620,-4832,22,-172,-66,70
51,-15170,-46,740,-4836,22,-171,-76,70
52,-15162,-10,712,-4828,22,-171,-75,63
53,-15166,-30,738,-4820,22,-170,-79,69
54,-15104,-84,698,-4822,22,-172,-79,74
55,-15210,6,718,-4825,22,-174,-71,75
56,-15138,-10,690,-4817,22,-171,-78,73
57,-15126,16,740,-4830,22,-169,-72,68
58,-15142,-52,662,-4818,22,-169,-78,72
59,-15082,-30,810,-4833,22,-171,-73,64
60,-15154,-46,694,-4831,22,-168,-78,70
61,-15146,-18,658,-4817,22,-173,-69,68
62,-15154,-2,744,-4825,22,-171,-79,69
63,-15186,-2,800,-4808,22,-173,-80,68
64,-15132,24,736,-4824,22,-172,-79,71
65,-15090,-38,692,-4823,22,-174,-81,67
66,-15186,-14,752,-4822,22,-172,-68,70
67,-15160,-8,678,-4824,22,-179,-81,68
68,-15134,-14,724,-4830,22,-169,-77,72
69,-15116,-10,756,-4824,22,-170,-83,68
70,-15164,-6,800,-4830,22,-173,-77,68
71,-15138,-16,716,-4821,22,-178,-72,69
72,-15106,-18,776,-4827,22,-171,-69,69
73,-15106,-42,672,-4823,22,-171,-75,74
74,-15096,-48,698,-4820,22,-173,-86,67
75,-15142,-4,864,-4823,22,-167,-77,75
76,-15170,20,722,-4819,22,-174,-79,72
77,-15134,28,764,-4817,22,-173,-75,69
78,-15176,2,712,-4820,22,-177,-75,67
79,-15110,-98,734,-4828,22,-169,-82,73
80,-15176,22,822,-4818,22,-177,-79,62
81,-15174,10,654,-4813,22,-169,-72,68
82,-15188,54,726,-4810,22,-173,-80,67
83,-15164,-56,770,-4824,22,-171,-79,67
84,-15196,-20,736,-4818,22,-173,-75,66
85,-15190,0,684,-4813,22,-172,-76,73
86,-15146,6,774,-4825,22,-174,-75,68
87,-15170,20,726,-4820,22,-173,-71,68
88,-15158,-48,742,-4820,22,-174,-71,67
89,-15176,6,584,-4812,22,-171,-77,64
90,-15050,30,712,-4814,22,-169,-75,63
91,-15164,-10,720,-4815,22,-172,-70,69
92,-15194,-76,786,-4816,22,-172,-83,62
93,-15132,8,810,-4827,22,-177,-74,63
94,-15118,-22,726,-4817,22,-178,-74,72
95,-15142,-20,776,-4811,22,-164,-75,71
96,-15106,-38,706,-4810,22,-180,-75,71
97,-15124,-54,802,-4816,22,-164,-78,74
98,-15224,28,788,-4823,22,-176,-83,67
99,-15112,14,732,-4816,22,-174,-77,67
100,-15180,-72,760,-4816,22,-176,-71,69
101,-15154,10,774,-4824,22,-173,-76,74
102,-15186,34,730,-4816,22,-173,-79,63
103,-15122,-28,756,-4804,22,-180,-76,63
104,-15182,-4,810,-4829,22,-170,-77,70
105,-15112,-12,708,-4816,22,-176,-82,67
106,-15084,-2,800,-4825,22,-177,-82,73
107,-15086,28,728,-4818,22,-170,-78,69
108,-15140,-56,716,-4813,22,-164,-73,69
109,-15158,2,690,-4810,22,-173,-74,67
110,-15156,24,690,-4823,22,-171,-79,60
111,-15142,-20,762,-4817,22,-168,-74,75
112,-15132,-78,720,-4814,22,-173,-82,70
113,-15138,-16,844,-4813,22,-170,-72,67
114,-15130,-24,764,-4810,22,-172,-73,66
115,-15154,14,790,-4805,22,-177,-72,71
116,-15166,14,778,-4802,22,-170,-77,67
117,-15148,20,772,-4802,22,-177,-80,74
118,-15188,-16,744,-4806,22,-172,-80,69
119,-15132,32,712,-4810,22,-176,-74,71
120,-15132,-62,768,-4820,22,-174,-75,80
121,-15156,14,806,-4818,22,-178,-78,67
122,-15166,-56,760,-4807,22,-170,-83,70
123,-15128,-32,798,-4817,22,-167,-74,68
124,-15184,-14,842,-4818,22,-167,-74,67
125,-15116,-16,720,-4797,22,-181,-76,69
126,-15184,-66,822,-4812,22,-174,-77,69
127,-15162,4,806,-4798,22,-174,-70,72
128,-15132,76,624,-4803,22,-166,-79,72
129,-15128,-32,598,-4817,22,-167,-77,68
130,-15190,-24,800,-4799,22,-176,-77,70
131,-15210,-48,844,-4816,22,-170,-75,65
132,-15164,12,776,-4806,22,-177,-80,68
133,-15192,4,734,-4815,22,-174,-73,65
134,-15158,-64,746,-4807,22,-174,-71,70
135,-15180,48,648,-4813,22,-167,-75,69
136,-15176,-42,664,-4804,22,-177,-82,77
137,-15156,-34,748,-4803,22,-166,-80,74
138,-15132,-44,762,-4804,22,-178,-76,68
139,-15152,-54,786,-4810,22,-177,-83,68
140,-15208,-66,774,-4817,22,-169,-77,73
141,-15164,-12,652,-4807,22,-172,-70,70
142,-15130,-10,786,-4807,22,-168,-69,67
143,-15108,-34,760,-4812,22,-174,-77,66
144,-15206,-18,784,-4815,22,-171,-75,76
145,-15154,14,738,-4806,22,-165,-72,64
146,-15130,-16,734,-4804,22,-176,-77,70
147,-15146,-24,874,-4803,22,-167,-74,71
148,-15152,12,674,-4810,22,-176,-83,64
149,-15218,-2,720,-4793,22,-167,-80,69
150,-15176,-36,738,-4804,22,-177,-71,71
151,-15152,38,738,-4800,22,-173,-77,63
152,-15218,26,730,-4805,22,-175,-78,63
153,-15120,26,724,-4807,22,-176,-74,67
154,-15138,-16,734,-4801,22,-174,-81,68
155,-15144,12,740,-4797,22,-171,-73,68
156,-15162,-22,772,-4785,22,-176,-85,72
157,-15194,30,790,-4807,22,-180,-79,78
158,-15164,-20,826,-4802,22,-173,-75,67
159,-15134,-48,810,-4800,22,-174,-75,67
160,-15140,20,744,-4801,22,-176,-87,75
161,-15148,-78,738,-4811,22,-181,-80,67
162,-15120,24,766,-4808,22,-176,-72,71
163,-15134,-50,780,-4809,22,-168,-75,62
164,-15230,12,760,-4818,22,-170,-79,70
165,-15160,-12,730,-4807,22,-176,-80,68
166,-15096,34,748,-4797,22,-174,-81,67
167,-15082,-22,776,-4797,22,-170,-79,69
168,-15132,-52,814,-4804,22,-173,-76,69
169,-15188,20,776,-4807,22,-175,-81,75
170,-15168,12,754,-4800,22,-177,-79,65
171,-15128,18,812,-4804,22,-170,-80,71
172,-15154,-14,764,-4802,22,-172,-73,69
173,-15142,-28,744,-4800,22,-172,-76,63
174,-15138,-10,682,-4797,22,-178,-73,73
175,-15110,46,858,-4803,22,-171,-78,67
176,-15192,24,748,-4797,22,-174,-66,66
177,-15058,-2,740,-4806,22,-176,-78,64
178,-15190,74,748,-4803,22,-171,-78,70
179,-15186,-56,746,-4789,22,-176,-80,64
180,-15190,-46,780,-4811,22,-172,-72,72
181,-15156,-26,848,-4804,22,-180,-72,73
182,-15204,-30,696,-4794,22,-181,-77,68
183,-15172,-26,788,-4794,22,-177,-79,70
184,-15218,-42,696,-4805,22,-172,-77,69
185,-15178,-56,830,-4801,22,-172,-76,73
186,-15120,-4,742,-4795,22,-171,-82,68
187,-15168,0,742,-4804,22,-169,-80,75
188,-15174,-38,698,-4799,22,-174,-76,72
189,-15142,-16,764,-4794,22,-172,-71,73
190,-15126,-8,778,-4811,22,-173,-78,71
191,-15152,-14,658,-4803,22,-173,-81,73
192,-15106,-32,788,-4804,22,-169,-80,70
193,-15142,-36,662,-4785,22,-169,-73,73
194,-15146,-44,740,-4802,22,-169,-71,68
195,-15082,-8,724,-4786,22,-175,-84,67
196,-15184,-16,688,-4794,22,-178,-73,63
197,-15172,-40,772,-4790,22,-174,-73,72
198,-15186,-44,772,-4804,22,-170,-75,64
199,-15170,68,742,-4799,22,-173,-80,74
200,-15206,-16,640,-4799,22,-163,-78,70
201,-15144,-40,668,-4801,22,-177,-87,66
202,-15102,-24,876,-4796,22,-176,-72,68
203,-15120,16,838,-4804,22,-177,-74,73
204,-15176,-46,740,-4804,22,-171,-69,65
205,-15178,10,866,-4795,22,-171,-80,72
206,-15184,-70,738,-4798,22,-171,-74,74
207,-15044,-14,826,-4803,22,-176,-80,66
208,-15120,2,780,-4797,22,-172,-79,65
209,-15202,-8,796,-4790,22,-177,-77,66
210,-15184,-30,700,-4789,22,-177,-75,70
211,-15160,34,680,-4795,22,-171,-75,66
212,-15158,18,828,-4799,22,-171,-75,66
213,-15208,-36,732,-4794,22,-173,-71,67
214,-15200,-10,716,-4797,22,-170,-77,72
215,-15096,-8,706,-4793,22,-180,-77,71
216,-15148,10,738,-4797,22,-173,-71,75
217,-15142,-48,746,-4798,22,-171,-75,69
218,-15160,4,814,-4794,22,-169,-78,72
219,-15232,14,742,-4799,22,-172,-83,66
220,-15204,-38,754,-4793,22,-175,-73,65
221,-15174,-20,686,-4803,22,-174,-74,66
222,-15224,-8,766,-4792,22,-171,-80,68
223,-15160,-10,860,-4792,22,-171,-77,69
224,-15126,-6,786,-4794,22,-174,-77,65
225,-15110,-22,742,-4794,22,-173,-71,70
226,-15138,-64,802,-4796,22,-176,-82,75
227,-15122,-42,688,-4799,22,-177,-78,75
228,-15104,-56,802,-4796,22,-173,-74,67
229,-15142,10,642,-4804,22,-170,-82,72
230,-15210,18,674,-4791,22,-174,-75,71
231,-15126,-36,750,-4785,22,-168,-72,71
232,-15208,-4,702,-4797,22,-181,-71,64
233,-15126,30,860,-4787,22,-174,-77,72
234,-15190,-4,744,-4786,22,-170,-76,71
235,-15138,6,804,-4790,22,-173,-73,70
236,-15192,54,666,-4784,22,-165,-72,71
237,-15158,-14,722,-4792,22,-172,-76,66
238,-15192,-22,716,-4787,22,-175,-75,64
239,-15168,-16,782,-4795,22,-174,-72,70
240,-15122,18,742,-4793,22,-172,-82,66
241,-15180,-2,730,-4796,22,-175,-76,66
242,-15194,-36,806,-4800,22,-181,-68,63
243,-15150,-20,742,-4798,22,-175,-81,72
244,-15124,-52,718,-4798,22,-175,-76,71
245,-15086,-32,774,-4800,22,-175,-71,69
246,-15164,-16,712,-4799,22,-172,-75,72
247,-15090,-50,736,-4794,22,-178,-78,70
248,-15174,-18,774,-4797,22,-174,-78,68
249,-15198,-30,732,-4781,22,-172,-77,64
250,-15204,2,754,-4787,22,-172,-78,68
251,-15192,-48,724,-4801,22,-170,-84,74
252,-15164,-14,738,-4794,22,-172,-69,73
253,-15148,-28,822,-4796,22,-176,-72,64
254,-15170,16,734,-4780,22,-169,-81,67
255,-15184,-46,768,-4806,22,-179,-78,73
256,-15160,-36,800,-4797,22,-175,-73,62
257,-15144,-8,750,-4796,22,-171,-78,73
258,-15136,22,750,-4794,22,-175,-77,63
259,-15170,6,744,-4788,22,-175,-73,72
260,-15170,6,682,-4798,22,-173,-77,71
261,-15170,-14,740,-4781,22,-174,-73,66
262,-15136,-4,770,-4786,22,-173,-73,61
263,-15178,0,694,-4791,22,-172,-81,66
264,-15144,-6,718,-4794,22,-169,-68,72
265,-15116,-64,774,-4791,22,-174,-76,66
266,-15122,-42,726,-4806,22,-176,-71,68
267,-15146,-24,782,-4792,22,-173,-74,74
268,-15126,6,758,-4799,22,-166,-77,71
269,-15122,-12,804,-4793,22,-174,-73,63
270,-15196,-2,742,-4786,22,-171,-73,63
271,-15104,-24,758,-4799,22,-176,-79,70
272,-15154,30,726,-4794,22,-176,-79,78
273,-15088,-22,766,-4782,22,-180,-75,66
274,-15162,-56,764,-4793,22,-177,-74,68
275,-15172,46,700,-4790,22,-169,-81,69
276,-15170,-48,702,-4791,22,-180,-77,64
277,-15182,-2,782,-4794,22,-174,-77,68
278,-15136,4,804,-4782,22,-180,-71,71
279,-15146,-32,746,-4792,22,-166,-85,67
280,-15192,20,678,-4789,22,-176,-75,71
281,-15150,30,846,-4793,22,-171,-82,72
282,-15100,-64,692,-4785,22,-169,-73,77
283,-15126,8,774,-4785,22,-177,-79,63
284,-15094,22,694,-4788,22,-168,-79,65
285,-15196,2,752,-4786,22,-173,-73,66
286,-15154,42,736,-4789,22,-177,-75,70
287,-15152,18,784,-4790,22,-176,-75,70
288,-15148,-6,776,-4795,22,-172,-83,71
289,-15138,-72,796,-4789,22,-178,-73,72
290,-15148,-92,732,-4784,22,-173,-74,71
291,-15158,-58,778,-4774,22,-177,-75,66
292,-15200,-80,702,-4788,22,-175,-79,66
293,-15064,-6,746,-4795,22,-176,-79,71
294,-15168,-8,738,-4784,22,-171,-66,63
295,-15112,36,788,-4789,22,-170,-77,64
296,-15106,-14,772,-4795,22,-176,-82,69
297,-15204,-18,820,-4792,22,-170,-74,69
298,-15136,-52,690,-4785,22,-178,-73,61
299,-15112,12,710,-4779,22,-179,-73,67
300,-15136,54,674,-4789,22,-168,-75,68
301,-15104,-12,732,-4784,22,-172,-76,63
302,-15118,-52,774,-4791,22,-172,-80,72
303,-15174,10,726,-4804,22,-173,-75,71
304,-15214,0,748,-4792,22,-177,-76,70
305,-15136,28,764,-4797,22,-168,-81,66
306,-15176,-24,716,-4791,22,-173,-80,72
307,-15144,-20,760,-4792,22,-176,-67,64
308,-15116,16,768,-4789,22,-178,-83,68
309,-15072,-58,612,-4784,22,-171,-75,65
310,-15132,22,802,-4792,22,-166,-71,71
311,-15086,-30,778,-4793,22,-180,-72,72
312,-15114,-14,650,-4793,22,-175,-77,76
313,-15160,12,758,-4786,22,-174,-82,69
314,-15152,36,794,-4781,22,-174,-77,71
315,-15068,26,730,-4786,22,-174,-71,69
316,-15212,-16,674,-4779,22,-171,-78,69
317,-15152,12,792,-4781,22,-181,-76,68
318,-15116,28,764,-4787,22,-174,-78,70
319,-15102,-26,672,-4789,22,-172,-80,67
320,-15200,-52,714,-4790,22,-178,-78,69
321,-15118,-6,784,-4787,22,-167,-74,71
322,-15102,-52,748,-4790,22,-171,-83,72
323,-15142,56,710,-4792,22,-177,-72,71
324,-15172,-58,736,-4793,22,-169,-79,67
325,-15092,12,838,-4794,22,-177,-81,71
326,-15074,30,802,-4795,22,-176,-74,76
327,-15176,-18,680,-4782,22,-170,-79,65
328,-15130,0,684,-4791,22,-166,-74,71
329,-15094,-32,846,-4782,22,-174,-72,70
330,-15192,-18,820,-4782,22,-179,-81,70
331,-15144,40,736,-4784,22,-177,-88,73
332,-15174,48,756,-4780,22,-175,-78,71
333,-15164,-28,756,-4795,22,-174,-81,69
334,-15136,-4,732,-4789,22,-173,-69,77
335,-15202,-98,822,-4772,22,-169,-72,68
336,-15130,32,722,-4785,22,-175,-76,64
337,-15218,-10,682,-4783,22,-168,-75,68
338,-15150,-14,808,-4777,22,-173,-76,65
339,-15136,-76,780,-4783,22,-175,-77,74
340,-15178,36,750,-4777,22,-169,-80,66
341,-15120,-4,660,-4780,22,-174,-69,69
342,-15156,-56,768,-4784,22,-178,-71,71
343,-15170,-28,784,-4790,22,-170,-71,67
344,-15134,-30,704,-4791,22,-179,-74,60
345,-15138,-10,742,-4783,22,-171,-74,74
346,-15124,-38,834,-4785,22,-177,-70,68
347,-15128,-18,734,-4783,22,-168,-79,67
348,-15180,-16,712,-4788,22,-169,-79,69
349,-15168,-68,690,-4785,22,-172,-80,70
350,-15128,-8,754,-4779,22,-179,-79,70
351,-15124,26,660,-4790,22,-170,-78,72
352,-15144,74,792,-4786,22,-174,-79,65
353,-15126,-12,700,-4787,22,-174,-68,64
354,-15118,-24,768,-4789,22,-178,-82,62
355,-15150,-54,780,-4783,22,-173,-77,73
356,-15122,24,784,-4785,22,-170,-76,70
357,-15148,2,722,-4782,22,-174,-77,68
358,-15160,14,784,-4781,22,-172,-76,71
359,-15146,30,756,-4779,22,-174,-71,67
360,-15210,10,782,-4772,22,-179,-80,69
361,-15142,22,764,-4791,22,-170,-72,67
362,-15138,-18,786,-4793,22,-181,-76,70
363,-15184,10,688,-4788,22,-174,-77,67
364,-15202,-12,824,-4772,22,-173,-86,76
365,-15170,-30,752,-4788,22,-169,-71,71
366,-15160,28,684,-4792,22,-170,-82,71
367,-15128,-2,722,-4778,22,-169,-80,68
368,-15154,-22,722,-4776,22,-177,-73,73
369,-15134,-14,744,-4785,22,-176,-76,63
370,-15136,10,816,-4790,22,-170,-75,70
371,-15148,-16,720,-4782,22,-166,-84,73
372,-15146,-18,742,-4782,22,-168,-69,72
373,-15210,24,822,-4777,22,-175,-80,70
374,-15112,-14,704,-4774,22,-173,-77,72
375,-15176,6,788,-4791,22,-165,-83,74
376,-15170,-40,758,-4767,22,-175,-79,69
377,-15154,-26,740,-4782,22,-172,-75,67
378,-15128,38,732,-4781,22,-171,-80,69
379,-15122,-56,690,-4780,22,-166,-81,68
380,-15146,-14,760,-4779,22,-172,-76,71
381,-15146,18,738,-4792,22,-177,-83,65
382,-15182,-18,710,-4790,22,-174,-74,70
383,-15116,-12,730,-4781,22,-171,-76,62
384,-15200,6,686,-4782,22,-175,-78,69
385,-15186,8,736,-4777,22,-173,-70,65
386,-15162,18,878,-4780,22,-178,-79,65
387,-15120,-22,748,-4784,22,-170,-70,72
388,-15154,-16,800,-4782,22,-175,-79,67
389,-15106,12,758,-4776,22,-173,-82,74
390,-15124,-80,746,-4782,22,-180,-73,75
391,-15120,-40,716,-4782,22,-175,-67,62
392,-15130,-34,766,-4779,22,-167,-75,71
393,-15206,-52,682,-4787,22,-170,-73,66
394,-15158,-12,698,-4776,22,-177,-70,72
395,-15150,-24,678,-4791,22,-175,-82,77
396,-15144,-18,764,-4783,22,-176,-73,72
397,-15140,18,742,-4774,22,-172,-75,68
398,-15222,40,734,-4789,22,-167,-73,75
399,-15138,-42,812,-4773,22,-173,-86,67
400,-15206,2,706,-4777,22,-182,-75,64
401,-15180,12,766,-4784,22,-175,-75,69
402,-15112,2,688,-4787,22,-166,-79,67
403,-15120,-44,706,-4776,22,-165,-69,68
404,-15130,10,848,-4783,22,-171,-74,62
405,-15182,-52,782,-4779,22,-181,-71,64
406,-15152,-14,706,-4775,22,-171,-77,70
407,-15124,-26,792,-4776,22,-174,-72,68
408,-15220,-8,796,-4783,22,-171,-75,72
409,-15156,4,692,-4786,22,-168,-75,71
410,-15118,26,662,-4778,22,-177,-73,68
411,-15134,-20,628,-4782,22,-172,-76,67
412,-15084,-24,730,-4765,22,-171,-77,77
413,-15182,-2,724,-4779,22,-175,-70,67
414,-15080,-36,774,-4776,22,-174,-82,73
415,-15162,10,732,-4786,22,-179,-78,71
416,-15170,-26,824,-4782,22,-177,-75,69
417,-15098,0,766,-4779,22,-175,-76,72
418,-15132,48,714,-4776,22,-172,-77,66
419,-15176,-52,742,-4791,22,-178,-72,69
420,-15166,-22,780,-4780,22,-174,-74,70
421,-15156,-12,686,-4768,22,-175,-75,75
422,-15162,-30,782,-4780,22,-174,-80,68
423,-15166,10,776,-4781,22,-174,-77,66
424,-15176,-26,810,-4780,22,-177,-80,73
425,-15218,-90,718,-4783,22,-177,-82,68
426,-15186,18,660,-4768,22,-176,-78,65
427,-15220,-36,750,-4777,22,-164,-78,63
428,-15142,40,754,-4776,22,-177,-78,73
429,-15212,-24,812,-4760,22,-172,-74,72
430,-15152,-46,772,-4777,22,-171,-80,68
431,-15200,4,790,-4782,22,-170,-76,62
432,-15158,-12,792,-4777,22,-169,-75,69
433,-15102,-26,720,-4785,22,-171,-71,71
434,-15122,48,710,-4772,22,-178,-74,68
435,-15142,0,734,-4768,22,-168,-69,70
436,-15176,20,836,-4773,22,-178,-77,69
437,-15152,26,698,-4784,22,-172,-74,71
438,-15214,8,674,-4767,22,-166,-82,65
439,-15130,2,752,-4781,22,-173,-70,63
440,-15124,10,800,-4779,22,-178,-75,72
441,-15162,8,740,-4777,22,-170,-79,67
442,-15178,-52,722,-4787,22,-169,-82,69
443,-15176,-12,810,-4772,22,-168,-78,70
444,-15192,-2,710,-4769,22,-175,-70,78
445,-15142,-18,764,-4772,22,-172,-76,67
446,-15154,-6,836,-4783,22,-172,-74,69
447,-15138,-16,750,-4769,22,-178,-82,69
448,-15140,-40,700,-4772,22,-173,-79,65
449,-15158,6,680,-4776,22,-172,-75,70
450,-15148,46,784,-4775,22,-178,-78,74
451,-15140,-4,794,-4779,22,-170,-82,69
452,-15188,4,722,-4777,22,-175,-67,68
453,-15134,-98,738,-4767,22,-175,-72,65
454,-15168,-6,740,-4786,22,-171,-71,65
455,-15104,-20,754,-4771,22,-167,-80,73
456,-15144,12,690,-4775,22,-168,-76,67
457,-15146,-40,714,-4781,22,-172,-74,70
458,-15174,-16,692,-4764,22,-173,-77,65
459,-15164,78,710,-4780,22,-173,-74,71
460,-15148,2,764,-4776,22,-173,-79,76
461,-15154,-4,594,-4765,22,-181,-77,74
462,-15092,-20,692,-4768,22,-183,-80,66
463,-15146,-6,742,-4777,22,-182,-75,73
464,-15090,-26,740,-4754,23,-174,-75,69
465,-15150,-10,756,-4769,22,-173,-78,69
466,-15172,-54,762,-4785,22,-173,-77,72
467,-15156,-40,704,-4776,22,-172,-71,67
468,-15180,8,722,-4773,22,-173,-80,69
469,-15150,-2,758,-4770,22,-172,-68,67
470,-15148,32,708,-4766,22,-176,-75,71
471,-15146,-10,696,-4771,22,-173,-73,66
472,-15162,8,742,-4773,22,-176,-78,63
473,-15184,10,708,-4788,22,-170,-76,68
474,-15148,-18,762,-4773,22,-174,-75,70
475,-15158,-18,720,-4771,22,-171,-77,69
476,-15184,-16,720,-4779,22,-180,-69,68
477,-15130,-40,764,-4770,22,-176,-79,70
478,-15140,-60,810,-4767,22,-168,-73,68
479,-15124,18,788,-4781,22,-165,-80,72
480,-15166,-38,720,-4767,22,-177,-80,67
481,-15128,-24,756,-4768,22,-176,-74,67
482,-15162,-14,804,-4765,22,-169,-69,64
483,-15128,-12,782,-4762,22,-175,-82,66
484,-15144,-14,682,-4773,22,-174,-82,68
485,-15100,38,766,-4763,22,-177,-82,64
486,-15174,-46,704,-4773,22,-182,-76,60
487,-15146,-54,754,-4771,22,-175,-74,66
488,-15066,34,814,-4783,22,-179,-82,71
489,-15068,2,816,-4773,22,-174,-74,72
490,-15148,-48,782,-4770,22,-168,-74,72
491,-15162,-22,676,-4771,22,-176,-81,69
492,-15168,-32,772,-4773,22,-167,-75,67
493,-15170,-20,868,-4769,22,-171,-78,66
494,-15158,16,672,-4762,22,-174,-77,71
495,-15106,-24,818,-4772,22,-170,-71,77
496,-15168,8,800,-4774,22,-174,-79,66
497,-15122,18,704,-4771,22,-173,-74,65
498,-15170,-58,786,-4765,22,-177,-70,65
499,-15182,16,716,-4767,22,-175,-80,74
500,-15174,-34,744,-4756,23,-179,-81,72
501,-15132,-32,788,-4773,22,-175,-74,68
502,-15126,-24,774,-4769,22,-170,-83,73
503,-15190,40,714,-4777,22,-172,-69,69
504,-15148,-24,756,-4768,22,-167,-82,71
505,-15154,-48,738,-4772,22,-172,-77,66
506,-15066,-40,734,-4768,22,-176,-74,70
507,-15202,-46,702,-4769,22,-171,-82,68
508,-15154,0,720,-4772,22,-175,-80,71
509,-15180,-8,700,-4766,22,-171,-75,65
510,-15174,-68,832,-4773,22,-176,-77,67
511,-15138,-18,758,-4771,22,-178,-69,70
512,-15170,-22,734,-4761,22,-183,-71,67
513,-15100,-22,734,-4774,22,-179,-75,71
514,-15146,52,746,-4770,22,-174,-85,68
515,-15136,-36,800,-4758,23,-171,-73,63
516,-15154,-32,720,-4764,22,-179,-74,73
517,-15142,-42,776,-4778,22,-173,-70,72
518,-15194,-22,636,-4773,22,-178,-74,71
519,-15114,10,754,-4769,22,-173,-73,59
520,-15120,-84,724,-4767,22,-174,-79,75
521,-15164,-8,744,-4768,22,-169,-74,64
522,-15124,-2,770,-4765,22,-174,-76,68
523,-15154,4,744,-4767,22,-171,-77,65
524,-15174,46,644,-4773,22,-178,-81,67
525,-15156,-50,748,-4763,22,-173,-84,69
526,-15102,30,732,-4765,22,-175,-74,77
527,-15184,-42,718,-4778,22,-171,-81,64
528,-15136,-2,822,-4778,22,-166,-77,72
529,-15190,30,758,-4772,22,-172,-70,69
530,-15116,-12,750,-4773,22,-173,-69,68
531,-15112,-18,714,-4771,22,-178,-79,68
532,-15152,-46,696,-4769,22,-170,-75,65
533,-15126,16,692,-4779,22,-174,-77,64
534,-15172,-18,794,-4780,22,-172,-88,71
535,-15194,10,734,-4768,22,-170,-77,69
536,-15106,0,740,-4761,22,-167,-79,71
537,-15146,-8,882,-4789,22,-170,-78,71
538,-15120,-24,798,-4763,22,-173,-82,67
539,-15100,-20,730,-4766,22,-174,-83,70
540,-15150,-32,732,-4756,23,-174,-77,71
541,-15134,-40,754,-4773,22,-178,-73,67
542,-15160,18,784,-4759,23,-169,-71,68
543,-15098,-44,680,-4764,22,-167,-74,62
544,-15158,-26,840,-4764,22,-172,-77,66
545,-15174,18,700,-4776,22,-175,-83,62
546,-15128,-2,770,-4768,22,-174,-73,66
547,-15094,4,700,-4768,22,-172,-80,65
548,-15176,-52,778,-4762,22,-175,-74,75
549,-15184,-14,750,-4766,22,-178,-81,63
550,-15084,16,836,-4761,22,-172,-78,69
551,-15154,30,722,-4761,22,-172,-76,70
552,-15148,-78,762,-4770,22,-168,-77,71
553,-15206,-8,772,-4768,22,-181,-74,62
554,-15108,-14,706,-4763,22,-176,-72,69
555,-15130,-16,728,-4770,22,-171,-71,76
556,-15130,-40,728,-4771,22,-174,-74,60
557,-15204,72,678,-4775,22,-175,-73,66
558,-15184,-32,720,-4764,22,-177,-83,77
559,-15178,22,716,-4774,22,-172,-70,67
560,-15174,-10,722,-4780,22,-175,-76,68
561,-15140,-12,700,-4776,22,-172,-78,72
562,-15178,-16,810,-4766,22,-169,-78,72
563,-15188,-42,780,-4771,22,-176,-76,68
564,-15214,-12,696,-4777,22,-171,-76,67
565,-15122,28,748,-4765,22,-178,-78,72
566,-15172,-54,782,-4776,22,-168,-81,70
567,-15176,14,780,-4775,22,-176,-80,58
568,-15148,-2,694,-4766,22,-170,-76,70
569,-15188,4,800,-4755,23,-169,-80,72
570,-15182,-8,766,-4767,22,-179,-73,71
571,-15100,-8,744,-4759,23,-173,-73,69
572,-15168,58,686,-4759,23,-174,-77,69
573,-15200,-8,714,-4754,23,-175,-74,68
574,-15108,-28,702,-4769,22,-172,-76,65
575,-15164,64,696,-4771,22,-175,-77,69
576,-15186,-32,742,-4775,22,-171,-80,72
577,-15192,-16,700,-4763,22,-174,-67,65
578,-15162,-4,768,-4764,22,-170,-78,68
579,-15150,-30,880,-4768,22,-171,-76,62
580,-15126,4,742,-4761,22,-170,-79,71
581,-15132,-32,686,-4751,23,-166,-79,67
582,-15166,42,742,-4769,22,-179,-75,68
583,-15194,22,684,-4756,23,-182,-89,66
584,-15230,6,772,-4778,22,-166,-77,68
585,-15172,12,726,-4771,22,-172,-78,65
586,-15132,26,686,-4765,22,-174,-80,66
587,-15182,-4,718,-4766,22,-175,-76,71
588,-15230,-26,802,-4761,22,-168,-73,75
589,-15214,-14,766,-4771,22,-170,-77,65
590,-15236,-12,698,-4769,22,-174,-81,73
591,-15112,-56,762,-4757,23,-172,-76,66
592,-15198,-20,754,-4769,22,-176,-74,66
593,-15148,-42,676,-4767,22,-176,-77,70
594,-15182,-12,856,-4753,23,-171,-75,73
595,-15126,-46,778,-4769,22,-172,-71,68
596,-15192,-76,784,-4749,23,-169,-83,74
597,-15178,12,732,-4761,22,-178,-78,69
598,-15158,-10,782,-4759,23,-180,-80,64
599,-15120,-36,692,-4762,22,-167,-77,72
600,-15122,-30,702,-4761,22,-177,-85,72
601,-15114,-42,768,-4760,22,-174,-72,71
602,-15230,0,730,-4770,22,-176,-77,67
603,-15178,-24,752,-4759,23,-173,-76,70
604,-15126,8,786,-4772,22,-179,-77,74
605,-15146,-24,790,-4761,22,-176,-73,70
606,-15142,26,720,-4764,22,-169,-82,67
607,-15164,28,604,-4765,22,-179,-74,69
608,-15134,-20,784,-4757,23,-174,-76,70
609,-15110,-44,732,-4773,22,-173,-83,66
610,-15122,40,864,-4765,22,-171,-72,76
611,-15178,28,712,-4771,22,-167,-79,71
612,-15172,-52,630,-4764,22,-173,-80,67
613,-15190,-4,744,-4765,22,-166,-81,69
614,-15210,-12,726,-4767,22,-176,-78,77
615,-15100,-68,754,-4759,23,-173,-80,65
616,-15186,-22,782,-4753,23,-183,-75,71
617,-15112,-22,762,-4756,23,-172,-71,65
618,-15218,-24,700,-4768,22,-174,-71,66
619,-15130,10,734,-4757,23,-173,-73,71
620,-15138,-68,640,-4752,23,-176,-81,69
621,-15154,-30,816,-4764,22,-179,-78,70
622,-15190,48,754,-4769,22,-172,-70,72
623,-15206,32,734,-4775,22,-170,-81,78
624,-15192,40,718,-4763,22,-175,-81,69
625,-15190,-26,740,-4774,22,-166,-73,64
626,-15206,8,724,-4771,22,-173,-73,66
627,-15148,-78,722,-4762,22,-177,-70,66
628,-15164,0,746,-4763,22,-171,-73,67
629,-15126,-22,794,-4765,22,-171,-75,64
630,-15138,-54,762,-4754,23,-173,-78,71
631,-15144,58,772,-4770,22,-172,-78,69
632,-15128,60,772,-4752,23,-174,-76,63
633,-15156,-24,736,-4760,22,-176,-78,71
634,-15166,-78,798,-4757,23,-171,-76,73
635,-15144,-16,742,-4763,22,-177,-77,68
636,-15166,32,836,-4776,22,-171,-82,69
637,-15154,-12,750,-4764,22,-178,-79,71
638,-15120,-68,668,-4761,22,-177,-78,70
639,-15134,-64,768,-4756,23,-175,-75,75
640,-15164,-94,732,-4768,22,-180,-75,64
641,-15152,32,832,-4769,22,-173,-83,68
642,-15128,-22,742,-4758,23,-166,-81,67
643,-15114,-60,738,-4757,23,-171,-73,72
644,-15098,-42,778,-4770,22,-177,-80,69
645,-15120,-36,770,-4770,22,-174,-68,70
646,-15154,-18,786,-4775,22,-179,-75,65
647,-15146,6,738,-4763,22,-174,-81,68
648,-15148,-32,754,-4762,22,-180,-78,70
649,-15204,-44,708,-4766,22,-173,-74,69
650,-15136,-6,776,-4764,22,-175,-78,70
651,-15122,12,760,-4775,22,-166,-76,67
652,-15138,-10,766,-4767,22,-177,-75,65
653,-15156,-2,780,-4760,22,-177,-71,67
654,-15136,-66,708,-4759,23,-172,-74,67
655,-15174,12,756,-4766,22,-178,-74,66
656,-15166,-38,840,-4747,23,-174,-73,71
657,-15208,16,788,-4742,23,-169,-67,68
658,-15166,38,666,-4776,22,-182,-85,68
659,-15154,-12,804,-4749,23,-172,-80,63
660,-15170,4,742,-4770,22,-174,-71,73
661,-15100,-12,796,-4758,23,-176,-80,70
662,-15128,-10,784,-4765,22,-173,-77,72
663,-15158,-34,810,-4749,23,-171,-77,68
664,-15166,-28,732,-4763,22,-182,-69,75
665,-15138,32,754,-4760,22,-169,-82,68
666,-15146,-22,766,-4769,22,-170,-79,70
667,-15164,-2,760,-4772,22,-174,-75,66
668,-15128,-34,756,-4769,22,-177,-80,73
669,-15106,46,810,-4755,23,-168,-77,67
670,-15084,-4,644,-4763,22,-175,-83,67
671,-15150,-48,732,-4758,23,-177,-78,71
672,-15150,2,796,-4760,22,-174,-76,67
673,-15120,-20,754,-4767,22,-172,-72,69
674,-15170,22,772,-4757,23,-180,-74,66
675,-15118,-34,718,-4759,23,-171,-75,69
676,-15146,-36,728,-4759,23,-171,-75,65
677,-15224,-66,794,-4759,23,-174,-73,69
678,-15118,32,750,-4757,23,-176,-68,66
679,-15146,-24,616,-4772,22,-170,-77,68
680,-15152,34,758,-4752,23,-169,-75,62
681,-15152,0,748,-4754,23,-173,-79,77
682,-15156,34,704,-4765,22,-178,-70,69
683,-15154,-28,702,-4761,22,-171,-77,73
684,-15160,18,744,-4767,22,-172,-76,66
685,-15188,14,828,-4758,23,-171,-70,69
686,-15144,-54,780,-4758,23,-169,-77,68
687,-15118,-14,752,-4762,22,-167,-79,73
688,-15102,-16,686,-4747,23,-173,-77,73
689,-15206,26,772,-4761,22,-174,-76,72
690,-15192,-52,678,-4755,23,-171,-76,70
691,-15210,-16,708,-4757,23,-169,-74,72
692,-15176,-32,744,-4755,23,-177,-74,74
693,-15128,6,762,-4765,22,-171,-87,65
694,-15202,-30,782,-4756,23,-175,-75,68
695,-15154,6,760,-4766,22,-181,-76,72
696,-15196,36,802,-4756,23,-176,-81,70
697,-15158,-44,720,-4763,22,-173,-75,67
698,-15112,-2,764,-4768,22,-175,-73,60
699,-15186,-58,734,-4753,23,-173,-81,70
700,-15138,-86,742,-4758,23,-176,-77,63
701,-15150,-40,818,-4773,22,-172,-69,69
702,-15148,-36,680,-4764,22,-169,-81,69
703,-15168,-60,722,-4762,22,-180,-75,68
704,-15134,-46,776,-4754,23,-173,-70,71
705,-15174,14,720,-4761,22,-171,-73,72
706,-15102,44,690,-4767,22,-178,-77,69
707,-15214,20,674,-4759,23,-169,-75,67
708,-15146,-4,700,-4757,23,-178,-74,74
709,-15126,32,730,-4757,23,-180,-67,77
710,-15190,-102,768,-4754,23,-173,-76,75
711,-15122,-8,752,-4761,22,-170,-80,62
712,-15154,50,752,-4764,22,-176,-77,62
713,-15148,-14,742,-4758,23,-167,-83,71
714,-15118,-68,758,-4750,23,-166,-75,70
715,-15150,-22,830,-4765,22,-177,-77,66
716,-15170,22,728,-4768,22,-172,-81,69
717,-15178,-2,726,-4760,22,-172,-73,69
718,-15196,20,718,-4760,22,-173,-77,67
719,-15134,-104,800,-4758,23,-170,-77,70
720,-15156,-12,794,-4756,23,-172,-75,68
721,-15140,-42,696,-4763,22,-172,-77,72
722,-15174,-6,748,-4753,23,-173,-81,66
723,-15174,-6,770,-4747,23,-172,-80,66
724,-15198,24,660,-4745,23,-168,-75,66
725,-15166,-42,726,-4751,23,-175,-82,73
726,-15154,-56,672,-4762,22,-178,-81,65
727,-15144,16,778,-4755,23,-168,-76,65
728,-15218,-22,812,-4754,23,-173,-79,70
729,-15078,-24,812,-4751,23,-169,-76,67
730,-15146,36,698,-4754,23,-173,-79,71
731,-15160,56,738,-4752,23,-171,-72,62
732,-15154,18,792,-4762,22,-175,-76,65
733,-15170,-20,752,-4760,22,-171,-85,69
734,-15192,12,680,-4752,23,-172,-80,67
735,-15062,8,642,-4761,22,-179,-72,68
736,-15144,-6,710,-4757,23,-169,-72,71
737,-15166,-10,726,-4762,22,-176,-72,68
738,-15178,-48,742,-4758,23,-171,-73,71
739,-15206,26,662,-4767,22,-169,-80,71
740,-15176,-4,698,-4755,23,-175,-71,68
741,-15182,0,766,-4758,23,-175,-71,61
742,-15106,-92,784,-4764,22,-180,-83,71
743,-15164,8,718,-4766,22,-177,-79,74
744,-15170,16,708,-4754,23,-177,-75,68
745,-15174,-54,800,-4755,23,-172,-75,67
746,-15080,-20,710,-4761,22,-181,-77,71
747,-15204,-42,666,-4755,23,-174,-73,66
748,-15156,8,716,-4763,22,-176,-76,68
749,-15162,-60,824,-4759,23,-171,-81,73
750,-15116,-34,728,-4750,23,-179,-74,72
751,-15176,4,760,-4760,22,-172,-74,64
752,-15160,-56,618,-4763,22,-169,-81,68
753,-15200,64,794,-4757,23,-173,-81,71
754,-15206,4,742,-4761,22,-173,-73,71
755,-15178,-52,730,-4755,23,-175,-78,74
756,-15136,2,720,-4755,23,-174,-82,75
757,-15116,76,792,-4753,23,-166,-75,65
758,-15190,-44,646,-4758,23,-173,-73,64
759,-15118,22,730,-4757,23,-172,-71,62
760,-15180,-28,724,-4763,22,-173,-71,61
761,-15186,-54,784,-4761,22,-174,-73,63
762,-15166,16,812,-4749,23,-176,-77,65
763,-15144,-34,770,-4758,23,-170,-84,67
764,-15132,-26,758,-4763,22,-172,-75,68
765,-15128,44,814,-4760,22,-177,-77,67
766,-15132,-90,812,-4757,23,-178,-78,68
767,-15156,-82,716,-4750,23,-168,-77,73
768,-15152,-36,774,-4755,23,-165,-71,67
769,-15160,-4,736,-4751,23,-171,-71,74
770,-15128,14,732,-4763,22,-164,-73,69
771,-15154,-34,766,-4764,22,-173,-85,66
772,-15142,-28,686,-4759,23,-172,-81,67
773,-15164,-36,796,-4765,22,-171,-77,68
774,-15178,-6,724,-4762,22,-180,-76,71
775,-15144,-6,782,-4750,23,-172,-76,70
776,-15140,-36,704,-4743,23,-176,-78,75
777,-15144,4,688,-4753,23,-166,-79,68
778,-15216,-28,808,-4746,23,-180,-79,73
779,-15154,-26,848,-4763,22,-176,-76,74
780,-15154,-12,674,-4749,23,-170,-77,66
781,-15124,-20,714,-4755,23,-175,-76,61
782,-15152,6,662,-4764,22,-173,-77,71
783,-15138,-12,744,-4751,23,-176,-83,76
784,-15184,-18,732,-4753,23,-171,-86,68
785,-15170,-12,784,-4756,23,-176,-78,67
786,-15172,44,776,-4756,23,-173,-74,73
787,-15164,-8,748,-4767,22,-177,-81,65
788,-15198,32,752,-4759,23,-183,-76,65
789,-15088,52,768,-4756,23,-172,-79,69
790,-15224,-8,698,-4756,23,-172,-78,64
791,-15164,-68,754,-4759,23,-171,-78,66
792,-15174,-44,770,-4760,22,-174,-74,66
793,-15166,8,804,-4757,23,-178,-83,72
794,-15140,0,722,-4761,22,-171,-85,67
795,-15094,34,792,-4763,22,-176,-76,69
796,-15144,-40,692,-4755,23,-173,-76,69
797,-15114,6,756,-4759,23,-171,-84,69
798,-15198,6,772,-4757,23,-169,-73,65
799,-15158,-34,756,-4763,22,-180,-82,65
800,-15158,-10,712,-4748,23,-168,-76,66
801,-15180,-30,808,-4758,23,-180,-80,75
802,-15128,4,772,-4746,23,-178,-69,67
803,-15230,-46,620,-4757,23,-173,-75,71
804,-15132,22,740,-4761,22,-172,-77,67
805,-15156,-36,764,-4756,23,-168,-81,73
806,-15104,4,734,-4745,23,-177,-82,76
807,-15164,34,702,-4744,23,-172,-74,70
808,-15174,24,758,-4760,22,-180,-75,64
809,-15126,2,650,-4754,23,-175,-72,64
810,-15112,42,694,-4748,23,-177,-75,67
811,-15182,-34,716,-4764,22,-171,-74,70
812,-15240,-22,778,-4749,23,-164,-78,71
813,-15158,-10,758,-4746,23,-176,-79,70
814,-15134,-68,768,-4751,23,-173,-74,66
815,-15154,-10,744,-4762,22,-171,-80,61
816,-15074,12,748,-4758,23,-177,-84,70
817,-15174,12,802,-4759,23,-175,-82,75
818,-15122,-52,742,-4758,23,-175,-79,69
819,-15140,-8,720,-4759,23,-179,-77,68
820,-15200,-50,752,-4759,23,-173,-74,67
821,-15124,-26,734,-4759,23,-172,-79,69
822,-15182,20,860,-4750,23,-168,-83,74
823,-15138,44,718,-4754,23,-178,-75,70
824,-15174,-48,752,-4745,23,-174,-75,69
825,-15160,-58,712,-4752,23,-175,-67,73
826,-15164,-54,760,-4758,23,-169,-67,66
827,-15142,-16,788,-4751,23,-176,-78,71
828,-15164,-4,804,-4755,23,-172,-70,72
829,-15198,60,650,-4753,23,-173,-73,66
830,-15146,-50,804,-4762,22,-172,-80,68
831,-15182,-2,788,-4765,22,-177,-73,71
832,-15110,-36,710,-4762,22,-175,-76,65
833,-15176,-20,778,-4757,23,-164,-75,67
834,-15146,28,766,-4756,23,-174,-68,71
835,-15118,-42,808,-4759,23,-178,-74,71
836,-15138,-46,770,-4753,23,-170,-79,70
837,-15178,-16,810,-4757,23,-171,-74,63
838,-15218,-58,776,-4757,23,-170,-79,68
839,-15220,-6,764,-4745,23,-177,-76,70
840,-15150,-40,794,-4750,23,-176,-78,67
841,-15140,-12,642,-4758,23,-178,-84,66
842,-15150,-32,840,-4754,23,-172,-69,62
843,-15160,-12,766,-4752,23,-174,-74,73
844,-15140,-18,772,-4758,23,-173,-75,65
845,-15198,20,750,-4742,23,-169,-76,69
846,-15206,6,728,-4745,23,-172,-81,70
847,-15194,-98,614,-4752,23,-176,-76,70
848,-15094,4,744,-4759,23,-172,-75,65
849,-15168,-58,908,-4757,23,-175,-76,66
850,-15138,-54,752,-4748,23,-173,-89,72
851,-15120,12,820,-4755,23,-176,-86,70
852,-15144,-42,744,-4749,23,-173,-74,72
853,-15158,-22,682,-4749,23,-179,-79,63
854,-15144,42,788,-4744,23,-170,-77,69
855,-15110,68,794,-4755,23,-181,-82,69
856,-15108,24,776,-4759,23,-165,-78,65
857,-15178,-24,684,-4755,23,-174,-75,71
858,-15168,-28,710,-4767,22,-172,-79,68
859,-15128,-80,812,-4754,23,-172,-76,81
860,-15106,42,726,-4758,23,-177,-80,70
861,-15122,50,748,-4756,23,-174,-69,71
862,-15118,-18,742,-4745,23,-169,-78,75
863,-15140,-6,766,-4762,22,-176,-67,67
864,-15140,4,788,-4752,23,-173,-71,69
865,-15128,24,698,-4750,23,-171,-75,71
866,-15162,-26,766,-4750,23,-172,-82,62
867,-15172,10,666,-4762,22,-177,-78,70
868,-15132,-4,730,-4746,23,-172,-77,72
869,-15134,26,770,-4742,23,-173,-82,72
870,-15118,30,798,-4754,23,-167,-80,72
871,-15134,16,744,-4746,23,-173,-78,66
872,-15122,-14,736,-4756,23,-177,-80,59
873,-15214,-16,826,-4761,22,-170,-74,70
874,-15120,-26,784,-4759,23,-175,-74,70
875,-15142,32,710,-4759,23,-171,-75,67
876,-15152,-22,700,-4750,23,-175,-71,71
877,-15200,-54,720,-4755,23,-174,-67,72
878,-15204,-28,782,-4756,23,-167,-67,69
879,-15144,-10,760,-4753,23,-169,-85,69
880,-15198,8,816,-4751,23,-176,-82,64
881,-15186,-66,678,-4752,23,-174,-74,71
882,-15108,-2,792,-4750,23,-165,-72,70
883,-15146,-16,772,-4749,23,-169,-82,70
884,-15148,10,722,-4755,23,-177,-76,66
885,-15140,-10,828,-4759,23,-166,-76,68
886,-15196,20,760,-4749,23,-175,-76,76
887,-15208,8,778,-4762,22,-169,-74,71
888,-15134,12,756,-4757,23,-173,-73,67
889,-15172,14,748,-4770,22,-176,-77,63
890,-15094,28,822,-4748,23,-172,-71,66
891,-15132,14,732,-4754,23,-173,-74,73
892,-15166,-30,748,-4754,23,-174,-75,64
893,-15212,2,676,-4755,23,-169,-74,75
894,-15174,62,660,-4764,22,-169,-80,73
895,-15164,16,784,-4756,23,-174,-75,60
896,-15098,4,748,-4763,22,-173,-79,67
897,-15134,-2,766,-4758,23,-169,-80,64
898,-15172,38,696,-4748,23,-174,-76,69
899,-15184,24,702,-4750,23,-174,-74,64
900,-15172,4,734,-4754,23,-175,-83,67
901,-15156,30,728,-4740,23,-178,-75,70
902,-15172,-18,726,-4762,22,-176,-86,69
903,-15152,-76,768,-4756,23,-178,-75,62
904,-15156,52,770,-4746,23,-178,-82,67
905,-15144,-42,766,-4745,23,-174,-77,68
906,-15200,-66,776,-4754,23,-172,-76,73
907,-15166,-34,632,-4741,23,-178,-73,70
908,-15102,12,764,-4762,22,-177,-73,65
909,-15166,4,688,-4759,23,-172,-78,70
910,-15178,-18,686,-4736,23,-171,-70,67
911,-15128,-16,736,-4742,23,-182,-81,61
912,-15172,-8,794,-4738,23,-175,-74,67
913,-15180,40,780,-4756,23,-180,-75,70
914,-15194,10,806,-4753,23,-176,-78,70
915,-15146,-34,762,-4747,23,-176,-78,70
916,-15152,-12,774,-4749,23,-178,-76,71
917,-15148,-20,738,-4742,23,-171,-69,69
918,-15198,-26,664,-4753,23,-175,-74,72
919,-15188,10,766,-4745,23,-171,-75,63
920,-15136,-56,832,-4747,23,-180,-77,72
921,-15164,-26,774,-4752,23,-176,-79,70
922,-15132,-42,728,-4745,23,-180,-74,67
923,-15100,-4,780,-4744,23,-171,-77,72
924,-15146,-2,760,-4747,23,-178,-73,72
925,-15178,18,736,-4740,23,-169,-74,71
926,-15198,-34,754,-4753,23,-177,-76,65
927,-15162,-24,788,-4752,23,-171,-78,69
928,-15166,38,770,-4746,23,-171,-83,63
929,-15130,-36,798,-4746,23,-169,-78,73
930,-15134,64,754,-4751,23,-176,-69,66
931,-15156,26,726,-4760,22,-176,-81,75
932,-15130,4,684,-4750,23,-176,-65,71
933,-15168,-46,752,-4742,23,-175,-67,67
934,-15168,-36,666,-4744,23,-175,-75,66
935,-15166,8,886,-4741,23,-170,-77,69
936,-15124,-40,800,-4749,23,-173,-76,67
937,-15156,-34,740,-4752,23,-177,-75,69
938,-15124,42,684,-4755,23,-174,-84,66
939,-15124,26,752,-4759,23,-174,-79,76
940,-15114,-26,760,-4754,23,-177,-78,66
941,-15154,-46,682,-4749,23,-172,-75,66
942,-15116,-52,742,-4749,23,-167,-78,67
943,-15190,-20,800,-4740,23,-175,-78,72
944,-15098,-24,708,-4747,23,-166,-79,75
945,-15148,-14,794,-4742,23,-178,-79,74
946,-15148,10,798,-4744,23,-169,-74,73
947,-15176,-18,726,-4753,23,-173,-75,67
948,-15140,-46,762,-4757,23,-174,-77,69
949,-15124,-22,778,-4752,23,-177,-71,64
950,-15142,-32,754,-4744,23,-180,-70,74
951,-15202,36,722,-4746,23,-168,-81,73
952,-15166,26,758,-4754,23,-177,-76,68
953,-15160,-34,722,-4750,23,-174,-81,68
954,-15134,-6,786,-4747,23,-175,-73,72
955,-15184,-4,692,-4743,23,-175,-76,68
956,-15118,-56,658,-4747,23,-168,-80,74
957,-15186,-28,718,-4746,23,-175,-81,63
958,-15140,-50,752,-4760,22,-171,-80,71
959,-15114,-14,758,-4758,23,-177,-83,67
960,-15186,-26,748,-4744,23,-174,-80,69
961,-15150,-22,728,-4743,23,-179,-78,67
962,-15186,-50,744,-4758,23,-181,-85,70
963,-15164,-16,736,-4741,23,-172,-76,67
964,-15198,12,710,-4749,23,-172,-75,78
965,-15170,-16,792,-4760,22,-175,-82,69
966,-15146,-32,720,-4754,23,-177,-85,68
967,-15130,-14,688,-4752,23,-172,-72,72
968,-15146,24,720,-4744,23,-177,-78,76
969,-15212,-36,786,-4747,23,-167,-77,71
970,-15154,18,682,-4748,23,-167,-67,68
971,-15096,-36,812,-4759,23,-179,-85,65
972,-15160,-24,762,-4748,23,-174,-76,64
973,-15160,4,668,-4753,23,-176,-82,73
974,-15132,-46,776,-4743,23,-170,-82,66
975,-15178,-40,758,-4745,23,-172,-76,66
976,-15122,-38,732,-4747,23,-177,-70,74
977,-15198,-18,718,-4755,23,-177,-76,69
978,-15170,-40,784,-4759,23,-176,-76,68
979,-15132,0,730,-4743,23,-179,-73,71
980,-15182,-56,824,-4754,23,-175,-75,66
981,-15190,-84,820,-4745,23,-177,-75,76
982,-15164,20,732,-4755,23,-169,-69,72
983,-15158,-46,758,-4744,23,-169,-71,74
984,-15186,0,708,-4750,23,-176,-73,77
985,-15084,34,704,-4755,23,-170,-77,72
986,-15176,-70,718,-4754,23,-173,-77,76
987,-15148,-86,740,-4747,23,-174,-73,65
988,-15138,20,752,-4741,23,-171,-72,67
989,-15150,54,730,-4753,23,-167,-76,64
990,-15116,14,766,-4744,23,-170,-77,69
991,-15160,18,704,-4740,23,-172,-79,75
992,-15186,-38,724,-4751,23,-174,-72,71
993,-15172,24,754,-4743,23,-176,-77,68
994,-15140,-58,802,-4750,23,-172,-76,68
995,-15140,-66,726,-4756,23,-172,-74,68
