,acc_X,acc_Y,acc_Z,temp,tempC,gyr_X,gyr_Y,gyr_Z
0,-1894,-8,94,-4732,23,-85,-41,32
1,-1897,-2,98,-4729,23,-85,-36,36
2,-1891,-1,92,-4737,23,-86,-38,35
3,-1897,-1,100,-4731,23,-87,-38,35
4,-1897,-1,96,-4729,23,-86,-38,33
5,-1897,-5,87,-4736,23,-85,-36,35
6,-1899,-3,88,-4730,23,-87,-38,35
7,-1902,-1,94,-4732,23,-86,-38,34
8,-1895,-5,95,-4732,23,-85,-39,33
9,-1897,-4,96,-4725,23,-87,-39,36
10,-1890,-3,97,-4734,23,-85,-39,34
11,-1896,0,93,-4733,23,-88,-40,32
12,-1896,-4,94,-4728,23,-89,-37,34
13,-1895,-2,96,-4738,23,-87,-36,35
14,-1894,-9,94,-4739,23,-89,-38,34
15,-1891,-3,92,-4739,23,-89,-38,33
16,-1892,0,95,-4739,23,-86,-38,34
17,-1898,-3,82,-4745,23,-85,-39,34
18,-1894,-1,85,-4736,23,-85,-36,34
19,-1896,-4,97,-4732,23,-87,-37,33
20,-1897,-1,99,-4732,23,-83,-37,35
21,-1893,-3,101,-4736,23,-87,-38,35
22,-1895,-1,96,-4735,23,-90,-39,35
23,-1899,-1,98,-4738,23,-89,-42,36
24,-1894,-3,89,-4724,23,-89,-42,35
25,-1897,-7,96,-4726,23,-87,-38,35
26,-1895,2,92,-4735,23,-87,-39,34
27,-1890,-1,97,-4739,23,-89,-40,35
28,-1893,-7,93,-4736,23,-85,-39,31
29,-1891,-1,98,-4734,23,-87,-37,35
30,-1893,-6,90,-4729,23,-87,-39,37
31,-1899,-1,94,-4735,23,-86,-41,34
32,-1898,3,101,-4728,23,-85,-37,34
33,-1894,3,99,-4735,23,-86,-39,38
34,-1891,1,95,-4732,23,-84,-39,37
35,-1897,-1,90,-4731,23,-87,-40,36
36,-1895,-5,90,-4735,23,-88,-39,34
37,-1895,-1,91,-4736,23,-88,-39,34
38,-1894,-1,93,-4732,23,-86,-40,35
39,-1898,2,93,-4733,23,-89,-41,34
40,-1896,-3,88,-4731,23,-88,-37,34
41,-1895,-5,94,-4726,23,-87,-39,36
42,-1897,-1,92,-4728,23,-83,-39,36
43,-1900,1,95,-4726,23,-87,-38,34
44,-1899,-2,99,-4725,23,-88,-38,35
45,-1895,1,88,-4728,23,-88,-38,34
46,-1891,-2,90,-4730,23,-85,-39,32
47,-1893,-3,89,-4726,23,-87,-36,33
48,-1889,-4,94,-4730,23,-85,-37,35
49,-1893,0,86,-4736,23,-88,-39,36
50,-1894,-4,95,-4736,23,-87,-34,37
51,-1896,-5,102,-4732,23,-88,-39,34
52,-1894,5,90,-4734,23,-88,-37,34
53,-1893,-1,85,-4733,23,-88,-39,33
54,-1892,1,92,-4731,23,-86,-38,34
55,-1894,0,86,-4733,23,-88,-40,34
56,-1889,4,96,-4731,23,-91,-39,32
57,-1889,-6,96,-4727,23,-89,-39,34
58,-1893,-3,92,-4739,23,-86,-40,35
59,-1893,-4,88,-4727,23,-88,-37,33
60,-1897,-2,92,-4737,23,-87,-37,32
61,-1897,-8,90,-4727,23,-88,-40,35
62,-1897,-3,89,-4735,23,-88,-42,35
63,-1891,-5,88,-4738,23,-87,-37,34
64,-1888,-1,92,-4735,23,-87,-38,34
65,-1889,1,91,-4736,23,-87,-39,31
66,-1895,-3,94,-4732,23,-86,-40,33
67,-1895,-2,90,-4735,23,-87,-40,34
68,-1891,-3,94,-4740,23,-86,-39,34
69,-1899,-2,86,-4732,23,-85,-37,34
70,-1898,-3,84,-4734,23,-88,-40,36
71,-1895,0,92,-4733,23,-87,-37,36
72,-1896,-6,94,-4732,23,-86,-36,36
73,-1892,-2,88,-4734,23,-87,-39,36
74,-1895,3,89,-4734,23,-89,-38,35
75,-1896,-3,89,-4732,23,-89,-37,35
76,-1891,-2,88,-4737,23,-89,-39,36
77,-1896,-7,92,-4727,23,-86,-40,34
78,-1896,-4,94,-4731,23,-87,-40,35
79,-1894,1,91,-4727,23,-86,-38,34
80,-1898,-2,93,-4734,23,-85,-41,35
81,-1892,-2,91,-4738,23,-88,-38,36
82,-1892,0,92,-4727,23,-86,-42,34
83,-1897,-2,91,-4739,23,-86,-39,33
84,-1897,-2,88,-4731,23,-87,-38,33
85,-1900,1,87,-4729,23,-88,-39,32
86,-1898,-4,91,-4733,23,-88,-41,34
87,-1894,-2,100,-4742,23,-90,-37,35
88,-1896,3,97,-4733,23,-86,-40,35
89,-1892,4,104,-4734,23,-87,-41,35
90,-1891,1,84,-4733,23,-87,-42,35
91,-1889,-5,93,-4734,23,-86,-38,34
92,-1894,1,98,-4724,23,-85,-38,32
93,-1901,-2,90,-4731,23,-88,-37,36
94,-1896,-5,95,-4730,23,-89,-38,34
95,-1895,-7,93,-4721,23,-87,-38,33
96,-1888,-2,92,-4732,23,-86,-39,35
97,-1894,-6,95,-4731,23,-87,-39,35
98,-1894,-8,92,-4730,23,-87,-38,36
99,-1895,0,93,-4728,23,-89,-37,35
100,-1895,0,94,-4741,23,-89,-38,36
101,-1895,-3,105,-4733,23,-89,-37,32
102,-1893,2,98,-4737,23,-87,-38,35
103,-1892,4,95,-4726,23,-88,-39,37
104,-1897,2,101,-4736,23,-85,-41,35
105,-1896,-1,95,-4733,23,-88,-40,34
106,-1896,-3,95,-4727,23,-89,-39,34
107,-1894,1,91,-4737,23,-87,-37,35
108,-1895,1,88,-4736,23,-88,-38,36
109,-1892,4,91,-4732,23,-90,-38,35
110,-1890,-3,90,-4731,23,-89,-41,35
111,-1891,-3,99,-4732,23,-89,-39,34
112,-1898,-4,93,-4735,23,-88,-35,30
113,-1895,-2,97,-4732,23,-89,-39,34
114,-1899,-4,86,-4733,23,-89,-39,33
115,-1896,-4,92,-4731,23,-88,-37,34
116,-1895,-8,91,-4730,23,-88,-38,35
117,-1892,-1,92,-4728,23,-86,-39,36
118,-1893,-1,95,-4736,23,-86,-41,36
119,-1896,-4,91,-4730,23,-84,-39,34
120,-1892,3,101,-4738,23,-87,-39,34
121,-1893,-4,90,-4728,23,-86,-38,33
122,-1894,4,90,-4733,23,-85,-41,34
123,-1895,4,84,-4733,23,-85,-36,32
124,-1895,3,91,-4734,23,-85,-39,35
125,-1893,0,86,-4732,23,-86,-37,34
126,-1898,-1,91,-4734,23,-87,-41,34
127,-1895,-2,84,-4731,23,-87,-39,35
128,-1896,2,98,-4731,23,-86,-40,33
129,-1896,-8,91,-4734,23,-88,-37,35
130,-1889,-3,87,-4734,23,-88,-38,35
131,-1894,-3,99,-4734,23,-88,-37,36
132,-1896,0,86,-4734,23,-90,-39,34
133,-1897,1,92,-4732,23,-88,-39,35
134,-1891,-3,94,-4730,23,-87,-39,35
135,-1896,3,97,-4726,23,-88,-39,35
136,-1898,-2,94,-4730,23,-88,-38,36
137,-1895,-3,88,-4736,23,-90,-39,35
138,-1900,-1,92,-4735,23,-87,-37,35
139,-1895,-5,98,-4725,23,-87,-40,34
140,-1898,-2,92,-4734,23,-87,-38,35
141,-1892,2,93,-4729,23,-86,-36,32
142,-1896,-7,92,-4728,23,-86,-35,33
143,-1895,-6,95,-4729,23,-86,-38,34
144,-1891,-4,93,-4735,23,-86,-41,34
145,-1903,-5,102,-4730,23,-86,-39,34
146,-1892,-3,99,-4729,23,-86,-40,35
147,-1896,-1,105,-4720,23,-87,-40,33
148,-1895,-1,98,-4735,23,-85,-40,34
149,-1893,-3,91,-4730,23,-86,-39,33
150,-1896,-1,93,-4728,23,-87,-38,34
151,-1893,0,95,-4729,23,-88,-39,32
152,-1896,5,88,-4730,23,-88,-40,32
153,-1894,1,95,-4718,23,-87,-40,35
154,-1894,-2,98,-4733,23,-86,-41,35
155,-1895,-3,93,-4728,23,-84,-39,31
156,-1895,-4,92,-4729,23,-85,-39,32
157,-1895,-1,92,-4727,23,-86,-41,34
158,-1896,4,91,-4727,23,-87,-40,33
159,-1895,-1,94,-4727,23,-85,-40,36
160,-1897,-4,101,-4731,23,-87,-41,33
161,-1896,-2,95,-4736,23,-87,-37,35
162,-1889,0,82,-4737,23,-84,-41,36
163,-1892,0,94,-4737,23,-87,-35,32
164,-1895,-4,97,-4725,23,-88,-36,32
165,-1898,-2,101,-4731,23,-85,-37,34
166,-1893,-7,94,-4734,23,-89,-37,34
167,-1892,2,86,-4734,23,-87,-41,37
168,-1899,-9,88,-4735,23,-88,-36,32
169,-1895,-4,94,-4732,23,-90,-40,35
170,-1892,3,93,-4731,23,-87,-41,34
171,-1891,-5,93,-4732,23,-87,-37,37
172,-1891,0,96,-4734,23,-85,-40,33
173,-1890,-2,85,-4732,23,-87,-37,33
174,-1890,3,93,-4727,23,-89,-37,35
175,-1895,0,84,-4730,23,-88,-37,33
176,-1890,-5,88,-4734,23,-88,-39,35
177,-1896,-3,98,-4735,23,-87,-38,34
178,-1894,-5,100,-4738,23,-85,-40,34
179,-1899,-4,89,-4744,23,-87,-38,34
180,-1898,-2,100,-4724,23,-88,-38,35
181,-1895,-1,99,-4728,23,-85,-39,35
182,-1893,-2,87,-4724,23,-87,-37,36
183,-1894,-2,100,-4724,23,-87,-38,34
184,-1895,-1,90,-4732,23,-86,-41,34
185,-1895,-6,87,-4727,23,-88,-39,32
186,-1899,-4,97,-4728,23,-88,-37,35
187,-1895,-8,88,-4730,23,-85,-38,33
188,-1890,0,91,-4727,23,-88,-39,35
189,-1895,-2,91,-4728,23,-86,-38,35
190,-1896,-3,88,-4735,23,-87,-38,34
191,-1893,0,99,-4725,23,-89,-39,33
192,-1893,1,108,-4723,23,-88,-38,36
193,-1894,-4,101,-4727,23,-87,-37,34
194,-1893,-3,91,-4725,23,-86,-39,35
195,-1894,0,98,-4729,23,-88,-38,36
196,-1894,-2,91,-4730,23,-87,-38,34
197,-1895,-10,86,-4730,23,-87,-38,34
198,-1893,3,89,-4724,23,-87,-37,34
199,-1889,1,93,-4729,23,-87,-36,34
200,-1896,-5,93,-4729,23,-86,-40,33
201,-1892,-1,95,-4728,23,-88,-36,35
202,-1893,0,96,-4730,23,-86,-39,35
203,-1895,3,92,-4732,23,-86,-37,35
204,-1892,3,89,-4719,23,-85,-36,36
205,-1898,0,90,-4732,23,-88,-38,36
206,-1895,5,95,-4729,23,-87,-38,35
207,-1897,2,93,-4722,23,-83,-39,35
208,-1897,-5,94,-4735,23,-86,-38,35
209,-1887,0,90,-4733,23,-84,-39,32
210,-1896,-3,91,-4726,23,-88,-40,32
211,-1893,0,90,-4733,23,-87,-38,33
212,-1888,-1,95,-4732,23,-88,-40,36
213,-1899,0,94,-4728,23,-86,-38,35
214,-1891,-2,89,-4728,23,-87,-39,36
215,-1897,-3,95,-4731,23,-85,-40,33
216,-1894,-3,96,-4732,23,-86,-39,33
217,-1890,3,91,-4735,23,-86,-39,35
218,-1894,-2,86,-4728,23,-86,-41,34
219,-1896,-5,94,-4734,23,-88,-40,33
220,-1897,1,90,-4722,23,-86,-37,35
221,-1895,1,84,-4730,23,-88,-38,35
222,-1896,-2,94,-4739,23,-87,-38,33
223,-1892,-3,92,-4738,23,-85,-39,35
224,-1894,0,91,-4733,23,-83,-37,33
225,-1893,-6,99,-4730,23,-87,-39,31
226,-1899,-2,91,-4723,23,-89,-39,31
227,-1897,0,89,-4728,23,-87,-40,33
228,-1892,-1,99,-4726,23,-88,-39,32
229,-1891,0,103,-4726,23,-87,-39,37
230,-1893,-4,91,-4729,23,-91,-38,35
231,-1893,-4,91,-4732,23,-87,-39,34
232,-1893,0,91,-4731,23,-86,-39,33
233,-1896,-3,90,-4730,23,-87,-37,37
234,-1895,-4,101,-4727,23,-86,-38,33
235,-1899,-5,98,-4727,23,-86,-38,33
236,-1888,-5,87,-4726,23,-91,-35,34
237,-1896,-5,89,-4734,23,-87,-36,33
238,-1896,-5,95,-4729,23,-88,-37,34
239,-1889,-3,102,-4726,23,-85,-35,35
240,-1893,0,94,-4723,23,-87,-37,36
241,-1896,-6,95,-4723,23,-88,-38,34
242,-1895,-5,87,-4729,23,-87,-38,34
243,-1897,-5,89,-4732,23,-86,-37,35
244,-1896,-3,92,-4726,23,-86,-39,36
245,-1905,0,91,-4729,23,-88,-40,36
246,-1899,0,93,-4727,23,-87,-38,35
247,-1896,-6,90,-4725,23,-86,-40,32
248,-1891,-4,89,-4729,23,-88,-37,34
249,-1888,-8,97,-4730,23,-88,-39,32
250,-1893,-1,89,-4725,23,-85,-40,37
251,-1893,-2,99,-4734,23,-85,-40,34
252,-1895,-1,89,-4726,23,-87,-39,35
253,-1895,-5,92,-4736,23,-87,-40,34
254,-1891,-3,91,-4729,23,-89,-37,36
255,-1895,-5,87,-4735,23,-89,-41,36
256,-1896,-2,88,-4730,23,-87,-40,35
257,-1896,-2,94,-4739,23,-85,-37,36
258,-1884,-2,92,-4723,23,-88,-39,35
259,-1894,-3,83,-4726,23,-87,-40,36
260,-1896,0,86,-4725,23,-89,-40,35
261,-1900,5,90,-4733,23,-86,-42,36
262,-1896,1,90,-4734,23,-89,-38,36
263,-1896,-2,92,-4734,23,-88,-36,36
264,-1896,-2,100,-4722,23,-87,-38,37
265,-1895,-3,89,-4724,23,-87,-40,35
266,-1895,-3,98,-4726,23,-87,-42,35
267,-1896,-6,81,-4734,23,-88,-38,30
268,-1895,-2,99,-4728,23,-87,-36,34
269,-1896,0,92,-4727,23,-87,-36,34
270,-1894,-3,91,-4731,23,-89,-39,36
271,-1895,2,91,-4730,23,-86,-40,35
272,-1894,-1,93,-4726,23,-88,-40,34
273,-1895,-3,91,-4733,23,-87,-38,34
274,-1891,-4,85,-4731,23,-87,-38,34
275,-1901,-1,98,-4722,23,-88,-40,34
276,-1900,-3,90,-4729,23,-88,-38,34
277,-1901,1,91,-4732,23,-87,-38,32
278,-1893,-4,92,-4734,23,-87,-37,33
279,-1890,2,93,-4729,23,-86,-37,34
280,-1897,2,93,-4728,23,-88,-37,37
281,-1894,-2,92,-4733,23,-86,-41,37
282,-1895,0,95,-4733,23,-87,-39,35
283,-1893,-4,93,-4731,23,-89,-38,34
284,-1901,-3,90,-4724,23,-87,-37,32
285,-1899,0,89,-4730,23,-85,-38,33
286,-1894,-3,86,-4737,23,-85,-41,36
287,-1897,1,90,-4733,23,-88,-41,34
288,-1893,0,92,-4732,23,-87,-41,35
289,-1892,0,97,-4730,23,-90,-38,35
290,-1898,-1,98,-4729,23,-85,-36,35
291,-1899,-6,84,-4731,23,-87,-38,35
292,-1897,-1,90,-4733,23,-87,-38,34
293,-1893,-3,93,-4727,23,-86,-38,32
294,-1898,-4,97,-4724,23,-88,-39,36
295,-1898,2,93,-4728,23,-89,-38,35
296,-1891,-1,103,-4733,23,-86,-38,36
297,-1891,0,94,-4738,23,-89,-38,36
298,-1892,-4,93,-4731,23,-87,-40,34
299,-1889,-7,93,-4734,23,-88,-37,34
300,-1893,-6,84,-4729,23,-87,-38,34
301,-1891,-9,91,-4728,23,-88,-40,32
302,-1892,-4,94,-4728,23,-89,-40,35
303,-1890,-1,91,-4725,23,-87,-41,35
304,-1895,-8,92,-4733,23,-89,-40,36
305,-1891,-1,96,-4727,23,-89,-40,33
306,-1889,-3,92,-4726,23,-89,-38,33
307,-1894,-6,96,-4727,23,-87,-40,35
308,-1895,-2,93,-4726,23,-87,-39,35
309,-1895,-4,99,-4723,23,-87,-36,36
310,-1895,0,93,-4730,23,-87,-39,36
311,-1898,-2,98,-4728,23,-86,-36,34
312,-1900,1,97,-4728,23,-88,-38,33
313,-1898,-5,88,-4734,23,-88,-41,33
314,-1894,-4,91,-4731,23,-87,-38,36
315,-1891,-4,94,-4729,23,-89,-37,33
316,-1894,-2,99,-4735,23,-87,-40,34
317,-1897,-2,86,-4727,23,-91,-40,33
318,-1901,-1,96,-4732,23,-88,-38,32
319,-1895,1,88,-4726,23,-86,-40,34
320,-1894,-1,92,-4731,23,-87,-36,36
321,-1896,-1,97,-4728,23,-85,-42,36
322,-1897,1,96,-4728,23,-87,-37,35
323,-1900,-4,92,-4729,23,-83,-37,38
324,-1896,-1,97,-4729,23,-85,-36,35
325,-1897,4,94,-4734,23,-86,-39,35
326,-1891,-2,90,-4727,23,-88,-41,33
327,-1892,0,97,-4726,23,-88,-38,36
328,-1892,-5,92,-4722,23,-86,-39,35
329,-1892,-1,90,-4724,23,-87,-36,36
330,-1896,2,80,-4734,23,-87,-36,34
331,-1894,-2,84,-4728,23,-86,-39,36
332,-1892,-5,85,-4731,23,-87,-37,36
333,-1890,-5,90,-4724,23,-89,-35,36
334,-1894,-3,98,-4722,23,-86,-36,37
335,-1897,-2,93,-4727,23,-86,-38,36
336,-1900,-1,91,-4731,23,-88,-38,35
337,-1894,2,95,-4724,23,-88,-39,34
338,-1896,-1,89,-4730,23,-87,-40,36
339,-1899,-2,86,-4727,23,-87,-39,35
340,-1896,-6,96,-4723,23,-88,-41,33
341,-1890,-10,92,-4725,23,-88,-40,34
342,-1898,0,93,-4724,23,-87,-38,33
343,-1892,3,98,-4725,23,-87,-37,33
344,-1893,0,95,-4720,23,-90,-39,36
345,-1890,-4,96,-4721,23,-86,-40,36
346,-1893,-1,90,-4724,23,-88,-40,37
347,-1898,-1,92,-4723,23,-91,-40,33
348,-1893,-2,100,-4724,23,-87,-38,35
349,-1902,-6,99,-4724,23,-88,-38,36
350,-1895,-3,102,-4720,23,-88,-37,33
351,-1897,-1,95,-4723,23,-86,-40,34
352,-1896,1,94,-4727,23,-87,-37,34
353,-1895,-1,92,-4728,23,-86,-39,34
354,-1893,-6,95,-4724,23,-86,-39,36
355,-1898,-3,97,-4725,23,-88,-39,35
356,-1892,0,88,-4727,23,-87,-41,35
357,-1891,-6,88,-4726,23,-87,-40,33
358,-1894,-2,86,-4726,23,-87,-39,34
359,-1888,-3,89,-4726,23,-86,-39,35
360,-1893,-3,97,-4722,23,-87,-40,35
361,-1896,-4,95,-4722,23,-87,-40,36
362,-1892,-6,95,-4730,23,-87,-40,34
363,-1896,-8,95,-4726,23,-87,-40,33
364,-1898,1,90,-4722,23,-90,-36,33
365,-1896,-3,91,-4727,23,-88,-39,33
366,-1893,1,90,-4732,23,-86,-39,34
367,-1899,-1,98,-4727,23,-89,-40,36
368,-1893,-1,91,-4716,23,-89,-36,32
369,-1892,1,90,-4725,23,-88,-39,36
370,-1897,0,88,-4729,23,-88,-38,34
371,-1899,-4,88,-4735,23,-85,-36,34
372,-1895,2,88,-4720,23,-85,-38,34
373,-1896,-2,93,-4729,23,-87,-39,36
374,-1887,-1,89,-4723,23,-86,-39,34
375,-1892,3,88,-4730,23,-86,-38,32
376,-1893,-3,91,-4730,23,-87,-40,35
377,-1895,-5,99,-4727,23,-88,-38,36
378,-1893,0,91,-4728,23,-90,-38,33
379,-1892,-6,84,-4724,23,-88,-40,36
380,-1889,-5,97,-4728,23,-88,-38,33
381,-1896,-3,88,-4723,23,-87,-41,34
382,-1896,0,92,-4720,23,-88,-40,34
383,-1894,4,97,-4737,23,-88,-37,34
384,-1896,5,98,-4729,23,-86,-38,35
385,-1891,-1,88,-4734,23,-88,-39,34
386,-1892,2,94,-4727,23,-88,-35,35
387,-1895,-4,83,-4721,23,-87,-38,38
388,-1897,-1,99,-4721,23,-87,-37,34
389,-1896,0,93,-4726,23,-88,-36,35
390,-1894,1,89,-4728,23,-86,-39,34
391,-1894,4,90,-4719,23,-86,-41,34
392,-1896,-5,88,-4718,23,-88,-38,32
393,-1890,-2,93,-4725,23,-90,-37,33
394,-1895,-8,87,-4728,23,-89,-38,35
395,-1900,-6,96,-4721,23,-86,-39,34
396,-1894,-1,92,-4712,23,-86,-37,34
397,-1891,0,96,-4719,23,-87,-37,33
398,-1895,1,91,-4729,23,-87,-37,35
399,-1896,1,96,-4725,23,-84,-39,33
400,-1891,0,91,-4725,23,-86,-39,35
401,-1896,-4,87,-4725,23,-87,-41,36
402,-1898,1,88,-4727,23,-87,-40,36
403,-1896,-2,97,-4725,23,-89,-38,35
404,-1889,1,91,-4730,23,-88,-40,34
405,-1892,-1,89,-4729,23,-87,-39,32
406,-1892,-2,87,-4724,23,-88,-38,32
407,-1896,-2,92,-4721,23,-87,-37,34
408,-1898,-5,90,-4725,23,-88,-40,32
409,-1895,-3,91,-4726,23,-87,-38,34
410,-1897,-5,90,-4718,23,-86,-39,36
411,-1895,-4,97,-4731,23,-86,-42,33
412,-1890,-2,82,-4734,23,-86,-38,35
413,-1900,0,98,-4723,23,-86,-39,34
414,-1896,-5,91,-4718,23,-86,-39,34
415,-1894,-2,92,-4725,23,-85,-38,36
416,-1899,-8,92,-4720,23,-88,-40,36
417,-1900,-2,91,-4720,23,-84,-38,34
418,-1898,-1,93,-4724,23,-89,-37,34
419,-1893,-4,87,-4717,23,-86,-38,36
420,-1891,-5,93,-4718,23,-87,-36,34
421,-1894,2,95,-4723,23,-83,-38,32
422,-1897,0,102,-4727,23,-86,-37,33
423,-1894,-3,97,-4728,23,-85,-37,34
424,-1897,0,88,-4725,23,-87,-37,34
425,-1896,-2,91,-4725,23,-88,-39,34
426,-1891,1,94,-4733,23,-88,-40,37
427,-1892,-4,87,-4724,23,-87,-39,35
428,-1890,-3,96,-4728,23,-88,-41,36
429,-1888,1,97,-4733,23,-88,-40,33
430,-1895,-1,97,-4730,23,-87,-37,37
431,-1897,-1,94,-4725,23,-88,-39,35
432,-1896,-4,93,-4723,23,-89,-38,37
433,-1901,-4,92,-4724,23,-85,-38,35
434,-1899,-3,92,-4727,23,-89,-39,33
435,-1890,-3,96,-4722,23,-84,-39,34
436,-1896,-3,96,-4731,23,-88,-41,35
437,-1890,-1,93,-4724,23,-87,-41,38
438,-1898,-6,94,-4725,23,-88,-38,35
439,-1893,-3,96,-4719,23,-85,-38,35
440,-1899,-6,88,-4723,23,-87,-41,34
441,-1896,-10,98,-4721,23,-86,-39,35
442,-1892,-6,92,-4722,23,-88,-37,36
443,-1897,-1,94,-4717,23,-87,-38,35
444,-1895,0,89,-4726,23,-88,-38,36
445,-1895,-1,97,-4720,23,-89,-39,36
446,-1894,5,97,-4714,23,-86,-39,37
447,-1898,-2,92,-4718,23,-88,-40,35
448,-1897,-3,99,-4720,23,-88,-41,34
449,-1895,-5,100,-4727,23,-89,-38,33
450,-1891,-1,87,-4728,23,-86,-38,35
451,-1899,-2,89,-4725,23,-90,-38,34
452,-1899,-4,94,-4727,23,-87,-38,34
453,-1894,3,90,-4722,23,-84,-37,32
454,-1891,-4,92,-4721,23,-89,-40,34
455,-1895,-3,95,-4727,23,-89,-36,33
456,-1900,-2,88,-4729,23,-88,-37,35
457,-1895,-1,88,-4732,23,-88,-38,35
458,-1898,-1,88,-4725,23,-89,-39,35
459,-1897,-6,87,-4729,23,-89,-39,35
460,-1891,4,87,-4727,23,-87,-39,35
461,-1899,-2,93,-4719,23,-88,-38,35
462,-1895,-5,99,-4720,23,-88,-38,34
463,-1893,-5,95,-4717,23,-86,-37,34
464,-1892,-4,89,-4732,23,-89,-40,35
465,-1891,-1,89,-4722,23,-85,-38,35
466,-1892,-3,96,-4728,23,-89,-37,33
467,-1892,-5,91,-4727,23,-87,-38,34
468,-1891,0,95,-4725,23,-87,-36,36
469,-1891,-3,88,-4726,23,-87,-36,33
470,-1893,-4,92,-4717,23,-86,-37,34
471,-1899,-1,85,-4725,23,-88,-37,34
472,-1895,3,90,-4721,23,-85,-37,32
473,-1897,-2,99,-4727,23,-88,-38,35
474,-1896,-6,92,-4718,23,-88,-39,34
475,-1894,-2,94,-4721,23,-86,-39,33
476,-1893,-2,95,-4728,23,-85,-39,33
477,-1894,-4,91,-4723,23,-87,-38,35
478,-1892,1,91,-4736,23,-87,-42,35
479,-1892,1,86,-4726,23,-86,-41,30
480,-1891,-5,99,-4723,23,-89,-38,35
481,-1893,0,96,-4719,23,-89,-42,37
482,-1892,-6,97,-4719,23,-85,-37,34
483,-1892,1,97,-4728,23,-86,-39,35
484,-1890,-6,95,-4728,23,-88,-41,35
485,-1892,-3,92,-4722,23,-86,-39,36
486,-1887,-2,92,-4721,23,-87,-38,36
487,-1896,-1,97,-4731,23,-88,-39,35
488,-1893,-4,93,-4728,23,-86,-38,35
489,-1894,-5,92,-4726,23,-86,-40,34
490,-1894,1,96,-4727,23,-87,-40,33
491,-1894,-4,96,-4722,23,-87,-38,34
492,-1897,6,90,-4723,23,-88,-40,36
493,-1892,0,90,-4731,23,-87,-38,36
494,-1896,-4,94,-4723,23,-87,-41,35
495,-1894,-4,92,-4725,23,-86,-38,32
496,-1898,0,90,-4730,23,-88,-41,35
497,-1891,2,96,-4720,23,-89,-38,33
498,-1890,-1,96,-4725,23,-88,-37,34
499,-1895,-3,98,-4722,23,-87,-37,34
500,-1900,-5,95,-4730,23,-87,-41,36
501,-1895,-4,94,-4730,23,-87,-40,36
502,-1893,-3,92,-4731,23,-89,-38,35
503,-1900,-4,93,-4725,23,-85,-40,33
504,-1898,0,96,-4727,23,-84,-40,34
505,-1899,0,97,-4727,23,-84,-37,32
506,-1890,-8,91,-4725,23,-85,-39,36
507,-1891,-3,87,-4716,23,-86,-37,36
508,-1893,-3,86,-4719,23,-87,-41,35
509,-1895,-2,89,-4724,23,-88,-38,34
510,-1890,-3,92,-4726,23,-88,-37,36
511,-1902,-7,99,-4723,23,-88,-41,35
512,-1899,-6,92,-4723,23,-86,-41,34
513,-1887,-5,91,-4727,23,-86,-40,34
514,-1891,-2,95,-4719,23,-86,-40,34
515,-1894,0,88,-4728,23,-87,-36,34
516,-1895,-1,97,-4725,23,-88,-40,34
517,-1886,-6,89,-4727,23,-86,-41,34
518,-1892,-6,97,-4720,23,-86,-42,36
519,-1894,-1,89,-4726,23,-88,-40,36
520,-1892,1,89,-4727,23,-88,-39,34
521,-1893,-5,89,-4730,23,-89,-37,36
522,-1895,1,87,-4726,23,-90,-40,37
523,-1900,0,92,-4727,23,-88,-39,32
524,-1896,1,90,-4734,23,-88,-40,32
525,-1892,-3,94,-4723,23,-87,-37,34
526,-1891,4,100,-4728,23,-88,-40,36
527,-1892,-2,93,-4723,23,-87,-39,34
528,-1895,0,95,-4718,23,-87,-40,35
529,-1896,-6,98,-4717,23,-89,-39,34
530,-1890,-2,93,-4723,23,-88,-39,34
531,-1893,2,95,-4725,23,-86,-39,33
532,-1902,2,98,-4717,23,-90,-39,35
533,-1898,-6,96,-4722,23,-87,-40,35
534,-1898,-7,87,-4726,23,-85,-40,35
535,-1893,-7,95,-4727,23,-88,-38,33
536,-1892,2,95,-4732,23,-87,-37,36
537,-1892,-1,88,-4728,23,-88,-38,34
538,-1892,-4,90,-4728,23,-89,-38,34
539,-1897,-3,87,-4726,23,-87,-39,33
540,-1898,-3,90,-4723,23,-86,-39,35
541,-1898,-4,95,-4729,23,-90,-38,35
542,-1894,-5,112,-4722,23,-89,-39,35
543,-1894,0,95,-4718,23,-88,-41,34
544,-1897,-2,94,-4726,23,-89,-39,37
545,-1893,3,101,-4722,23,-86,-38,34
546,-1894,-1,97,-4717,23,-88,-38,35
547,-1893,-7,96,-4723,23,-86,-39,36
548,-1890,-4,94,-4725,23,-86,-38,34
549,-1893,-1,93,-4729,23,-87,-38,36
550,-1892,2,92,-4723,23,-91,-37,33
551,-1891,-5,99,-4718,23,-87,-36,35
552,-1888,-9,98,-4718,23,-89,-38,34
553,-1893,3,92,-4720,23,-84,-39,33
554,-1899,-4,79,-4730,23,-88,-40,33
555,-1892,-5,95,-4729,23,-88,-39,34
556,-1899,-3,88,-4730,23,-88,-36,35
557,-1897,-7,93,-4724,23,-87,-40,34
558,-1895,-3,85,-4722,23,-86,-38,34
559,-1896,3,87,-4719,23,-86,-39,35
560,-1895,1,92,-4724,23,-85,-39,32
561,-1894,3,92,-4723,23,-89,-36,31
562,-1888,3,92,-4725,23,-88,-38,32
563,-1890,-2,90,-4718,23,-88,-38,35
564,-1895,-2,91,-4721,23,-86,-38,36
565,-1889,-4,91,-4722,23,-89,-40,35
566,-1892,1,95,-4722,23,-87,-38,34
567,-1891,-2,99,-4722,23,-88,-37,34
568,-1902,0,95,-4720,23,-87,-39,33
569,-1896,-4,84,-4724,23,-87,-37,35
570,-1894,-4,100,-4723,23,-86,-38,34
571,-1898,-1,94,-4730,23,-87,-37,33
572,-1897,-3,91,-4723,23,-88,-39,36
573,-1892,4,91,-4724,23,-85,-38,35
574,-1895,1,86,-4724,23,-86,-39,35
575,-1891,-6,93,-4724,23,-86,-36,34
576,-1891,2,86,-4719,23,-90,-39,36
577,-1896,-2,98,-4724,23,-89,-37,34
578,-1895,-5,104,-4722,23,-86,-39,34
579,-1890,1,96,-4721,23,-88,-38,33
580,-1894,-2,92,-4726,23,-88,-39,34
581,-1891,-6,90,-4725,23,-88,-40,35
582,-1894,4,94,-4725,23,-86,-39,35
583,-1895,-2,89,-4724,23,-87,-40,36
584,-1896,-5,91,-4719,23,-88,-40,35
585,-1899,-7,89,-4727,23,-87,-40,34
586,-1894,-5,93,-4724,23,-87,-40,32
587,-1894,3,88,-4726,23,-86,-38,34
588,-1892,-2,91,-4724,23,-86,-38,33
589,-1900,-5,96,-4727,23,-89,-38,33
590,-1891,1,98,-4728,23,-86,-39,36
591,-1890,6,99,-4727,23,-87,-39,34
592,-1895,3,89,-4722,23,-86,-40,34
593,-1898,-1,90,-4724,23,-89,-41,34
594,-1898,-7,99,-4722,23,-90,-37,34
595,-1898,3,100,-4714,23,-88,-39,33
596,-1894,4,92,-4719,23,-87,-39,35
597,-1896,1,90,-4721,23,-85,-38,35
598,-1891,-1,90,-4724,23,-90,-40,37
599,-1895,-1,87,-4718,23,-87,-40,37
600,-1898,-3,93,-4725,23,-89,-38,35
601,-1893,1,90,-4721,23,-90,-37,32
602,-1887,-3,92,-4718,23,-88,-35,34
603,-1890,1,90,-4722,23,-86,-37,33
604,-1895,3,95,-4723,23,-86,-41,32
605,-1899,-1,92,-4723,23,-87,-39,34
606,-1900,1,97,-4717,23,-89,-35,34
607,-1893,-2,88,-4727,23,-88,-37,34
608,-1890,1,102,-4729,23,-86,-39,33
609,-1895,-3,99,-4718,23,-87,-39,35
610,-1894,-1,101,-4722,23,-86,-39,35
611,-1894,0,103,-4726,23,-83,-41,36
612,-1898,-5,96,-4726,23,-86,-39,36
613,-1891,-3,102,-4721,23,-87,-38,34
614,-1893,-3,97,-4713,23,-88,-38,35
615,-1893,-4,94,-4725,23,-85,-39,35
616,-1894,-2,95,-4730,23,-87,-41,34
617,-1888,-2,94,-4728,23,-88,-38,35
618,-1890,0,93,-4720,23,-86,-37,36
619,-1895,-5,90,-4721,23,-86,-39,35
620,-1890,1,87,-4720,23,-85,-38,33
621,-1890,-2,94,-4721,23,-86,-38,35
622,-1886,2,90,-4723,23,-89,-40,34
623,-1893,3,93,-4719,23,-87,-38,34
624,-1890,-1,97,-4728,23,-86,-40,34
625,-1898,3,93,-4721,23,-84,-42,34
626,-1896,2,98,-4724,23,-85,-38,34
627,-1893,3,98,-4720,23,-87,-40,34
628,-1892,-5,97,-4725,23,-88,-37,37
629,-1894,3,93,-4723,23,-86,-39,36
630,-1897,-4,98,-4731,23,-87,-39,35
631,-1894,-4,92,-4730,23,-86,-40,34
632,-1895,4,88,-4722,23,-88,-39,34
633,-1893,-5,93,-4728,23,-85,-38,33
634,-1892,1,98,-4725,23,-86,-37,34
635,-1894,-1,99,-4721,23,-87,-38,33
636,-1893,-1,93,-4722,23,-86,-35,33
637,-1900,3,93,-4727,23,-85,-38,38
638,-1894,-3,83,-4724,23,-87,-41,37
639,-1893,0,92,-4721,23,-85,-38,32
640,-1901,-7,88,-4724,23,-85,-37,34
641,-1897,1,95,-4717,23,-88,-39,36
642,-1897,-3,96,-4722,23,-89,-38,33
643,-1892,-8,98,-4722,23,-88,-36,35
644,-1893,0,92,-4727,23,-88,-37,34
645,-1894,-3,93,-4729,23,-86,-35,35
646,-1892,-4,87,-4723,23,-87,-37,33
647,-1896,2,92,-4728,23,-87,-38,35
648,-1895,0,92,-4721,23,-86,-37,33
649,-1896,-1,100,-4726,23,-86,-39,36
650,-1894,-1,95,-4726,23,-87,-40,34
651,-1891,4,99,-4733,23,-86,-41,34
652,-1893,0,93,-4724,23,-87,-37,35
653,-1897,-1,91,-4723,23,-86,-38,36
654,-1895,-4,83,-4723,23,-87,-37,36
655,-1891,-1,88,-4729,23,-86,-37,36
656,-1895,-5,100,-4718,23,-89,-39,33
657,-1894,-5,91,-4719,23,-88,-39,36
658,-1896,-5,91,-4730,23,-86,-38,35
659,-1897,6,101,-4722,23,-89,-41,35
660,-1893,7,100,-4726,23,-87,-39,34
661,-1891,-2,88,-4722,23,-86,-39,35
662,-1890,1,92,-4717,23,-88,-38,35
663,-1901,5,92,-4721,23,-86,-39,34
664,-1893,1,88,-4720,23,-87,-37,34
665,-1894,-4,100,-4719,23,-88,-38,35
666,-1896,-1,91,-4731,23,-87,-41,34
667,-1890,-1,98,-4724,23,-88,-39,33
668,-1890,-7,86,-4727,23,-89,-39,35
669,-1889,-1,96,-4728,23,-87,-40,35
670,-1898,3,91,-4726,23,-87,-37,32
671,-1896,2,86,-4724,23,-90,-38,35
672,-1893,-5,89,-4722,23,-86,-40,34
673,-1891,4,86,-4730,23,-85,-40,35
674,-1894,9,92,-4721,23,-86,-37,32
675,-1894,0,93,-4724,23,-90,-38,33
676,-1897,2,94,-4721,23,-87,-39,35
677,-1894,1,98,-4729,23,-90,-39,34
678,-1893,-1,94,-4729,23,-88,-37,35
679,-1892,-1,96,-4718,23,-86,-37,33
680,-1895,-8,87,-4727,23,-86,-39,36
681,-1898,-2,99,-4725,23,-86,-37,39
682,-1895,0,92,-4721,23,-86,-39,35
683,-1894,-1,98,-4727,23,-86,-38,34
684,-1894,1,96,-4726,23,-87,-38,34
685,-1897,0,92,-4718,23,-88,-38,33
686,-1899,-3,95,-4710,23,-86,-38,35
687,-1897,1,85,-4722,23,-87,-41,35
688,-1892,-8,87,-4726,23,-86,-39,33
689,-1897,0,93,-4717,23,-88,-37,35
690,-1892,-1,89,-4720,23,-87,-36,35
691,-1899,2,91,-4720,23,-85,-39,33
692,-1901,-3,87,-4723,23,-85,-37,31
693,-1899,-4,84,-4730,23,-85,-37,34
694,-1897,-1,89,-4720,23,-87,-39,33
695,-1897,9,94,-4719,23,-85,-39,33
696,-1898,-3,97,-4719,23,-85,-38,34
697,-1897,-2,79,-4715,23,-85,-37,33
698,-1896,-4,92,-4713,23,-86,-39,35
699,-1900,3,95,-4721,23,-87,-39,33
700,-1898,-1,94,-4723,23,-87,-38,36
701,-1896,-3,86,-4723,23,-87,-38,35
702,-1898,-1,88,-4726,23,-86,-40,33
703,-1890,-3,95,-4724,23,-87,-40,34
704,-1891,1,101,-4717,23,-88,-36,36
705,-1888,-2,101,-4722,23,-86,-36,34
706,-1892,-5,97,-4726,23,-86,-39,33
707,-1892,-6,98,-4727,23,-87,-36,36
708,-1899,-5,95,-4714,23,-86,-37,34
709,-1895,-1,94,-4717,23,-87,-39,33
710,-1893,-1,97,-4713,23,-86,-39,34
711,-1893,-4,98,-4716,23,-87,-40,35
712,-1895,-3,92,-4727,23,-86,-38,35
713,-1898,-4,99,-4726,23,-87,-38,36
714,-1893,-6,91,-4728,23,-87,-37,32
715,-1894,1,93,-4720,23,-85,-37,34
716,-1894,-4,95,-4717,23,-86,-42,34
717,-1892,-5,93,-4722,23,-86,-38,34
718,-1897,-1,97,-4717,23,-86,-36,37
719,-1899,2,97,-4716,23,-90,-38,34
720,-1893,-2,90,-4718,23,-89,-39,33
721,-1893,-1,91,-4726,23,-88,-38,33
722,-1895,-3,91,-4727,23,-88,-39,32
723,-1897,-1,90,-4727,23,-86,-40,37
724,-1899,1,88,-4717,23,-88,-39,34
725,-1895,2,96,-4718,23,-87,-43,34
726,-1894,-2,87,-4723,23,-90,-39,34
727,-1896,2,91,-4719,23,-88,-40,34
728,-1899,-2,103,-4712,23,-88,-38,38
729,-1898,1,93,-4723,23,-87,-39,36
730,-1897,-5,89,-4715,23,-86,-38,34
731,-1893,1,88,-4712,23,-86,-41,35
732,-1895,-3,96,-4713,23,-86,-37,33
733,-1897,-3,93,-4717,23,-88,-37,38
734,-1890,-7,89,-4707,23,-86,-37,37
735,-1888,-2,100,-4719,23,-86,-36,35
736,-1891,0,89,-4710,23,-89,-36,34
737,-1894,-3,94,-4717,23,-90,-40,33
738,-1897,3,88,-4715,23,-88,-35,35
739,-1889,-1,92,-4722,23,-89,-39,32
740,-1889,-5,93,-4714,23,-85,-38,36
741,-1891,-4,91,-4719,23,-87,-38,35
742,-1889,-2,92,-4711,23,-85,-39,35
743,-1890,-6,96,-4715,23,-87,-40,33
744,-1891,3,94,-4716,23,-85,-41,33
745,-1892,-2,96,-4723,23,-87,-38,34
746,-1900,-5,101,-4714,23,-88,-39,34
747,-1894,-1,98,-4712,23,-88,-38,37
748,-1898,2,95,-4708,23,-86,-40,35
749,-1896,2,96,-4718,23,-87,-38,35
750,-1899,-7,92,-4717,23,-89,-38,35
751,-1893,-4,96,-4733,23,-86,-40,35
752,-1891,2,89,-4714,23,-87,-38,34
753,-1896,-2,92,-4715,23,-85,-39,35
754,-1895,3,89,-4717,23,-88,-36,36
755,-1892,-1,97,-4723,23,-88,-43,36
756,-1897,-6,96,-4719,23,-87,-38,32
757,-1893,-2,94,-4714,23,-87,-38,35
758,-1893,-3,96,-4716,23,-85,-38,35
759,-1898,-4,99,-4722,23,-87,-40,34
760,-1891,-1,91,-4709,23,-86,-38,35
761,-1890,-7,100,-4717,23,-88,-38,34
762,-1894,1,94,-4719,23,-85,-37,32
763,-1889,1,92,-4721,23,-86,-36,37
764,-1895,-3,106,-4715,23,-86,-37,36
765,-1904,-1,94,-4716,23,-85,-38,36
766,-1897,-4,91,-4722,23,-88,-38,33
767,-1894,-5,92,-4717,23,-84,-40,34
768,-1896,-4,87,-4713,23,-85,-41,34
769,-1891,-3,89,-4723,23,-87,-38,36
770,-1892,2,94,-4723,23,-87,-39,35
771,-1895,0,89,-4718,23,-87,-40,33
772,-1892,3,92,-4720,23,-88,-39,33
773,-1898,-1,91,-4721,23,-89,-40,34
774,-1892,-3,99,-4714,23,-86,-41,34
775,-1897,-1,91,-4714,23,-84,-39,34
776,-1896,3,106,-4720,23,-88,-37,36
777,-1892,-4,89,-4718,23,-89,-38,34
778,-1894,-7,95,-4718,23,-88,-37,34
779,-1898,-5,94,-4722,23,-86,-37,34
780,-1889,-3,95,-4715,23,-86,-40,32
781,-1892,-5,100,-4716,23,-86,-38,35
782,-1898,-6,92,-4719,23,-88,-38,34
783,-1898,-4,94,-4716,23,-88,-38,35
784,-1901,-4,91,-4719,23,-85,-39,36
785,-1888,-1,95,-4723,23,-89,-40,33
786,-1896,-5,94,-4723,23,-87,-38,34
787,-1893,-3,99,-4715,23,-88,-41,32
788,-1900,1,95,-4728,23,-87,-38,34
789,-1895,-5,96,-4717,23,-89,-38,36
790,-1892,-3,101,-4723,23,-88,-39,35
791,-1893,1,95,-4720,23,-87,-36,34
792,-1895,0,94,-4715,23,-87,-40,33
793,-1893,-4,97,-4717,23,-86,-38,35
794,-1893,0,100,-4726,23,-87,-40,33
795,-1895,-1,92,-4718,23,-87,-38,35
796,-1896,-4,102,-4715,23,-86,-38,35
797,-1891,-4,91,-4718,23,-87,-39,35
798,-1891,-4,86,-4717,23,-85,-40,33
799,-1895,-2,88,-4715,23,-85,-42,35
800,-1891,0,100,-4718,23,-87,-38,34
801,-1897,2,99,-4717,23,-86,-39,34
802,-1896,-4,89,-4713,23,-87,-40,36
803,-1900,-2,92,-4715,23,-85,-42,34
804,-1895,-1,94,-4716,23,-87,-36,34
805,-1897,-4,101,-4713,23,-87,-39,35
806,-1895,-3,97,-4708,23,-89,-40,36
807,-1896,0,97,-4713,23,-86,-40,35
808,-1895,-1,97,-4717,23,-89,-39,34
809,-1889,-1,94,-4718,23,-87,-37,36
810,-1891,-2,93,-4711,23,-88,-40,37
811,-1896,0,91,-4715,23,-86,-38,37
812,-1895,3,96,-4709,23,-86,-41,35
813,-1893,1,92,-4716,23,-87,-41,33
814,-1895,-1,98,-4716,23,-86,-41,34
815,-1894,-7,88,-4718,23,-87,-37,36
816,-1890,-2,98,-4714,23,-87,-39,35
817,-1895,-3,100,-4710,23,-85,-40,34
818,-1899,0,97,-4717,23,-86,-39,34
819,-1898,1,101,-4714,23,-86,-40,32
820,-1896,-3,88,-4709,23,-85,-37,33
821,-1893,-7,92,-4712,23,-86,-37,36
822,-1895,-5,96,-4722,23,-88,-38,33
823,-1898,0,87,-4714,23,-89,-39,33
824,-1895,-9,86,-4713,23,-87,-38,34
825,-1894,2,80,-4717,23,-86,-39,34
826,-1897,-2,90,-4720,23,-88,-40,34
827,-1895,-1,95,-4713,23,-90,-39,35
828,-1896,-2,92,-4725,23,-89,-37,36
829,-1895,2,91,-4713,23,-90,-37,36
830,-1894,-2,91,-4715,23,-88,-41,32
831,-1889,0,92,-4713,23,-89,-38,35
832,-1894,2,89,-4712,23,-88,-39,37
833,-1891,-1,91,-4714,23,-86,-42,34
834,-1891,2,98,-4707,23,-86,-38,34
835,-1893,-2,86,-4708,23,-90,-38,34
836,-1893,-1,85,-4704,23,-86,-38,32
837,-1895,-4,95,-4713,23,-87,-36,34
838,-1891,-2,94,-4714,23,-87,-38,35
839,-1896,1,93,-4719,23,-88,-38,34
840,-1892,-2,92,-4716,23,-86,-40,36
841,-1893,3,83,-4716,23,-85,-39,32
842,-1895,-3,87,-4712,23,-85,-36,35
843,-1889,-4,96,-4718,23,-88,-37,34
844,-1896,-2,88,-4710,23,-85,-36,33
845,-1896,0,92,-4712,23,-86,-38,32
846,-1898,-5,89,-4712,23,-88,-39,34
847,-1894,-2,92,-4715,23,-85,-38,36
848,-1897,-3,94,-4716,23,-86,-41,34
849,-1891,-2,91,-4716,23,-87,-39,36
850,-1895,-3,94,-4709,23,-87,-38,34
851,-1893,-1,89,-4716,23,-89,-39,33
852,-1893,1,98,-4712,23,-87,-37,34
853,-1894,-3,94,-4718,23,-87,-40,34
854,-1888,-8,100,-4716,23,-86,-37,37
855,-1896,-6,96,-4708,23,-87,-40,33
856,-1897,0,90,-4715,23,-85,-38,35
857,-1894,0,87,-4713,23,-89,-42,34
858,-1894,-5,86,-4710,23,-89,-37,36
859,-1895,-4,87,-4717,23,-87,-37,36
860,-1903,-7,96,-4710,23,-85,-38,36
861,-1896,-1,92,-4704,23,-86,-40,39
862,-1897,0,95,-4711,23,-85,-35,32
863,-1891,-3,96,-4709,23,-87,-37,34
864,-1898,1,96,-4709,23,-85,-37,37
865,-1895,3,89,-4713,23,-86,-38,36
866,-1896,-5,92,-4720,23,-85,-38,36
867,-1896,-1,82,-4712,23,-87,-38,35
868,-1899,-2,95,-4712,23,-86,-37,33
869,-1894,0,93,-4710,23,-88,-37,37
870,-1897,-2,96,-4715,23,-90,-38,35
871,-1897,-4,92,-4709,23,-86,-39,34
872,-1894,-6,94,-4713,23,-87,-39,32
873,-1897,-4,94,-4719,23,-86,-37,32
874,-1897,-5,92,-4712,23,-88,-39,34
875,-1893,-1,98,-4711,23,-87,-38,37
876,-1893,0,95,-4713,23,-85,-38,35
877,-1895,-2,93,-4710,23,-86,-40,35
878,-1898,-1,90,-4707,23,-85,-40,34
879,-1895,-1,97,-4713,23,-88,-39,34
880,-1897,-4,97,-4712,23,-88,-38,33
881,-1896,-1,90,-4712,23,-88,-37,34
882,-1898,-9,93,-4715,23,-86,-36,34
883,-1899,-7,91,-4710,23,-88,-39,34
884,-1894,-5,100,-4709,23,-89,-40,35
885,-1892,-4,92,-4705,23,-85,-38,35
886,-1895,-1,92,-4716,23,-89,-37,34
887,-1897,-6,96,-4713,23,-88,-36,35
888,-1892,-2,90,-4712,23,-88,-37,33
889,-1892,-3,93,-4709,23,-87,-40,34
890,-1889,-1,94,-4715,23,-87,-39,35
891,-1896,0,86,-4711,23,-88,-38,34
892,-1898,-4,89,-4713,23,-87,-39,36
893,-1891,0,97,-4717,23,-85,-39,34
894,-1894,-1,97,-4710,23,-85,-38,34
895,-1899,-1,96,-4706,23,-86,-35,36
896,-1898,0,96,-4713,23,-86,-38,34
897,-1898,3,90,-4711,23,-87,-40,34
898,-1895,-5,95,-4722,23,-85,-39,34
899,-1893,-5,99,-4717,23,-87,-36,35
900,-1895,-5,93,-4712,23,-86,-38,34
901,-1888,-9,104,-4713,23,-86,-38,35
902,-1896,-6,95,-4714,23,-87,-39,34
903,-1895,-3,91,-4709,23,-88,-38,36
904,-1898,1,91,-4710,23,-87,-38,36
905,-1891,2,92,-4713,23,-84,-38,37
906,-1897,0,90,-4713,23,-85,-37,33
907,-1898,1,98,-4718,23,-85,-37,34
908,-1894,-4,86,-4721,23,-86,-35,35
909,-1888,-1,96,-4717,23,-85,-37,35
910,-1890,-2,92,-4720,23,-86,-39,35
911,-1895,-5,101,-4724,23,-87,-39,34
912,-1900,-4,94,-4710,23,-86,-39,34
913,-1901,-6,92,-4713,23,-88,-40,35
914,-1897,-2,90,-4721,23,-87,-37,35
915,-1894,2,84,-4717,23,-87,-37,34
916,-1891,-7,87,-4710,23,-89,-39,35
917,-1895,-3,95,-4715,23,-86,-37,36
918,-1893,4,101,-4711,23,-89,-38,35
919,-1892,-1,93,-4715,23,-89,-39,35
920,-1894,-1,93,-4714,23,-87,-39,35
921,-1898,-3,84,-4707,23,-83,-38,37
922,-1895,-1,95,-4712,23,-89,-40,34
923,-1891,-2,93,-4719,23,-89,-38,35
924,-1894,-3,94,-4722,23,-86,-36,34
925,-1896,-2,101,-4713,23,-85,-39,35
926,-1895,-7,102,-4713,23,-87,-39,34
927,-1894,-2,95,-4718,23,-87,-37,34
928,-1898,0,89,-4719,23,-87,-40,35
929,-1896,-1,92,-4717,23,-87,-38,37
930,-1891,1,86,-4715,23,-86,-39,37
931,-1897,-5,94,-4717,23,-84,-42,36
932,-1898,-5,95,-4715,23,-86,-38,35
933,-1897,-6,88,-4715,23,-86,-37,36
934,-1896,-6,98,-4708,23,-87,-39,33
935,-1892,-3,88,-4709,23,-89,-39,32
936,-1894,2,88,-4719,23,-90,-38,37
937,-1892,2,90,-4719,23,-87,-37,39
938,-1899,-1,98,-4712,23,-89,-38,36
939,-1897,1,96,-4722,23,-88,-42,36
940,-1895,1,98,-4714,23,-87,-41,35
941,-1897,-2,91,-4720,23,-86,-39,35
942,-1895,-1,98,-4720,23,-89,-41,35
943,-1895,-3,93,-4716,23,-85,-40,33
944,-1895,-5,86,-4721,23,-85,-38,34
945,-1897,-6,100,-4714,23,-88,-38,31
946,-1899,3,95,-4718,23,-88,-43,34
947,-1897,0,90,-4714,23,-87,-38,36
948,-1896,1,92,-4713,23,-89,-39,34
949,-1897,2,93,-4713,23,-87,-39,35
950,-1892,1,102,-4710,23,-89,-37,34
951,-1887,-4,93,-4712,23,-87,-39,35
952,-1894,-2,94,-4709,23,-86,-38,35
953,-1897,0,93,-4716,23,-87,-35,36
954,-1900,-4,97,-4711,23,-87,-39,33
955,-1892,1,93,-4719,23,-87,-39,33
956,-1892,-3,91,-4718,23,-84,-38,36
957,-1886,-1,90,-4714,23,-87,-42,35
958,-1895,-2,86,-4717,23,-86,-37,36
959,-1888,-4,96,-4715,23,-88,-40,33
960,-1891,-2,89,-4713,23,-87,-40,33
961,-1887,-7,99,-4715,23,-86,-39,36
962,-1893,0,89,-4718,23,-87,-39,34
963,-1894,-4,97,-4716,23,-87,-40,33
964,-1896,3,92,-4705,23,-88,-41,36
965,-1892,0,93,-4715,23,-87,-37,39
966,-1895,1,90,-4707,23,-87,-38,34
967,-1890,-4,89,-4709,23,-86,-38,34
968,-1894,-4,89,-4722,23,-88,-38,34
969,-1894,-3,88,-4713,23,-87,-38,36
970,-1896,-3,90,-4713,23,-84,-39,34
971,-1896,1,101,-4717,23,-88,-35,32
972,-1892,-4,96,-4709,23,-87,-36,33
973,-1891,-3,89,-4719,23,-87,-39,35
974,-1897,-1,87,-4720,23,-85,-41,34
975,-1898,1,96,-4714,23,-86,-36,37
976,-1893,-1,102,-4712,23,-87,-37,34
977,-1898,-4,94,-4713,23,-87,-37,34
978,-1896,-4,92,-4712,23,-88,-39,34
979,-1895,-9,94,-4712,23,-89,-36,35
980,-1891,-4,97,-4700,23,-89,-38,35
981,-1891,-7,99,-4709,23,-90,-39,34
982,-1898,-3,90,-4714,23,-85,-39,36
983,-1893,-4,97,-4709,23,-88,-39,36
984,-1893,-3,95,-4716,23,-86,-40,36
985,-1892,-5,96,-4710,23,-85,-36,34
986,-1900,-11,89,-4718,23,-87,-38,35
987,-1902,0,91,-4714,23,-86,-40,35
988,-1893,1,93,-4711,23,-87,-38,37
989,-1893,-2,97,-4710,23,-87,-37,37
990,-1893,2,100,-4717,23,-89,-40,34
991,-1890,0,88,-4714,23,-86,-38,34
992,-1895,1,86,-4706,23,-86,-37,36
993,-1898,-5,86,-4719,23,-86,-37,34
994,-1896,-4,93,-4711,23,-85,-40,34
995,-1901,-3,92,-4713,23,-87,-39,35
996,-1897,-5,93,-4713,23,-87,-38,35
997,-1895,-3,92,-4712,23,-85,-36,32
998,-1889,-1,93,-4707,23,-89,-39,34
