,acc_X,acc_Y,acc_Z,temp,tempC,gyr_X,gyr_Y,gyr_Z
0,-3787,-7,191,-4868,22,-45,-20,16
1,-3785,-8,197,-4865,22,-45,-22,17
2,-3779,-15,208,-4860,22,-43,-20,16
3,-3805,3,179,-4855,22,-42,-19,18
4,-3785,-8,189,-4865,22,-44,-19,17
5,-3783,-1,190,-4857,22,-44,-19,16
6,-3793,-8,190,-4865,22,-41,-20,16
7,-3792,2,183,-4861,22,-43,-21,17
8,-3789,-14,205,-4860,22,-43,-20,18
9,-3788,-4,190,-4851,22,-43,-22,16
10,-3778,0,172,-4865,22,-44,-19,16
11,-3792,-8,176,-4854,22,-44,-19,17
12,-3793,-1,187,-4854,22,-43,-21,17
13,-3793,2,180,-4853,22,-44,-21,17
14,-3795,-24,195,-4870,22,-43,-18,16
15,-3785,-1,198,-4862,22,-43,-19,14
16,-3787,2,193,-4857,22,-42,-21,16
17,-3798,0,199,-4857,22,-45,-17,17
18,-3808,3,194,-4861,22,-43,-19,18
19,-3771,-9,183,-4857,22,-43,-18,16
20,-3779,2,176,-4862,22,-43,-19,16
21,-3772,-9,184,-4857,22,-42,-20,18
22,-3783,-11,186,-4854,22,-43,-20,17
23,-3790,9,204,-4855,22,-43,-18,17
24,-3797,4,159,-4856,22,-43,-19,19
25,-3796,-1,158,-4855,22,-44,-19,17
26,-3797,-6,185,-4857,22,-42,-21,17
27,-3794,-11,223,-4855,22,-43,-18,16
28,-3774,0,179,-4863,22,-44,-20,17
29,-3795,-10,195,-4854,22,-43,-19,17
30,-3789,1,200,-4855,22,-43,-20,17
31,-3801,-10,167,-4857,22,-44,-20,17
32,-3783,4,192,-4855,22,-44,-23,17
33,-3790,4,169,-4854,22,-44,-20,16
34,-3784,-2,167,-4856,22,-45,-20,18
35,-3785,-11,177,-4856,22,-46,-19,17
36,-3786,-2,165,-4838,22,-45,-19,16
37,-3792,-9,192,-4841,22,-42,-19,16
38,-3789,4,193,-4848,22,-44,-21,16
39,-3792,6,179,-4848,22,-45,-21,16
40,-3796,9,180,-4847,22,-43,-21,17
41,-3784,1,184,-4861,22,-45,-18,17
42,-3793,7,168,-4851,22,-44,-19,18
43,-3786,-13,211,-4840,22,-44,-21,18
44,-3783,-6,187,-4845,22,-43,-21,17
45,-3776,8,189,-4843,22,-44,-21,17
46,-3778,8,162,-4849,22,-43,-20,15
47,-3798,6,178,-4847,22,-41,-18,17
48,-3792,10,178,-4845,22,-43,-19,16
49,-3786,-13,199,-4847,22,-43,-18,17
50,-3787,5,202,-4844,22,-43,-20,18
51,-3778,-4,176,-4834,22,-45,-18,19
52,-3795,-24,174,-4850,22,-44,-21,16
53,-3786,2,203,-4855,22,-43,-20,18
54,-3786,-14,179,-4840,22,-43,-21,16
55,-3794,-4,196,-4844,22,-43,-16,16
56,-3785,-10,172,-4847,22,-44,-20,17
57,-3795,4,187,-4839,22,-45,-19,18
58,-3771,-10,173,-4843,22,-43,-19,17
59,-3785,2,192,-4846,22,-43,-21,17
60,-3796,1,187,-4847,22,-43,-18,19
61,-3790,19,193,-4848,22,-45,-19,16
62,-3776,2,184,-4857,22,-42,-21,18
63,-3792,-20,205,-4846,22,-41,-19,18
64,-3788,-9,178,-4848,22,-44,-19,17
65,-3784,6,167,-4837,22,-44,-19,16
66,-3782,4,190,-4847,22,-43,-19,17
67,-3788,-3,183,-4835,22,-44,-20,17
68,-3791,-17,184,-4840,22,-44,-20,18
69,-3794,-1,167,-4830,22,-43,-20,16
70,-3790,-8,184,-4851,22,-45,-18,15
71,-3783,5,173,-4835,22,-44,-19,17
72,-3786,-5,203,-4836,22,-42,-18,17
73,-3780,-7,215,-4836,22,-44,-20,18
74,-3795,-5,195,-4828,22,-42,-19,17
75,-3778,-13,194,-4840,22,-42,-20,17
76,-3778,-6,186,-4843,22,-44,-18,18
77,-3775,-5,175,-4835,22,-43,-20,17
78,-3802,-2,197,-4849,22,-44,-19,15
79,-3793,-3,184,-4848,22,-43,-19,18
80,-3790,-13,199,-4828,22,-43,-19,17
81,-3798,-1,190,-4846,22,-45,-20,18
82,-3786,12,163,-4831,22,-43,-21,17
83,-3797,1,187,-4850,22,-44,-18,16
84,-3781,-2,205,-4819,22,-43,-20,16
85,-3791,-9,174,-4840,22,-43,-19,18
86,-3790,-12,170,-4831,22,-42,-20,17
87,-3785,-4,188,-4835,22,-42,-20,17
88,-3781,2,180,-4829,22,-44,-19,17
89,-3792,-7,207,-4834,22,-43,-19,17
90,-3783,-1,182,-4841,22,-43,-19,17
91,-3782,1,176,-4833,22,-44,-20,16
92,-3788,5,186,-4836,22,-42,-19,17
93,-3784,-4,178,-4840,22,-45,-18,17
94,-3789,-9,180,-4835,22,-43,-21,19
95,-3782,-1,183,-4845,22,-43,-20,17
96,-3780,-3,188,-4842,22,-44,-21,17
97,-3776,0,171,-4833,22,-43,-18,16
98,-3802,-16,195,-4835,22,-43,-18,17
99,-3784,-10,165,-4835,22,-43,-22,16
100,-3780,-7,201,-4836,22,-42,-19,16
101,-3793,-5,194,-4833,22,-42,-17,17
102,-3789,5,190,-4835,22,-45,-19,19
103,-3778,0,179,-4832,22,-45,-20,17
104,-3800,0,164,-4836,22,-43,-20,17
105,-3793,14,185,-4825,22,-43,-19,16
106,-3788,-6,200,-4837,22,-42,-19,17
107,-3792,-1,183,-4843,22,-43,-19,17
108,-3791,4,182,-4829,22,-43,-19,18
109,-3794,-5,190,-4825,22,-45,-19,17
110,-3781,-5,183,-4830,22,-44,-21,17
111,-3787,3,181,-4851,22,-44,-18,16
112,-3771,-20,179,-4828,22,-43,-20,17
113,-3782,-2,193,-4828,22,-46,-18,18
114,-3791,-13,178,-4838,22,-42,-20,18
115,-3782,-7,194,-4831,22,-43,-22,17
116,-3778,-12,190,-4824,22,-42,-19,16
117,-3799,-9,202,-4824,22,-43,-20,17
118,-3791,-8,164,-4830,22,-44,-18,17
119,-3777,-8,185,-4833,22,-42,-21,16
120,-3784,-5,201,-4828,22,-43,-19,15
121,-3781,1,187,-4813,22,-43,-19,17
122,-3785,9,186,-4830,22,-43,-20,17
123,-3767,8,183,-4832,22,-42,-20,16
124,-3794,2,186,-4834,22,-44,-20,16
125,-3797,-2,203,-4826,22,-45,-19,16
126,-3791,-23,187,-4823,22,-43,-19,16
127,-3797,-7,170,-4836,22,-41,-19,18
128,-3798,6,169,-4834,22,-43,-19,18
129,-3801,5,197,-4827,22,-44,-20,15
130,-3792,-1,184,-4830,22,-43,-20,16
131,-3794,-6,164,-4831,22,-43,-19,17
132,-3793,-3,195,-4818,22,-42,-19,18
133,-3777,4,188,-4826,22,-42,-20,16
134,-3799,10,184,-4831,22,-44,-19,16
135,-3790,-7,200,-4823,22,-45,-20,18
136,-3801,-3,174,-4817,22,-42,-23,17
137,-3794,-12,202,-4813,22,-42,-19,17
138,-3782,7,161,-4835,22,-45,-20,17
139,-3788,0,181,-4837,22,-43,-20,19
140,-3797,-8,189,-4832,22,-45,-19,16
141,-3791,-8,161,-4826,22,-45,-18,17
142,-3780,-17,178,-4814,22,-44,-20,18
143,-3796,3,180,-4829,22,-43,-19,16
144,-3791,7,189,-4821,22,-43,-20,17
145,-3803,7,212,-4822,22,-43,-19,18
146,-3792,3,190,-4825,22,-44,-20,18
147,-3781,2,176,-4828,22,-43,-20,18
148,-3790,-8,159,-4823,22,-44,-19,16
149,-3792,-6,213,-4823,22,-45,-20,18
150,-3785,-12,187,-4828,22,-43,-19,17
151,-3795,-8,190,-4815,22,-43,-21,15
152,-3790,6,191,-4821,22,-42,-21,18
153,-3802,-10,184,-4827,22,-42,-18,18
154,-3785,15,187,-4829,22,-43,-20,18
155,-3781,-2,193,-4823,22,-45,-20,18
156,-3785,-9,177,-4828,22,-45,-21,16
157,-3794,19,205,-4816,22,-43,-20,17
158,-3799,-23,193,-4822,22,-44,-20,18
159,-3804,-4,184,-4810,22,-45,-22,16
160,-3799,-3,205,-4812,22,-44,-19,16
161,-3787,-1,168,-4826,22,-42,-19,17
162,-3784,-3,183,-4817,22,-43,-19,18
163,-3795,-19,179,-4815,22,-44,-21,17
164,-3784,12,161,-4823,22,-44,-20,15
165,-3783,0,186,-4825,22,-44,-20,17
166,-3798,-1,194,-4827,22,-43,-20,16
167,-3783,-16,191,-4817,22,-44,-20,15
168,-3790,-14,204,-4820,22,-44,-20,16
169,-3786,1,187,-4833,22,-43,-20,17
170,-3789,-15,204,-4830,22,-43,-20,18
171,-3795,12,176,-4824,22,-43,-19,16
172,-3794,-11,167,-4827,22,-43,-20,17
173,-3785,-4,185,-4815,22,-44,-19,18
174,-3798,-4,158,-4814,22,-43,-19,17
175,-3793,-8,171,-4824,22,-44,-21,16
176,-3782,-4,205,-4814,22,-44,-21,16
177,-3782,-18,191,-4817,22,-43,-19,17
178,-3790,-10,216,-4813,22,-44,-19,16
179,-3781,-8,192,-4824,22,-43,-23,17
180,-3794,-13,195,-4824,22,-45,-20,17
181,-3793,-10,208,-4815,22,-44,-19,17
182,-3787,10,193,-4806,22,-43,-20,16
183,-3790,11,165,-4815,22,-44,-21,19
184,-3785,-3,195,-4803,22,-44,-20,17
185,-3781,2,186,-4814,22,-44,-20,18
186,-3795,13,185,-4819,22,-44,-19,16
187,-3782,-8,196,-4813,22,-45,-18,17
188,-3786,-8,193,-4819,22,-44,-19,17
189,-3782,-4,199,-4824,22,-43,-18,16
190,-3791,5,170,-4821,22,-43,-19,17
191,-3790,-9,171,-4811,22,-44,-19,16
192,-3794,-5,167,-4823,22,-44,-20,15
193,-3786,-13,194,-4820,22,-43,-21,17
194,-3776,-14,173,-4810,22,-43,-19,17
195,-3791,-5,178,-4815,22,-43,-21,17
196,-3781,-5,190,-4818,22,-44,-19,16
197,-3803,0,183,-4824,22,-44,-20,16
198,-3775,-23,179,-4825,22,-44,-18,17
199,-3788,-9,173,-4818,22,-42,-19,17
200,-3773,-3,207,-4805,22,-44,-19,18
201,-3777,4,175,-4816,22,-45,-20,17
202,-3797,-9,185,-4817,22,-42,-21,17
203,-3787,1,191,-4811,22,-42,-19,16
204,-3790,3,167,-4811,22,-44,-20,16
205,-3794,1,189,-4822,22,-44,-19,18
206,-3780,9,195,-4819,22,-43,-21,17
207,-3792,-16,166,-4813,22,-44,-22,16
208,-3775,-16,195,-4810,22,-44,-22,17
209,-3772,0,203,-4808,22,-44,-21,17
210,-3794,-8,198,-4813,22,-44,-21,17
211,-3798,-4,189,-4812,22,-41,-20,18
212,-3795,11,185,-4802,22,-44,-20,17
213,-3786,-4,170,-4822,22,-42,-20,17
214,-3788,-2,194,-4815,22,-43,-19,16
215,-3794,-3,182,-4819,22,-44,-20,16
216,-3804,3,197,-4813,22,-44,-19,17
217,-3782,10,205,-4811,22,-43,-22,15
218,-3790,-2,179,-4800,22,-42,-21,18
219,-3796,-4,182,-4814,22,-43,-20,15
220,-3785,5,192,-4824,22,-44,-19,18
221,-3796,-2,177,-4822,22,-43,-19,15
222,-3786,-3,189,-4810,22,-43,-20,17
223,-3779,-20,190,-4814,22,-42,-20,16
224,-3781,1,177,-4818,22,-44,-20,18
225,-3790,-9,169,-4818,22,-44,-19,17
226,-3805,-11,194,-4821,22,-43,-19,17
227,-3792,-5,172,-4807,22,-44,-19,17
228,-3784,-6,184,-4812,22,-44,-20,17
229,-3797,-7,181,-4820,22,-45,-20,18
230,-3779,5,182,-4813,22,-44,-20,17
231,-3795,-1,180,-4804,22,-44,-19,16
232,-3799,-6,202,-4823,22,-45,-19,17
233,-3774,-4,204,-4820,22,-42,-19,17
234,-3796,3,187,-4820,22,-43,-20,16
235,-3788,5,178,-4829,22,-45,-19,18
236,-3780,-18,177,-4819,22,-43,-21,16
237,-3793,-7,174,-4810,22,-43,-19,15
238,-3791,-7,184,-4822,22,-43,-19,17
239,-3787,0,182,-4796,22,-42,-18,17
240,-3785,0,179,-4815,22,-41,-20,17
241,-3788,-1,186,-4809,22,-43,-20,15
242,-3788,4,204,-4809,22,-43,-20,16
243,-3792,5,193,-4805,22,-45,-20,17
244,-3781,-3,196,-4814,22,-44,-19,19
245,-3796,4,196,-4820,22,-42,-18,15
246,-3788,2,181,-4811,22,-44,-18,18
247,-3786,-2,184,-4810,22,-43,-19,17
248,-3788,-1,159,-4820,22,-45,-20,16
249,-3797,1,171,-4806,22,-44,-20,17
250,-3771,12,192,-4810,22,-41,-20,16
251,-3789,-1,173,-4811,22,-44,-19,17
252,-3795,-9,171,-4806,22,-44,-21,17
253,-3790,-1,172,-4803,22,-45,-20,16
254,-3796,-10,191,-4811,22,-44,-20,19
255,-3774,-6,178,-4812,22,-44,-18,17
256,-3789,0,175,-4803,22,-44,-18,16
257,-3793,3,157,-4818,22,-44,-21,16
258,-3783,-3,167,-4804,22,-43,-20,16
259,-3781,-13,180,-4805,22,-43,-20,17
260,-3791,-15,185,-4803,22,-42,-20,19
261,-3790,0,215,-4802,22,-43,-19,16
262,-3789,-15,174,-4813,22,-44,-19,18
263,-3793,-13,169,-4794,22,-43,-20,17
264,-3787,9,190,-4810,22,-46,-19,17
265,-3782,8,168,-4807,22,-44,-19,17
266,-3809,17,180,-4806,22,-42,-22,18
267,-3787,-4,189,-4809,22,-43,-20,17
268,-3791,1,170,-4821,22,-42,-19,17
269,-3785,-2,194,-4801,22,-42,-18,16
270,-3792,3,178,-4800,22,-42,-17,16
271,-3782,11,180,-4803,22,-43,-19,17
272,-3795,-12,190,-4810,22,-43,-18,16
273,-3793,-23,170,-4812,22,-44,-20,18
274,-3790,-18,168,-4804,22,-43,-19,15
275,-3795,-2,170,-4810,22,-44,-19,17
276,-3786,-16,177,-4807,22,-45,-19,17
277,-3785,-16,180,-4807,22,-44,-19,16
278,-3795,8,195,-4811,22,-44,-20,18
279,-3800,3,210,-4806,22,-44,-21,18
280,-3792,1,188,-4809,22,-45,-19,17
281,-3780,1,165,-4806,22,-44,-21,16
282,-3793,-9,172,-4817,22,-44,-19,17
283,-3782,-6,203,-4807,22,-44,-19,17
284,-3785,-15,187,-4809,22,-44,-20,17
285,-3791,5,170,-4798,22,-43,-20,17
286,-3786,0,209,-4805,22,-44,-19,16
287,-3774,13,189,-4811,22,-43,-20,16
288,-3782,-13,188,-4797,22,-43,-22,18
289,-3784,-5,193,-4793,22,-43,-22,17
290,-3787,4,187,-4809,22,-43,-20,16
291,-3785,7,178,-4804,22,-43,-18,18
292,-3790,-4,166,-4801,22,-43,-20,17
293,-3773,12,179,-4806,22,-43,-19,19
294,-3778,2,162,-4804,22,-43,-18,16
295,-3794,-1,201,-4800,22,-43,-20,17
296,-3776,-3,176,-4811,22,-45,-20,17
297,-3794,9,174,-4799,22,-45,-20,18
298,-3794,0,189,-4806,22,-43,-20,18
299,-3777,20,172,-4810,22,-43,-20,17
300,-3780,-22,200,-4810,22,-42,-20,17
301,-3792,-4,189,-4808,22,-43,-19,16
302,-3785,-12,199,-4814,22,-44,-19,15
303,-3787,-17,200,-4795,22,-45,-21,16
304,-3786,0,199,-4801,22,-43,-20,16
305,-3785,-8,197,-4809,22,-44,-21,17
306,-3787,1,180,-4794,22,-43,-20,18
307,-3801,-16,199,-4806,22,-45,-19,16
308,-3790,3,198,-4796,22,-44,-20,15
309,-3791,-12,184,-4816,22,-45,-20,18
310,-3792,10,197,-4795,22,-43,-19,16
311,-3780,0,166,-4791,22,-43,-18,18
312,-3791,1,169,-4797,22,-43,-19,18
313,-3794,-8,204,-4805,22,-43,-17,17
314,-3783,-12,199,-4803,22,-43,-19,18
315,-3786,16,173,-4808,22,-43,-20,16
316,-3809,11,185,-4796,22,-46,-21,20
317,-3803,7,180,-4798,22,-43,-21,16
318,-3793,7,166,-4811,22,-43,-19,17
319,-3790,-5,190,-4797,22,-43,-18,17
320,-3787,0,181,-4803,22,-44,-20,17
321,-3780,-18,192,-4807,22,-44,-20,17
322,-3796,0,178,-4796,22,-43,-21,15
323,-3796,6,191,-4800,22,-44,-19,18
324,-3797,-20,181,-4804,22,-44,-19,15
325,-3794,-15,171,-4803,22,-43,-18,17
326,-3785,-11,193,-4801,22,-45,-20,16
327,-3795,9,209,-4796,22,-46,-21,17
328,-3801,4,174,-4795,22,-45,-22,17
329,-3795,-14,222,-4803,22,-42,-19,17
330,-3791,11,163,-4796,22,-43,-21,14
331,-3783,-5,186,-4796,22,-43,-21,17
332,-3790,1,178,-4802,22,-44,-19,18
333,-3778,5,174,-4796,22,-44,-20,18
334,-3785,-14,190,-4806,22,-44,-20,17
335,-3783,-4,194,-4794,22,-43,-19,18
336,-3780,-5,199,-4796,22,-44,-20,16
337,-3780,-6,186,-4804,22,-43,-20,17
338,-3789,12,189,-4808,22,-45,-18,17
339,-3793,4,169,-4802,22,-42,-19,16
340,-3790,9,159,-4808,22,-45,-18,18
341,-3777,8,172,-4801,22,-42,-19,17
342,-3790,-13,183,-4795,22,-44,-21,16
343,-3785,-12,183,-4795,22,-44,-20,17
344,-3794,3,193,-4792,22,-44,-20,18
345,-3787,-2,183,-4801,22,-42,-19,18
346,-3786,2,152,-4802,22,-45,-18,17
347,-3798,-2,189,-4796,22,-43,-18,16
348,-3788,0,177,-4808,22,-42,-19,16
349,-3794,1,178,-4804,22,-43,-20,17
350,-3791,-8,181,-4792,22,-44,-19,16
351,-3782,-10,174,-4800,22,-43,-20,16
352,-3783,3,203,-4790,22,-43,-20,17
353,-3786,4,189,-4799,22,-42,-19,19
354,-3790,-14,194,-4807,22,-45,-20,16
355,-3776,-11,178,-4797,22,-44,-19,17
356,-3794,9,170,-4813,22,-43,-20,17
357,-3791,8,199,-4791,22,-43,-20,18
358,-3794,-15,171,-4804,22,-43,-21,18
359,-3789,-4,183,-4804,22,-45,-20,17
360,-3789,9,160,-4794,22,-44,-20,16
361,-3771,15,193,-4800,22,-43,-20,16
362,-3786,-1,192,-4801,22,-44,-19,18
363,-3777,-17,182,-4800,22,-45,-21,16
364,-3785,-4,162,-4797,22,-45,-18,17
365,-3788,-7,169,-4797,22,-42,-20,17
366,-3802,-13,177,-4796,22,-44,-18,17
367,-3794,3,184,-4800,22,-45,-21,15
368,-3790,-3,196,-4803,22,-45,-19,18
369,-3787,-4,158,-4787,22,-46,-18,18
370,-3793,-14,184,-4796,22,-44,-19,18
371,-3787,4,160,-4807,22,-44,-18,16
372,-3790,-1,197,-4797,22,-42,-21,17
373,-3782,-10,202,-4805,22,-44,-18,16
374,-3794,-10,167,-4801,22,-43,-19,18
375,-3794,8,188,-4804,22,-43,-19,17
376,-3773,9,211,-4794,22,-43,-18,17
377,-3777,4,179,-4797,22,-43,-20,17
378,-3783,-9,185,-4799,22,-44,-20,16
379,-3780,-6,197,-4803,22,-44,-21,16
380,-3789,-6,199,-4802,22,-43,-20,16
381,-3795,-17,167,-4802,22,-45,-19,16
382,-3787,-7,190,-4796,22,-44,-19,17
383,-3783,-2,180,-4798,22,-43,-20,18
384,-3800,11,197,-4788,22,-42,-21,17
385,-3790,3,172,-4788,22,-44,-19,17
386,-3783,-23,192,-4798,22,-43,-20,17
387,-3796,2,199,-4804,22,-42,-19,16
388,-3790,6,180,-4792,22,-43,-19,17
389,-3770,-3,169,-4797,22,-44,-20,17
390,-3788,-20,189,-4804,22,-45,-18,16
391,-3787,-13,177,-4800,22,-43,-18,18
392,-3799,-10,203,-4800,22,-43,-18,16
393,-3799,-8,183,-4795,22,-44,-20,16
394,-3791,-18,192,-4810,22,-44,-19,16
395,-3782,8,188,-4797,22,-44,-20,16
396,-3782,-4,198,-4795,22,-45,-20,16
397,-3779,2,188,-4806,22,-43,-20,16
398,-3785,-2,179,-4801,22,-42,-21,17
399,-3792,1,190,-4800,22,-42,-19,17
400,-3795,10,192,-4814,22,-45,-20,18
401,-3789,8,220,-4805,22,-45,-21,17
402,-3777,1,200,-4789,22,-44,-20,16
403,-3790,3,190,-4801,22,-43,-19,17
404,-3787,-11,198,-4791,22,-42,-19,17
405,-3788,13,173,-4803,22,-44,-20,17
406,-3785,-10,188,-4793,22,-44,-20,18
407,-3774,4,170,-4788,22,-43,-19,16
408,-3780,1,208,-4784,22,-44,-18,16
409,-3776,-2,166,-4793,22,-42,-21,17
410,-3805,4,192,-4787,22,-43,-18,17
411,-3778,10,185,-4790,22,-44,-20,17
412,-3792,-17,188,-4801,22,-44,-21,16
413,-3783,-5,162,-4798,22,-43,-19,17
414,-3801,2,175,-4798,22,-44,-19,14
415,-3780,-4,199,-4798,22,-42,-21,16
416,-3792,-3,188,-4794,22,-43,-18,16
417,-3786,-12,165,-4798,22,-43,-19,18
418,-3786,-7,187,-4796,22,-44,-19,16
419,-3788,-1,185,-4798,22,-43,-21,15
420,-3782,-4,197,-4788,22,-44,-20,19
421,-3788,-4,163,-4793,22,-44,-19,18
422,-3801,-8,176,-4789,22,-43,-19,16
423,-3790,-16,165,-4808,22,-43,-20,17
424,-3795,-10,174,-4794,22,-42,-20,18
425,-3781,-5,189,-4787,22,-42,-19,17
426,-3781,-18,199,-4783,22,-45,-19,17
427,-3789,-13,192,-4789,22,-45,-20,16
428,-3791,-16,173,-4799,22,-43,-20,16
429,-3788,-6,182,-4779,22,-43,-19,16
430,-3781,6,167,-4789,22,-46,-19,17
431,-3787,-17,209,-4795,22,-44,-18,18
432,-3799,-5,206,-4789,22,-43,-19,15
433,-3795,-19,175,-4794,22,-44,-20,17
434,-3787,5,188,-4785,22,-46,-20,18
435,-3784,11,188,-4810,22,-43,-20,16
436,-3779,-11,174,-4780,22,-44,-18,16
437,-3791,-12,202,-4800,22,-42,-20,16
438,-3798,21,190,-4785,22,-43,-19,17
439,-3789,-10,186,-4790,22,-43,-20,17
440,-3796,-4,177,-4794,22,-44,-20,18
441,-3791,-6,186,-4786,22,-44,-17,16
442,-3796,6,196,-4797,22,-43,-22,16
443,-3796,-7,180,-4802,22,-45,-20,17
444,-3790,-8,179,-4792,22,-42,-19,17
445,-3791,-14,187,-4793,22,-43,-20,16
446,-3797,5,198,-4785,22,-43,-19,17
447,-3783,-17,207,-4793,22,-44,-19,17
448,-3787,-4,183,-4792,22,-43,-21,18
449,-3791,-12,159,-4794,22,-44,-21,16
450,-3806,-10,181,-4809,22,-42,-20,18
451,-3798,-4,205,-4801,22,-44,-20,17
452,-3780,-5,187,-4789,22,-43,-18,17
453,-3780,2,172,-4795,22,-43,-20,17
454,-3778,-5,174,-4789,22,-43,-21,16
455,-3797,-15,202,-4792,22,-43,-19,16
456,-3789,-7,185,-4805,22,-44,-20,17
457,-3781,-5,180,-4790,22,-44,-19,19
458,-3786,-8,191,-4786,22,-42,-20,16
459,-3801,0,191,-4789,22,-45,-19,16
460,-3795,-14,180,-4786,22,-44,-19,17
461,-3775,-16,197,-4792,22,-45,-21,16
462,-3792,-14,180,-4797,22,-42,-20,18
463,-3770,3,169,-4780,22,-44,-19,16
464,-3789,1,191,-4791,22,-44,-20,17
465,-3792,-1,186,-4781,22,-43,-18,17
466,-3780,9,193,-4787,22,-46,-20,17
467,-3786,-8,183,-4786,22,-43,-19,19
468,-3783,-2,194,-4796,22,-43,-19,16
469,-3794,-11,181,-4800,22,-45,-20,17
470,-3778,-11,178,-4785,22,-44,-21,17
471,-3798,-8,189,-4778,22,-44,-19,17
472,-3792,0,200,-4798,22,-43,-19,17
473,-3807,16,182,-4792,22,-45,-21,18
474,-3788,-3,179,-4788,22,-43,-20,16
475,-3778,-7,201,-4785,22,-43,-20,17
476,-3790,9,202,-4799,22,-44,-20,17
477,-3796,5,203,-4798,22,-44,-21,16
478,-3782,5,215,-4795,22,-43,-21,18
479,-3797,-4,177,-4788,22,-44,-21,17
480,-3783,-8,184,-4789,22,-42,-18,17
481,-3802,-7,192,-4786,22,-43,-22,17
482,-3789,-11,164,-4799,22,-44,-19,17
483,-3785,-15,210,-4785,22,-43,-20,18
484,-3793,11,178,-4794,22,-42,-19,18
485,-3807,-34,192,-4784,22,-44,-20,17
486,-3777,9,197,-4780,22,-44,-21,19
487,-3797,-9,202,-4793,22,-45,-20,16
488,-3789,-4,190,-4782,22,-45,-19,18
489,-3781,-12,180,-4792,22,-45,-20,17
490,-3778,-10,193,-4788,22,-44,-20,17
491,-3796,-7,189,-4782,22,-44,-20,18
492,-3784,11,191,-4789,22,-43,-19,17
493,-3781,4,194,-4792,22,-43,-20,18
494,-3784,5,178,-4793,22,-45,-19,17
495,-3781,-2,196,-4793,22,-43,-20,16
496,-3793,-4,182,-4795,22,-43,-19,18
497,-3798,1,186,-4791,22,-43,-21,19
498,-3784,-5,177,-4782,22,-43,-21,16
499,-3777,5,195,-4787,22,-44,-20,17
500,-3774,3,185,-4796,22,-44,-18,18
501,-3783,0,172,-4781,22,-46,-18,17
502,-3803,7,189,-4786,22,-43,-21,18
503,-3802,-12,198,-4774,22,-43,-20,18
504,-3799,2,178,-4780,22,-44,-20,18
505,-3776,-4,159,-4789,22,-43,-19,17
506,-3786,0,197,-4793,22,-43,-20,17
507,-3791,-12,179,-4797,22,-45,-21,18
508,-3783,-5,184,-4785,22,-43,-21,17
509,-3774,-6,196,-4791,22,-44,-19,16
510,-3791,12,160,-4794,22,-44,-18,18
511,-3797,10,184,-4786,22,-46,-20,18
512,-3798,20,197,-4776,22,-42,-21,17
513,-3782,-4,184,-4781,22,-43,-20,16
514,-3785,-9,187,-4781,22,-43,-20,18
515,-3769,-10,164,-4795,22,-43,-18,16
516,-3798,12,202,-4791,22,-43,-20,17
517,-3790,-5,202,-4783,22,-44,-19,16
518,-3768,-2,190,-4784,22,-42,-20,15
519,-3790,-2,214,-4777,22,-43,-22,18
520,-3775,-8,189,-4790,22,-42,-18,16
521,-3804,-2,181,-4778,22,-45,-19,18
522,-3800,-31,194,-4786,22,-44,-20,18
523,-3794,-3,197,-4790,22,-44,-20,17
524,-3787,-10,176,-4773,22,-46,-21,18
525,-3788,-1,183,-4768,22,-46,-19,17
526,-3796,0,200,-4778,22,-42,-20,16
527,-3794,-4,175,-4788,22,-44,-18,16
528,-3812,-1,191,-4772,22,-43,-18,16
529,-3799,-10,187,-4787,22,-43,-20,17
530,-3781,-6,196,-4792,22,-44,-19,17
531,-3801,6,187,-4787,22,-42,-21,18
532,-3782,-8,196,-4788,22,-42,-20,19
533,-3786,-5,200,-4793,22,-45,-21,16
534,-3793,-3,178,-4789,22,-45,-17,16
535,-3795,-4,188,-4790,22,-43,-19,17
536,-3783,-6,185,-4788,22,-45,-20,16
537,-3784,3,181,-4783,22,-43,-17,18
538,-3773,-3,201,-4774,22,-43,-22,17
539,-3783,2,201,-4792,22,-44,-18,17
540,-3794,-10,186,-4792,22,-45,-19,17
541,-3784,-8,198,-4797,22,-44,-19,16
542,-3788,-1,179,-4790,22,-44,-19,17
543,-3793,-10,199,-4790,22,-45,-20,18
544,-3787,-7,197,-4782,22,-43,-17,18
545,-3791,10,176,-4793,22,-44,-19,16
546,-3801,-7,185,-4777,22,-43,-20,17
547,-3793,-12,192,-4781,22,-44,-21,16
548,-3781,-2,173,-4785,22,-43,-20,16
549,-3784,-19,180,-4779,22,-45,-19,17
550,-3789,-7,170,-4781,22,-44,-20,17
551,-3778,0,188,-4783,22,-43,-21,17
552,-3780,-4,180,-4788,22,-43,-19,16
553,-3797,-22,179,-4787,22,-45,-19,17
554,-3773,-11,188,-4775,22,-44,-19,18
555,-3778,-6,201,-4782,22,-44,-20,17
556,-3797,2,199,-4784,22,-43,-20,18
557,-3796,7,195,-4781,22,-44,-19,18
558,-3789,2,193,-4785,22,-44,-19,18
559,-3793,-17,202,-4778,22,-44,-20,15
560,-3784,-7,171,-4783,22,-43,-21,14
561,-3786,1,187,-4787,22,-45,-19,16
562,-3789,3,185,-4784,22,-44,-19,18
563,-3805,-1,183,-4780,22,-43,-18,17
564,-3788,9,171,-4776,22,-43,-19,15
565,-3790,7,181,-4787,22,-44,-19,18
566,-3789,2,175,-4782,22,-44,-19,17
567,-3787,22,188,-4784,22,-43,-22,16
568,-3776,-12,198,-4786,22,-44,-20,17
569,-3797,-17,212,-4778,22,-43,-19,17
570,-3792,-7,169,-4784,22,-44,-22,17
571,-3782,-4,182,-4785,22,-43,-20,18
572,-3774,-6,194,-4776,22,-44,-21,18
573,-3787,-6,188,-4785,22,-43,-20,17
574,-3794,5,214,-4783,22,-44,-20,16
575,-3790,16,206,-4780,22,-44,-16,16
576,-3778,-2,187,-4783,22,-44,-20,15
577,-3769,5,179,-4788,22,-42,-20,16
578,-3800,-15,181,-4782,22,-44,-19,17
579,-3804,-6,189,-4781,22,-46,-18,17
580,-3795,0,191,-4790,22,-43,-19,16
581,-3787,-8,197,-4787,22,-44,-19,16
582,-3780,1,170,-4784,22,-43,-19,17
583,-3794,-17,181,-4780,22,-43,-21,18
584,-3788,11,172,-4788,22,-43,-18,17
585,-3770,0,180,-4778,22,-44,-20,17
586,-3783,0,188,-4787,22,-43,-22,18
587,-3788,-8,187,-4794,22,-43,-19,15
588,-3778,-5,182,-4782,22,-43,-20,17
589,-3783,-10,173,-4782,22,-42,-20,17
590,-3787,-3,200,-4791,22,-42,-20,16
591,-3771,-2,159,-4782,22,-45,-20,17
592,-3788,2,191,-4784,22,-44,-22,17
593,-3796,-5,158,-4783,22,-44,-19,17
594,-3775,0,193,-4784,22,-44,-19,17
595,-3793,5,181,-4777,22,-44,-21,18
596,-3795,2,185,-4783,22,-43,-20,16
597,-3783,-15,172,-4786,22,-45,-19,16
598,-3787,-15,191,-4786,22,-44,-18,16
599,-3785,1,170,-4767,22,-44,-20,18
600,-3795,-18,169,-4782,22,-43,-20,16
601,-3793,-10,207,-4778,22,-46,-19,17
602,-3777,-3,192,-4787,22,-44,-20,16
603,-3797,-8,176,-4779,22,-44,-20,16
604,-3779,-6,170,-4785,22,-42,-20,18
605,-3787,-8,188,-4787,22,-42,-18,17
606,-3801,-15,181,-4787,22,-43,-19,17
607,-3787,-20,180,-4790,22,-45,-20,16
608,-3785,6,199,-4779,22,-45,-19,16
609,-3770,-12,184,-4772,22,-44,-20,18
610,-3796,-3,193,-4777,22,-43,-21,17
611,-3799,-11,181,-4779,22,-43,-20,17
612,-3781,-8,185,-4783,22,-45,-19,16
613,-3791,1,200,-4786,22,-45,-18,17
614,-3793,-8,173,-4774,22,-43,-19,17
615,-3790,-13,210,-4782,22,-44,-19,17
616,-3781,11,191,-4781,22,-44,-20,16
617,-3792,-8,202,-4771,22,-43,-20,18
618,-3788,-13,221,-4764,22,-43,-21,18
619,-3796,5,194,-4785,22,-44,-20,16
620,-3788,0,183,-4780,22,-45,-19,17
621,-3793,3,167,-4778,22,-45,-21,16
622,-3780,-8,188,-4785,22,-43,-20,16
623,-3790,2,184,-4769,22,-43,-19,15
624,-3786,4,164,-4783,22,-43,-20,17
625,-3790,3,172,-4784,22,-41,-18,17
626,-3791,-7,188,-4773,22,-41,-18,17
627,-3780,5,166,-4787,22,-45,-19,19
628,-3798,-5,156,-4781,22,-44,-20,15
629,-3799,13,181,-4777,22,-46,-20,19
630,-3783,-5,192,-4787,22,-44,-19,18
631,-3768,-3,212,-4773,22,-46,-18,18
632,-3783,-13,181,-4784,22,-43,-20,17
633,-3799,10,214,-4783,22,-43,-19,17
634,-3786,-13,170,-4776,22,-43,-19,17
635,-3785,-5,163,-4781,22,-44,-20,18
636,-3787,10,180,-4781,22,-44,-20,16
637,-3789,2,184,-4779,22,-45,-19,19
638,-3787,4,184,-4787,22,-45,-19,17
639,-3790,-3,188,-4782,22,-42,-20,18
640,-3790,-1,194,-4771,22,-45,-21,18
641,-3797,-12,169,-4782,22,-44,-20,18
642,-3790,-1,189,-4791,22,-44,-20,17
643,-3780,7,171,-4786,22,-42,-18,17
644,-3775,-5,183,-4775,22,-44,-20,18
645,-3791,1,181,-4787,22,-44,-19,16
646,-3781,-6,188,-4778,22,-43,-20,17
647,-3796,6,183,-4776,22,-42,-21,17
648,-3778,2,171,-4785,22,-46,-19,16
649,-3792,-3,187,-4783,22,-43,-21,16
650,-3790,-16,189,-4775,22,-45,-21,18
651,-3783,-1,182,-4776,22,-43,-20,17
652,-3791,-4,172,-4768,22,-43,-19,16
653,-3792,1,177,-4779,22,-45,-18,17
654,-3780,4,198,-4777,22,-44,-20,17
655,-3791,-9,183,-4774,22,-44,-19,17
656,-3792,-1,204,-4771,22,-44,-19,17
657,-3787,7,194,-4788,22,-44,-20,17
658,-3813,3,205,-4767,22,-43,-18,16
659,-3794,-10,192,-4781,22,-45,-19,17
660,-3787,-11,193,-4778,22,-43,-20,18
661,-3793,-9,179,-4785,22,-44,-19,17
662,-3781,2,182,-4775,22,-43,-18,17
663,-3797,-13,180,-4774,22,-44,-19,16
664,-3800,4,207,-4767,22,-44,-19,17
665,-3791,-13,179,-4770,22,-44,-19,17
666,-3790,7,181,-4779,22,-43,-20,17
667,-3803,-3,170,-4787,22,-44,-18,17
668,-3791,-2,188,-4773,22,-44,-19,18
669,-3802,-13,189,-4776,22,-44,-17,19
670,-3789,12,181,-4771,22,-42,-19,17
671,-3780,-2,181,-4776,22,-43,-20,18
672,-3770,0,179,-4781,22,-43,-19,17
673,-3771,14,196,-4774,22,-45,-18,18
674,-3801,-12,195,-4777,22,-45,-19,17
675,-3785,5,181,-4775,22,-44,-20,16
676,-3795,-3,193,-4778,22,-44,-20,18
677,-3795,-4,184,-4786,22,-43,-20,16
678,-3790,4,187,-4769,22,-44,-18,17
679,-3792,6,177,-4773,22,-44,-21,16
680,-3787,-2,175,-4784,22,-44,-18,18
681,-3776,-3,189,-4789,22,-41,-18,16
682,-3787,2,188,-4784,22,-44,-18,18
683,-3781,5,201,-4771,22,-43,-20,18
684,-3795,-8,198,-4781,22,-45,-19,16
685,-3801,-17,204,-4782,22,-43,-21,16
686,-3789,3,191,-4784,22,-44,-20,18
687,-3813,-19,194,-4778,22,-45,-19,16
688,-3793,-17,180,-4786,22,-45,-19,15
689,-3792,5,178,-4783,22,-45,-20,17
690,-3783,10,181,-4772,22,-42,-20,18
691,-3780,-3,177,-4772,22,-43,-19,16
692,-3793,2,169,-4780,22,-44,-18,17
693,-3788,-13,180,-4772,22,-43,-20,17
694,-3789,-5,180,-4779,22,-45,-19,17
695,-3785,-4,185,-4768,22,-44,-21,17
696,-3794,-4,168,-4782,22,-43,-19,17
697,-3773,3,196,-4776,22,-44,-19,14
698,-3785,-23,179,-4779,22,-43,-21,18
699,-3796,11,188,-4783,22,-44,-19,17
700,-3791,1,190,-4777,22,-44,-21,15
701,-3794,6,194,-4780,22,-43,-19,17
702,-3789,-19,193,-4780,22,-45,-20,19
703,-3792,-13,200,-4785,22,-43,-19,18
704,-3774,-10,173,-4779,22,-44,-21,18
705,-3803,0,184,-4771,22,-44,-19,17
706,-3786,-16,179,-4770,22,-42,-18,17
707,-3795,-4,177,-4768,22,-43,-18,17
708,-3777,-17,182,-4773,22,-44,-20,16
709,-3789,-6,163,-4791,22,-44,-19,16
710,-3785,-12,198,-4771,22,-43,-21,15
711,-3781,5,190,-4777,22,-43,-19,17
712,-3775,4,162,-4774,22,-44,-19,15
713,-3779,-5,186,-4774,22,-42,-19,17
714,-3786,-2,174,-4773,22,-45,-18,16
715,-3785,2,200,-4776,22,-41,-20,16
716,-3804,-21,175,-4774,22,-45,-20,17
717,-3797,2,191,-4776,22,-44,-20,16
718,-3792,11,200,-4770,22,-43,-20,17
719,-3785,-2,181,-4771,22,-44,-20,17
720,-3800,-3,182,-4779,22,-44,-21,16
721,-3786,10,182,-4768,22,-43,-21,17
722,-3784,-12,190,-4781,22,-44,-20,17
723,-3787,-2,180,-4778,22,-45,-19,17
724,-3792,3,178,-4774,22,-44,-20,16
725,-3794,-7,189,-4774,22,-45,-18,18
726,-3792,-10,206,-4776,22,-44,-21,17
727,-3794,-4,174,-4764,22,-46,-20,16
728,-3792,9,172,-4774,22,-45,-19,18
729,-3791,-17,180,-4770,22,-43,-18,16
730,-3782,-9,188,-4773,22,-46,-20,17
731,-3780,-12,192,-4778,22,-44,-19,17
732,-3787,-5,170,-4770,22,-44,-21,16
733,-3783,-7,169,-4773,22,-45,-18,17
734,-3802,-3,171,-4783,22,-43,-21,16
735,-3810,4,175,-4774,22,-44,-20,17
736,-3790,8,186,-4771,22,-44,-19,16
737,-3786,-1,185,-4778,22,-44,-21,15
738,-3796,1,161,-4776,22,-43,-19,17
739,-3792,-12,204,-4767,22,-44,-18,17
740,-3777,8,179,-4769,22,-44,-21,18
741,-3789,-14,205,-4769,22,-44,-21,17
742,-3782,6,188,-4770,22,-45,-18,18
743,-3780,5,184,-4777,22,-44,-19,17
744,-3797,-7,182,-4778,22,-44,-19,18
745,-3788,-1,167,-4773,22,-43,-19,16
746,-3786,-2,196,-4772,22,-46,-21,18
747,-3799,2,205,-4789,22,-44,-19,18
748,-3793,-3,202,-4777,22,-44,-18,18
749,-3795,-5,174,-4776,22,-45,-18,19
750,-3787,7,188,-4781,22,-45,-18,18
751,-3786,-7,201,-4766,22,-43,-20,17
752,-3776,2,191,-4776,22,-44,-18,18
753,-3793,-15,178,-4767,22,-42,-19,16
754,-3784,1,185,-4774,22,-45,-19,17
755,-3776,3,188,-4779,22,-41,-19,17
756,-3777,-5,187,-4771,22,-45,-22,18
757,-3791,-13,199,-4776,22,-44,-20,18
758,-3802,-3,179,-4785,22,-44,-20,17
759,-3791,-15,177,-4768,22,-44,-18,18
760,-3791,-15,184,-4778,22,-42,-20,16
761,-3773,3,206,-4782,22,-42,-17,17
762,-3786,-4,171,-4770,22,-43,-20,16
763,-3785,-5,192,-4774,22,-46,-19,17
764,-3780,-13,188,-4767,22,-43,-19,16
765,-3790,5,186,-4775,22,-43,-19,18
766,-3787,4,199,-4773,22,-45,-18,17
767,-3768,-8,176,-4779,22,-43,-19,17
768,-3792,-13,182,-4779,22,-45,-20,16
769,-3776,0,190,-4774,22,-42,-19,17
770,-3788,-2,183,-4772,22,-43,-19,18
771,-3790,-4,188,-4779,22,-43,-20,19
772,-3772,3,185,-4770,22,-44,-20,17
773,-3794,-1,170,-4771,22,-44,-20,16
774,-3787,-1,182,-4769,22,-44,-19,17
775,-3781,-10,178,-4775,22,-44,-18,16
776,-3786,9,184,-4771,22,-44,-21,17
777,-3787,4,174,-4774,22,-43,-20,16
778,-3792,6,188,-4767,22,-44,-21,16
779,-3782,4,170,-4764,22,-45,-19,18
780,-3796,6,172,-4775,22,-43,-21,19
781,-3791,-5,160,-4764,22,-45,-19,16
782,-3780,7,188,-4781,22,-45,-19,16
783,-3794,6,198,-4762,22,-45,-20,17
784,-3784,3,202,-4773,22,-43,-20,18
785,-3783,8,195,-4762,22,-44,-18,16
786,-3787,-2,189,-4767,22,-43,-18,15
787,-3801,-3,176,-4770,22,-43,-22,17
788,-3782,-5,189,-4770,22,-43,-20,18
789,-3783,3,182,-4774,22,-43,-20,16
790,-3791,-3,157,-4774,22,-43,-19,17
791,-3775,2,176,-4773,22,-44,-18,17
792,-3785,0,182,-4760,22,-43,-21,17
793,-3790,-1,182,-4766,22,-43,-19,16
794,-3781,-3,188,-4779,22,-44,-20,16
795,-3801,-1,191,-4779,22,-46,-20,17
796,-3784,14,176,-4777,22,-43,-21,17
797,-3795,-14,187,-4774,22,-43,-19,16
798,-3787,-12,184,-4782,22,-43,-19,17
799,-3799,-2,169,-4773,22,-42,-20,17
800,-3776,-2,201,-4765,22,-45,-20,18
801,-3795,1,172,-4766,22,-44,-20,17
802,-3785,-6,161,-4775,22,-44,-22,15
803,-3793,0,183,-4776,22,-44,-22,16
804,-3794,-4,186,-4773,22,-46,-20,17
805,-3764,2,196,-4778,22,-43,-20,16
806,-3802,1,189,-4781,22,-44,-19,18
807,-3783,6,176,-4760,22,-43,-20,17
808,-3780,-7,190,-4767,22,-45,-19,18
809,-3787,-13,200,-4768,22,-44,-19,16
810,-3776,10,171,-4777,22,-44,-18,15
811,-3791,-6,168,-4776,22,-42,-18,17
812,-3795,-9,172,-4772,22,-45,-20,17
813,-3780,-2,189,-4766,22,-42,-19,17
814,-3788,5,191,-4763,22,-43,-19,16
815,-3785,7,191,-4770,22,-42,-20,18
816,-3780,-10,176,-4764,22,-43,-18,17
817,-3785,-7,194,-4770,22,-43,-18,16
818,-3785,0,196,-4773,22,-43,-20,18
819,-3799,-2,165,-4777,22,-43,-20,16
820,-3790,-1,159,-4776,22,-45,-18,16
821,-3783,-7,171,-4766,22,-42,-21,16
822,-3800,-4,174,-4767,22,-44,-20,16
823,-3803,11,195,-4765,22,-43,-20,17
824,-3786,3,200,-4764,22,-44,-18,16
825,-3776,1,167,-4771,22,-44,-20,16
826,-3797,10,198,-4766,22,-44,-20,18
827,-3776,2,198,-4770,22,-44,-20,18
828,-3786,3,179,-4770,22,-44,-18,16
829,-3779,-11,176,-4767,22,-42,-19,18
830,-3797,7,208,-4765,22,-45,-19,16
831,-3793,-16,188,-4772,22,-43,-19,17
832,-3792,2,202,-4774,22,-44,-19,16
833,-3802,-12,183,-4783,22,-43,-20,18
834,-3798,-9,167,-4765,22,-44,-22,18
835,-3783,9,204,-4769,22,-43,-19,17
836,-3794,-3,163,-4764,22,-44,-19,16
837,-3794,-9,203,-4767,22,-46,-19,19
838,-3783,-3,196,-4761,22,-43,-19,17
839,-3794,-5,179,-4763,22,-45,-21,17
840,-3789,0,195,-4773,22,-45,-20,16
841,-3799,-8,190,-4761,22,-44,-20,19
842,-3797,-2,180,-4780,22,-43,-20,18
843,-3800,0,186,-4763,22,-43,-19,15
844,-3773,-10,181,-4779,22,-43,-20,17
845,-3790,6,190,-4787,22,-42,-20,18
846,-3800,-11,195,-4771,22,-44,-19,15
847,-3777,-22,182,-4767,22,-43,-21,18
848,-3786,-7,171,-4763,22,-45,-19,16
849,-3783,-2,185,-4769,22,-44,-17,17
850,-3789,-11,181,-4764,22,-45,-19,16
851,-3794,-1,185,-4767,22,-45,-19,18
852,-3790,-10,171,-4777,22,-42,-19,17
853,-3798,-4,178,-4767,22,-45,-20,17
854,-3782,-14,183,-4776,22,-44,-18,17
855,-3793,-22,184,-4764,22,-44,-21,17
856,-3786,-8,187,-4765,22,-43,-19,17
857,-3783,-3,186,-4761,22,-43,-19,18
858,-3787,-11,175,-4772,22,-44,-19,16
859,-3778,-7,161,-4771,22,-44,-19,18
860,-3803,-10,173,-4773,22,-43,-19,17
861,-3789,-11,164,-4780,22,-44,-18,17
862,-3781,7,187,-4770,22,-44,-20,17
863,-3789,-4,195,-4761,22,-43,-18,16
864,-3790,-9,202,-4770,22,-44,-22,16
865,-3776,6,202,-4766,22,-43,-19,18
866,-3793,2,182,-4769,22,-43,-20,18
867,-3785,7,206,-4761,22,-43,-19,17
868,-3780,-8,192,-4766,22,-43,-18,17
869,-3792,6,215,-4775,22,-45,-21,16
870,-3795,4,181,-4776,22,-43,-20,17
871,-3794,3,201,-4779,22,-44,-20,17
872,-3788,-8,183,-4768,22,-43,-19,17
873,-3794,-10,167,-4774,22,-44,-20,17
874,-3801,12,197,-4767,22,-44,-19,17
875,-3791,-5,164,-4779,22,-44,-22,16
876,-3793,-5,213,-4766,22,-43,-21,17
877,-3787,-2,171,-4755,23,-44,-19,17
878,-3792,-2,191,-4769,22,-42,-20,18
879,-3787,-10,190,-4771,22,-43,-22,17
880,-3789,-3,209,-4771,22,-42,-20,17
881,-3788,-12,193,-4781,22,-45,-20,18
882,-3778,-10,196,-4777,22,-46,-19,17
883,-3796,-19,187,-4773,22,-44,-19,16
884,-3786,-3,200,-4785,22,-45,-21,17
885,-3782,2,178,-4768,22,-43,-21,17
886,-3796,-3,186,-4770,22,-43,-19,18
887,-3779,-5,179,-4766,22,-44,-20,16
888,-3798,2,178,-4775,22,-43,-19,18
889,-3787,-3,196,-4771,22,-43,-20,16
890,-3797,-4,208,-4763,22,-44,-19,17
891,-3783,4,185,-4774,22,-45,-21,16
892,-3779,-7,165,-4768,22,-45,-20,17
893,-3781,-10,170,-4768,22,-43,-20,15
894,-3788,-8,180,-4767,22,-43,-19,18
895,-3799,10,165,-4770,22,-45,-20,17
896,-3781,-5,188,-4766,22,-43,-18,18
897,-3786,-6,194,-4769,22,-43,-19,17
898,-3787,5,192,-4771,22,-43,-20,16
899,-3792,-12,193,-4777,22,-44,-20,16
900,-3800,6,181,-4770,22,-43,-20,15
901,-3790,-4,199,-4773,22,-44,-20,16
902,-3798,-10,182,-4768,22,-45,-19,17
903,-3772,16,158,-4777,22,-44,-20,17
904,-3801,-5,192,-4775,22,-44,-20,17
905,-3779,12,198,-4776,22,-44,-22,17
906,-3792,-15,180,-4766,22,-44,-19,18
907,-3787,1,181,-4767,22,-44,-17,17
908,-3798,4,205,-4774,22,-45,-21,17
909,-3796,13,189,-4783,22,-44,-20,15
910,-3784,-19,175,-4772,22,-45,-20,18
911,-3792,-6,172,-4765,22,-44,-21,17
912,-3788,-15,188,-4774,22,-43,-19,19
913,-3799,-9,181,-4778,22,-43,-21,17
914,-3777,-2,176,-4765,22,-43,-18,19
915,-3793,-4,193,-4762,22,-44,-19,15
916,-3791,-9,200,-4758,23,-44,-19,18
917,-3781,-7,179,-4768,22,-44,-18,19
918,-3795,-21,191,-4764,22,-44,-18,17
919,-3794,-3,180,-4767,22,-46,-21,17
920,-3764,-10,181,-4760,22,-43,-20,19
921,-3792,-12,190,-4772,22,-43,-19,17
922,-3779,-10,196,-4772,22,-44,-19,15
923,-3797,-4,166,-4768,22,-43,-20,16
924,-3794,12,159,-4769,22,-46,-20,18
925,-3775,7,207,-4764,22,-47,-20,19
926,-3798,-4,185,-4771,22,-43,-17,15
927,-3793,-13,162,-4756,23,-43,-19,17
928,-3793,-5,194,-4773,22,-44,-18,17
929,-3791,3,180,-4763,22,-43,-20,16
930,-3782,8,170,-4759,23,-43,-17,18
931,-3790,-7,190,-4765,22,-43,-18,17
932,-3784,1,191,-4768,22,-44,-19,17
933,-3782,-6,184,-4775,22,-45,-22,18
934,-3779,-17,188,-4777,22,-42,-20,17
935,-3789,10,199,-4776,22,-43,-17,16
936,-3787,5,191,-4772,22,-43,-21,17
937,-3797,0,169,-4763,22,-45,-20,17
938,-3791,-11,174,-4768,22,-44,-19,16
939,-3795,-17,185,-4768,22,-44,-19,17
940,-3803,-6,164,-4766,22,-43,-19,16
941,-3781,-13,190,-4764,22,-43,-18,16
942,-3797,-2,183,-4769,22,-44,-18,18
943,-3790,-3,186,-4769,22,-44,-18,17
944,-3797,-1,198,-4775,22,-45,-19,15
945,-3790,-4,190,-4767,22,-43,-21,17
946,-3780,-10,180,-4763,22,-43,-20,17
947,-3799,-13,198,-4777,22,-46,-20,17
948,-3779,-3,170,-4758,23,-43,-19,16
949,-3763,4,192,-4775,22,-45,-19,16
950,-3793,12,180,-4756,23,-45,-19,17
951,-3801,-5,183,-4770,22,-44,-19,18
952,-3796,-12,176,-4764,22,-45,-20,18
953,-3791,6,203,-4775,22,-45,-20,17
954,-3788,0,182,-4764,22,-44,-19,15
955,-3771,-9,208,-4773,22,-44,-17,18
956,-3785,-24,182,-4761,22,-43,-19,16
957,-3784,-12,188,-4768,22,-41,-19,16
958,-3786,-3,186,-4765,22,-46,-20,17
959,-3792,4,191,-4773,22,-44,-20,17
960,-3796,-12,177,-4766,22,-44,-19,17
961,-3783,-11,208,-4758,23,-43,-17,17
962,-3788,-6,197,-4770,22,-44,-19,16
963,-3788,0,200,-4764,22,-43,-20,16
964,-3799,-17,169,-4771,22,-44,-21,16
965,-3795,0,189,-4772,22,-43,-19,16
966,-3779,-12,179,-4771,22,-44,-18,17
967,-3784,-8,160,-4764,22,-41,-19,18
968,-3775,-3,190,-4773,22,-42,-18,16
969,-3790,-4,185,-4762,22,-46,-19,17
970,-3766,-11,163,-4767,22,-44,-19,19
971,-3785,-10,165,-4756,23,-44,-18,15
972,-3787,-1,188,-4767,22,-45,-20,17
973,-3775,-23,165,-4761,22,-44,-21,18
974,-3786,-6,215,-4768,22,-44,-19,17
975,-3787,-35,220,-4764,22,-44,-22,17
976,-3786,-8,183,-4761,22,-44,-19,16
977,-3787,-6,186,-4768,22,-44,-18,18
978,-3793,9,195,-4759,23,-45,-20,18
979,-3779,3,179,-4774,22,-44,-19,17
980,-3784,2,194,-4767,22,-44,-20,18
981,-3788,-4,193,-4761,22,-45,-20,18
982,-3770,-16,200,-4764,22,-45,-19,18
983,-3806,-15,183,-4768,22,-44,-19,17
984,-3805,4,196,-4767,22,-44,-19,16
985,-3803,-18,177,-4781,22,-45,-19,18
986,-3767,15,161,-4759,23,-42,-21,17
987,-3780,-4,184,-4768,22,-45,-19,15
988,-3798,-1,201,-4778,22,-43,-19,17
989,-3793,-14,186,-4766,22,-46,-19,16
990,-3800,-12,162,-4776,22,-44,-19,17
991,-3795,8,171,-4763,22,-44,-18,16
992,-3786,-14,185,-4762,22,-46,-17,15
993,-3802,-12,155,-4760,22,-41,-20,16
994,-3784,-4,184,-4758,23,-44,-19,17
995,-3793,2,190,-4770,22,-43,-22,18
