,acc_X,acc_Y,acc_Z,temp,tempC,gyr_X,gyr_Y,gyr_Z
0,-1896,-2,99,-4616,23,-44,-19,17
1,-1896,0,97,-4617,23,-44,-20,17
2,-1896,0,94,-4615,23,-44,-20,17
3,-1896,-2,95,-4616,23,-44,-20,17
4,-1896,1,98,-4613,23,-44,-20,17
5,-1896,1,97,-4611,23,-44,-20,17
6,-1896,1,99,-4612,23,-44,-20,17
7,-1895,2,97,-4610,23,-44,-20,17
8,-1895,1,95,-4612,23,-44,-20,17
9,-1895,1,92,-4612,23,-44,-20,17
10,-1895,-1,97,-4610,23,-44,-20,17
11,-1895,-3,95,-4612,23,-44,-20,17
12,-1895,-3,98,-4613,23,-44,-19,17
13,-1894,-2,95,-4614,23,-44,-19,16
14,-1894,-1,94,-4611,23,-44,-20,17
15,-1896,-1,92,-4612,23,-44,-20,17
16,-1895,-1,92,-4615,23,-43,-20,17
17,-1897,-2,95,-4615,23,-44,-20,17
18,-1895,-1,95,-4620,23,-44,-19,17
19,-1894,-3,91,-4614,23,-44,-19,17
20,-1895,-4,93,-4611,23,-44,-20,17
21,-1894,-2,92,-4612,23,-44,-20,17
22,-1895,-1,93,-4611,23,-44,-20,17
23,-1895,0,93,-4612,23,-44,-20,17
24,-1894,1,91,-4611,23,-44,-20,17
25,-1895,1,91,-4613,23,-44,-19,17
26,-1897,-1,93,-4615,23,-44,-19,17
27,-1895,-1,94,-4617,23,-44,-19,17
28,-1895,-2,94,-4618,23,-43,-19,16
29,-1894,-3,97,-4617,23,-44,-20,17
30,-1896,-3,94,-4614,23,-43,-20,17
31,-1895,-2,94,-4615,23,-43,-19,17
32,-1896,-2,95,-4613,23,-44,-19,17
33,-1896,-2,94,-4614,23,-44,-19,17
34,-1894,-2,97,-4611,23,-44,-19,18
35,-1895,-1,96,-4610,23,-44,-19,17
36,-1895,1,94,-4609,23,-44,-19,17
37,-1898,1,93,-4610,23,-44,-20,17
38,-1896,-1,90,-4612,23,-44,-20,17
39,-1895,-4,92,-4613,23,-45,-19,17
40,-1894,-5,96,-4614,23,-45,-19,18
41,-1895,-5,98,-4614,23,-44,-20,17
42,-1895,-4,94,-4615,23,-44,-20,17
43,-1896,-1,94,-4613,23,-43,-20,17
44,-1896,-3,94,-4614,23,-44,-19,16
45,-1896,-2,97,-4609,23,-44,-19,17
46,-1897,-2,98,-4609,23,-44,-19,17
47,-1897,-2,95,-4609,23,-44,-19,17
48,-1897,-1,96,-4611,23,-43,-20,17
49,-1893,-3,94,-4610,23,-44,-20,17
50,-1893,-3,93,-4611,23,-44,-20,17
51,-1893,-5,93,-4614,23,-44,-20,17
52,-1895,-7,94,-4614,23,-44,-20,17
53,-1896,-3,93,-4613,23,-43,-20,17
54,-1896,-3,93,-4611,23,-44,-20,17
55,-1899,-3,95,-4612,23,-44,-20,17
56,-1898,-4,96,-4613,23,-44,-20,17
57,-1896,-2,96,-4608,23,-44,-20,17
58,-1896,-4,95,-4610,23,-45,-19,17
59,-1896,-2,94,-4616,23,-44,-19,17
60,-1896,-2,95,-4614,23,-44,-19,17
61,-1895,-1,95,-4611,23,-44,-20,17
62,-1895,0,93,-4616,23,-44,-19,17
63,-1895,0,93,-4616,23,-44,-19,17
64,-1897,-1,93,-4611,23,-44,-19,17
65,-1893,-2,94,-4610,23,-44,-20,17
66,-1894,-2,93,-4611,23,-44,-20,17
67,-1895,0,93,-4611,23,-44,-19,17
68,-1894,-1,94,-4611,23,-44,-19,17
69,-1897,-2,93,-4613,23,-43,-20,17
70,-1896,-2,91,-4613,23,-44,-20,17
71,-1895,-3,94,-4614,23,-44,-20,17
72,-1894,-2,95,-4615,23,-44,-20,17
73,-1894,-2,93,-4615,23,-44,-20,17
74,-1895,-2,92,-4618,23,-44,-20,17
75,-1896,0,94,-4616,23,-44,-20,17
76,-1897,-1,96,-4614,23,-44,-20,17
77,-1896,-2,94,-4607,23,-44,-20,17
78,-1894,-1,96,-4610,23,-44,-19,17
79,-1896,-1,97,-4610,23,-44,-20,18
80,-1896,-2,92,-4614,23,-44,-19,17
81,-1894,-3,93,-4613,23,-44,-20,18
82,-1893,-1,88,-4616,23,-44,-20,18
83,-1894,0,92,-4619,23,-44,-20,18
84,-1896,-2,93,-4618,23,-44,-19,17
85,-1895,0,94,-4614,23,-44,-19,17
86,-1893,1,94,-4616,23,-44,-19,17
87,-1894,0,91,-4615,23,-44,-19,17
88,-1894,-2,91,-4615,23,-44,-20,17
89,-1895,-2,87,-4617,23,-45,-20,17
90,-1894,-4,89,-4615,23,-44,-20,17
91,-1897,-1,91,-4615,23,-44,-20,16
92,-1897,1,91,-4613,23,-44,-20,16
93,-1899,-1,90,-4612,23,-43,-20,17
94,-1898,-3,89,-4615,23,-43,-20,17
95,-1898,-1,87,-4616,23,-44,-20,17
96,-1897,-2,88,-4617,23,-44,-20,17
97,-1896,-3,91,-4620,23,-44,-20,17
98,-1895,-3,94,-4619,23,-44,-20,18
99,-1894,-4,96,-4616,23,-44,-20,18
100,-1893,-2,98,-4614,23,-44,-20,17
101,-1894,-4,93,-4616,23,-44,-20,17
102,-1895,-5,97,-4613,23,-44,-20,17
103,-1893,-3,98,-4611,23,-44,-20,17
104,-1892,-6,96,-4612,23,-44,-20,17
105,-1891,-5,93,-4612,23,-44,-20,17
106,-1892,-4,92,-4611,23,-44,-19,17
107,-1891,-3,93,-4612,23,-44,-19,17
108,-1895,-3,94,-4614,23,-44,-19,16
109,-1894,-2,91,-4616,23,-44,-19,16
110,-1898,-2,92,-4611,23,-44,-19,17
111,-1899,-3,95,-4613,23,-44,-19,17
112,-1897,-4,97,-4611,23,-44,-20,17
113,-1895,-5,97,-4613,23,-44,-20,17
114,-1893,-4,94,-4614,23,-44,-20,17
115,-1892,-1,94,-4616,23,-44,-20,17
116,-1892,1,96,-4615,23,-44,-20,17
117,-1892,0,96,-4613,23,-44,-20,17
118,-1895,-1,96,-4611,23,-44,-20,17
119,-1894,-2,92,-4611,23,-44,-19,17
120,-1896,0,92,-4612,23,-44,-19,17
121,-1895,-3,96,-4613,23,-44,-19,17
122,-1893,-3,93,-4614,23,-44,-19,17
123,-1893,-2,93,-4616,23,-44,-20,17
124,-1893,0,92,-4618,23,-43,-20,17
125,-1894,-2,94,-4618,23,-43,-20,17
126,-1894,-4,94,-4617,23,-44,-19,17
127,-1893,-5,92,-4616,23,-44,-19,17
128,-1893,-4,93,-4616,23,-44,-20,17
129,-1894,-4,96,-4618,23,-44,-19,17
130,-1897,-5,95,-4618,23,-44,-19,17
131,-1895,-2,93,-4617,23,-44,-19,17
132,-1894,-3,93,-4618,23,-44,-19,17
133,-1894,-3,91,-4617,23,-43,-20,17
134,-1895,-3,96,-4613,23,-44,-20,17
135,-1895,-3,94,-4618,23,-44,-20,17
136,-1892,-3,95,-4614,23,-44,-20,17
137,-1892,1,95,-4614,23,-44,-19,17
138,-1892,-1,96,-4612,23,-44,-20,17
139,-1891,-1,94,-4612,23,-44,-19,17
140,-1891,-3,95,-4615,23,-44,-20,17
141,-1892,-2,94,-4617,23,-44,-19,17
142,-1894,-3,93,-4616,23,-43,-19,17
143,-1895,-3,92,-4613,23,-44,-20,17
144,-1895,-3,90,-4617,23,-44,-20,17
145,-1893,-1,93,-4615,23,-44,-20,17
146,-1894,0,93,-4614,23,-44,-19,18
147,-1895,-2,92,-4612,23,-44,-19,17
148,-1896,-2,91,-4611,23,-43,-19,18
149,-1896,-1,91,-4611,23,-44,-20,17
150,-1895,-3,92,-4609,23,-44,-20,17
151,-1895,-1,96,-4608,23,-44,-20,17
152,-1894,-1,95,-4612,23,-44,-20,18
153,-1898,0,93,-4613,23,-44,-20,17
154,-1896,0,95,-4615,23,-44,-20,17
155,-1894,1,96,-4611,23,-44,-19,17
156,-1894,-2,94,-4611,23,-44,-20,17
157,-1895,-1,93,-4612,23,-44,-20,17
158,-1895,-1,90,-4616,23,-44,-19,17
159,-1895,-1,91,-4614,23,-44,-20,17
160,-1895,-2,90,-4612,23,-44,-19,17
161,-1895,-4,95,-4612,23,-44,-20,17
162,-1892,-2,96,-4611,23,-44,-20,17
163,-1892,-4,95,-4611,23,-44,-20,17
164,-1895,-3,94,-4612,23,-44,-20,17
165,-1895,-2,91,-4616,23,-45,-20,17
166,-1893,-1,93,-4617,23,-44,-20,17
167,-1895,-2,94,-4615,23,-44,-20,17
168,-1895,-2,94,-4611,23,-44,-20,17
169,-1895,-2,96,-4612,23,-44,-20,18
170,-1895,-3,94,-4612,23,-44,-20,17
171,-1896,-4,95,-4614,23,-44,-20,17
172,-1893,-5,96,-4614,23,-44,-19,17
173,-1894,-5,97,-4610,23,-44,-20,17
174,-1896,-6,93,-4611,23,-44,-20,17
175,-1894,-3,93,-4612,23,-44,-20,18
176,-1895,-4,94,-4610,23,-44,-20,18
177,-1893,-3,98,-4613,23,-44,-20,18
178,-1894,-3,98,-4613,23,-44,-20,17
179,-1895,-2,97,-4615,23,-44,-20,17
180,-1896,-3,94,-4613,23,-44,-20,17
181,-1894,-3,93,-4613,23,-43,-20,17
182,-1894,-3,93,-4612,23,-44,-20,17
183,-1894,-2,92,-4611,23,-44,-19,17
184,-1897,-3,96,-4612,23,-44,-19,17
185,-1896,-1,95,-4614,23,-44,-20,17
186,-1894,-1,96,-4612,23,-44,-20,16
187,-1896,-1,98,-4612,23,-44,-20,16
188,-1896,1,97,-4617,23,-44,-20,17
189,-1893,0,93,-4617,23,-44,-19,17
190,-1895,0,93,-4615,23,-44,-20,17
191,-1896,-2,93,-4614,23,-44,-19,17
192,-1895,-2,94,-4614,23,-44,-19,17
193,-1895,-3,91,-4616,23,-44,-20,17
194,-1895,-3,91,-4613,23,-44,-20,17
195,-1897,-5,93,-4614,23,-44,-20,17
196,-1896,-4,95,-4613,23,-44,-20,17
197,-1897,-3,95,-4615,23,-44,-20,17
198,-1898,-3,97,-4613,23,-44,-20,17
199,-1897,-3,95,-4615,23,-44,-20,18
200,-1899,-1,93,-4613,23,-44,-20,17
201,-1897,-3,95,-4614,23,-44,-20,18
202,-1898,0,97,-4612,23,-44,-20,17
203,-1895,-1,95,-4611,23,-44,-20,17
204,-1894,-2,93,-4612,23,-44,-20,17
205,-1896,-4,98,-4614,23,-44,-20,17
206,-1894,-2,99,-4616,23,-43,-20,17
207,-1895,-1,96,-4615,23,-43,-20,17
208,-1896,0,95,-4615,23,-43,-20,17
209,-1895,0,98,-4615,23,-44,-20,17
210,-1895,0,98,-4616,23,-44,-20,17
211,-1895,0,97,-4612,23,-43,-20,17
212,-1895,-2,93,-4613,23,-44,-20,17
213,-1895,-2,96,-4614,23,-44,-19,17
214,-1898,-4,98,-4614,23,-44,-20,17
215,-1898,-4,96,-4616,23,-43,-20,17
216,-1897,-1,96,-4615,23,-43,-19,17
217,-1897,-3,94,-4612,23,-43,-19,17
218,-1896,-3,92,-4611,23,-43,-20,17
219,-1896,-4,91,-4612,23,-44,-20,17
220,-1894,-2,94,-4612,23,-43,-20,16
221,-1895,-1,93,-4612,23,-43,-19,16
222,-1893,-3,95,-4614,23,-44,-19,17
223,-1893,-1,94,-4610,23,-44,-19,17
224,-1895,-1,95,-4611,23,-44,-20,17
225,-1895,-3,96,-4613,23,-45,-20,17
226,-1898,-2,92,-4610,23,-45,-20,17
227,-1896,-2,91,-4610,23,-44,-20,17
228,-1895,0,92,-4614,23,-44,-19,17
229,-1896,0,92,-4615,23,-44,-19,17
230,-1896,-3,94,-4614,23,-44,-19,17
231,-1895,-2,92,-4613,23,-44,-19,17
232,-1895,-2,90,-4616,23,-44,-20,17
233,-1897,-5,93,-4617,23,-44,-20,17
234,-1894,-2,94,-4617,23,-44,-20,17
235,-1893,-1,94,-4616,23,-44,-20,17
236,-1894,0,95,-4616,23,-44,-20,17
237,-1896,-1,93,-4616,23,-45,-20,17
238,-1896,-2,95,-4615,23,-44,-20,17
239,-1896,-2,92,-4616,23,-44,-20,17
240,-1894,-3,96,-4609,23,-44,-19,18
241,-1895,-3,95,-4609,23,-44,-20,17
242,-1896,-4,94,-4609,23,-44,-19,17
243,-1894,-2,93,-4611,23,-44,-19,17
244,-1893,-2,92,-4611,23,-44,-19,18
245,-1895,-3,93,-4612,23,-45,-20,17
246,-1898,-5,92,-4612,23,-44,-20,17
247,-1896,-5,91,-4615,23,-44,-20,16
248,-1897,-4,90,-4616,23,-44,-20,16
249,-1897,-3,93,-4613,23,-44,-20,16
250,-1898,-2,97,-4612,23,-44,-20,17
251,-1897,-1,92,-4610,23,-44,-19,17
252,-1895,0,96,-4609,23,-44,-19,17
253,-1896,0,97,-4607,23,-44,-19,17
254,-1897,0,96,-4609,23,-44,-19,17
255,-1895,-2,94,-4610,23,-44,-20,17
256,-1894,-4,96,-4611,23,-44,-20,17
257,-1895,-4,94,-4609,23,-44,-20,17
258,-1893,-3,95,-4611,23,-44,-20,17
259,-1895,-3,96,-4612,23,-44,-20,17
260,-1896,-4,93,-4613,23,-44,-20,17
261,-1896,-6,93,-4613,23,-44,-19,17
262,-1896,-5,93,-4616,23,-44,-19,17
263,-1896,-4,96,-4616,23,-44,-19,17
264,-1896,-3,95,-4617,23,-44,-19,17
265,-1897,-3,96,-4613,23,-44,-20,17
266,-1895,-2,93,-4613,23,-44,-19,17
267,-1894,1,94,-4613,23,-44,-20,17
268,-1895,1,96,-4613,23,-44,-20,17
269,-1896,1,94,-4613,23,-44,-19,17
270,-1895,-3,94,-4612,23,-44,-19,17
271,-1894,-4,96,-4609,23,-44,-20,17
272,-1894,-2,94,-4613,23,-44,-20,17
273,-1896,-3,94,-4611,23,-44,-20,17
274,-1894,-2,93,-4612,23,-44,-19,17
275,-1893,-3,94,-4610,23,-44,-19,17
276,-1896,-3,96,-4613,23,-43,-19,17
277,-1894,-2,94,-4611,23,-44,-20,17
278,-1892,0,96,-4611,23,-44,-20,17
279,-1895,-2,95,-4608,23,-44,-20,17
280,-1895,-2,94,-4612,23,-44,-19,17
281,-1894,-2,96,-4612,23,-45,-19,17
282,-1892,-1,97,-4610,23,-44,-19,17
283,-1891,-2,99,-4612,23,-45,-19,17
284,-1892,-2,98,-4610,23,-45,-19,17
285,-1893,-2,91,-4610,23,-45,-20,17
286,-1892,0,93,-4612,23,-44,-19,17
287,-1893,0,94,-4612,23,-44,-19,17
288,-1894,1,94,-4614,23,-44,-20,17
289,-1894,-1,98,-4615,23,-44,-20,17
290,-1893,-2,96,-4613,23,-44,-20,17
291,-1894,-2,96,-4612,23,-43,-20,16
292,-1895,-1,94,-4610,23,-44,-20,17
293,-1891,0,94,-4610,23,-44,-20,17
294,-1891,-1,92,-4612,23,-44,-20,17
295,-1893,0,93,-4614,23,-44,-19,17
296,-1895,1,95,-4611,23,-44,-19,17
297,-1896,0,97,-4611,23,-44,-19,17
298,-1893,-3,95,-4614,23,-44,-19,17
299,-1894,-1,93,-4610,23,-44,-20,17
300,-1893,-2,93,-4611,23,-44,-19,16
301,-1894,-1,93,-4614,23,-44,-19,17
302,-1895,0,95,-4615,23,-44,-19,17
303,-1897,1,91,-4614,23,-44,-19,18
304,-1895,0,90,-4610,23,-44,-19,17
305,-1894,0,91,-4612,23,-44,-19,17
306,-1894,-1,93,-4612,23,-44,-19,17
307,-1894,-1,95,-4610,23,-44,-20,18
308,-1896,-2,95,-4612,23,-44,-20,18
309,-1895,-3,93,-4614,23,-44,-20,18
310,-1895,-3,92,-4616,23,-44,-19,18
311,-1895,-2,92,-4611,23,-44,-19,17
312,-1895,-3,92,-4610,23,-44,-19,17
313,-1893,-3,93,-4612,23,-44,-18,17
314,-1896,-2,94,-4611,23,-44,-19,17
315,-1896,-1,96,-4609,23,-43,-19,17
316,-1896,-1,91,-4610,23,-44,-20,17
317,-1895,0,94,-4610,23,-44,-19,17
318,-1896,-1,94,-4611,23,-44,-19,17
319,-1894,1,93,-4612,23,-44,-20,17
320,-1893,-2,96,-4612,23,-44,-19,17
321,-1894,-3,96,-4612,23,-44,-19,17
322,-1896,-3,95,-4610,23,-44,-20,17
323,-1898,-2,95,-4613,23,-44,-20,16
324,-1898,-3,98,-4612,23,-44,-20,16
325,-1896,-3,99,-4613,23,-44,-19,17
326,-1895,-2,97,-4613,23,-44,-19,17
327,-1894,-1,99,-4612,23,-44,-19,17
328,-1897,-1,96,-4614,23,-44,-20,17
329,-1898,1,95,-4617,23,-44,-20,17
330,-1896,1,94,-4617,23,-44,-20,17
331,-1895,0,93,-4615,23,-44,-20,17
332,-1891,0,91,-4614,23,-44,-19,17
333,-1891,-1,91,-4616,23,-44,-19,17
334,-1894,-1,95,-4615,23,-44,-20,17
335,-1895,0,92,-4614,23,-44,-20,17
336,-1899,0,89,-4615,23,-44,-19,17
337,-1900,-2,90,-4615,23,-44,-20,16
338,-1898,-2,92,-4616,23,-44,-20,16
339,-1896,-2,95,-4616,23,-44,-20,17
340,-1894,0,96,-4614,23,-44,-20,17
341,-1896,-3,94,-4615,23,-44,-20,17
342,-1897,-2,96,-4612,23,-44,-20,17
343,-1897,-2,94,-4611,23,-44,-20,17
344,-1895,-3,98,-4609,23,-44,-20,17
345,-1895,0,94,-4608,23,-44,-19,17
346,-1894,0,93,-4613,23,-44,-19,17
347,-1893,-1,94,-4615,23,-44,-19,17
348,-1893,-2,96,-4613,23,-44,-19,17
349,-1895,-1,94,-4613,23,-44,-19,17
350,-1895,-1,93,-4612,23,-44,-19,17
351,-1895,-1,93,-4614,23,-44,-19,17
352,-1897,-2,92,-4613,23,-44,-19,17
353,-1896,0,92,-4616,23,-44,-19,18
354,-1898,0,90,-4614,23,-44,-19,17
355,-1896,-3,91,-4613,23,-44,-20,17
356,-1898,-3,94,-4611,23,-44,-20,18
357,-1899,0,93,-4611,23,-44,-20,17
358,-1899,-2,95,-4612,23,-44,-20,17
359,-1901,-2,94,-4610,23,-44,-20,17
360,-1899,-2,93,-4609,23,-43,-20,17
361,-1895,-2,91,-4613,23,-43,-20,17
362,-1893,-2,94,-4614,23,-44,-20,17
363,-1891,-3,92,-4615,23,-44,-20,17
364,-1892,-3,95,-4615,23,-44,-20,17
365,-1895,-3,98,-4613,23,-44,-20,17
366,-1896,-3,97,-4609,23,-44,-20,17
367,-1896,-3,96,-4610,23,-44,-20,17
368,-1897,-1,96,-4611,23,-44,-20,17
369,-1898,-2,95,-4612,23,-44,-19,17
370,-1897,-3,93,-4609,23,-44,-20,17
371,-1897,-6,92,-4608,23,-44,-20,17
372,-1896,-4,95,-4607,23,-44,-19,17
373,-1898,-2,96,-4612,23,-44,-19,17
374,-1894,-1,98,-4613,23,-44,-19,17
375,-1896,1,95,-4612,23,-44,-19,17
376,-1895,1,99,-4613,23,-44,-19,17
377,-1895,0,99,-4611,23,-44,-19,17
378,-1894,0,99,-4608,23,-44,-20,17
379,-1897,-3,100,-4612,23,-44,-21,17
380,-1896,-4,98,-4612,23,-44,-20,17
381,-1894,-3,97,-4612,23,-44,-20,17
382,-1895,-1,93,-4614,23,-44,-20,17
383,-1895,-1,93,-4612,23,-44,-20,17
384,-1895,-2,94,-4614,23,-44,-20,17
385,-1894,-1,96,-4614,23,-44,-20,17
386,-1896,0,95,-4617,23,-44,-21,17
387,-1894,-2,93,-4611,23,-44,-20,17
388,-1894,-1,92,-4611,23,-44,-20,17
389,-1892,-2,90,-4608,23,-44,-20,17
390,-1893,-1,89,-4610,23,-44,-20,17
391,-1894,-2,91,-4612,23,-44,-20,17
392,-1895,3,91,-4612,23,-44,-20,17
393,-1896,2,90,-4613,23,-44,-20,17
394,-1896,0,93,-4611,23,-43,-20,17
395,-1896,1,90,-4610,23,-44,-20,16
396,-1896,0,89,-4612,23,-44,-20,17
397,-1896,0,89,-4612,23,-44,-20,17
398,-1896,-1,88,-4613,23,-44,-19,16
399,-1896,1,92,-4611,23,-44,-19,17
400,-1897,3,91,-4612,23,-44,-19,17
401,-1896,0,92,-4616,23,-45,-20,17
402,-1896,0,93,-4614,23,-43,-19,18
403,-1897,-2,92,-4612,23,-44,-19,17
404,-1896,-2,93,-4612,23,-44,-19,17
405,-1895,-3,92,-4614,23,-44,-19,17
406,-1895,-3,92,-4614,23,-44,-19,17
407,-1895,-3,91,-4614,23,-44,-20,17
408,-1895,-2,95,-4612,23,-44,-20,17
409,-1895,0,91,-4608,23,-44,-19,18
410,-1897,1,94,-4609,23,-44,-20,18
411,-1896,-1,92,-4607,23,-44,-20,18
412,-1896,-2,95,-4608,23,-45,-19,17
413,-1896,-2,95,-4611,23,-44,-20,17
414,-1893,-3,96,-4611,23,-44,-19,16
415,-1893,-2,91,-4609,23,-44,-19,17
416,-1894,-3,92,-4609,23,-44,-19,17
417,-1893,0,92,-4609,23,-44,-20,17
418,-1897,0,93,-4609,23,-44,-20,17
419,-1897,-2,94,-4614,23,-44,-20,17
420,-1897,-3,91,-4614,23,-44,-20,17
421,-1896,-2,94,-4616,23,-44,-19,17
422,-1895,0,94,-4614,23,-44,-19,17
423,-1896,-2,97,-4610,23,-43,-19,17
424,-1895,-2,95,-4608,23,-43,-19,17
425,-1894,-1,95,-4609,23,-43,-19,17
426,-1894,-1,91,-4610,23,-43,-20,16
427,-1896,-2,91,-4611,23,-43,-19,17
428,-1895,-1,92,-4614,23,-44,-19,16
429,-1895,-2,91,-4615,23,-44,-20,17
430,-1893,-1,94,-4615,23,-44,-19,17
431,-1893,-3,91,-4614,23,-44,-20,17
432,-1893,-3,90,-4616,23,-43,-20,17
433,-1896,-3,93,-4615,23,-44,-20,17
434,-1894,-4,95,-4612,23,-44,-20,17
435,-1893,-2,94,-4610,23,-44,-20,18
436,-1894,0,93,-4611,23,-44,-20,18
437,-1896,-2,94,-4614,23,-44,-20,18
438,-1897,-3,90,-4614,23,-44,-20,18
439,-1897,-1,93,-4611,23,-44,-19,17
440,-1894,1,90,-4610,23,-44,-19,17
441,-1895,0,88,-4613,23,-43,-19,17
442,-1896,0,87,-4612,23,-43,-19,17
443,-1894,-1,89,-4611,23,-44,-20,17
444,-1893,-2,93,-4614,23,-44,-19,18
445,-1893,-2,98,-4615,23,-44,-19,18
446,-1893,0,96,-4616,23,-44,-19,18
447,-1893,-1,96,-4614,23,-44,-21,17
448,-1894,-2,94,-4616,23,-45,-20,17
449,-1896,-2,96,-4613,23,-44,-20,17
450,-1893,-1,96,-4612,23,-44,-20,17
451,-1892,-1,98,-4613,23,-44,-20,17
452,-1892,-1,100,-4611,23,-44,-20,17
453,-1896,0,95,-4608,23,-44,-20,17
454,-1898,1,97,-4605,23,-44,-20,17
455,-1896,-1,98,-4605,23,-43,-20,17
456,-1895,0,97,-4609,23,-44,-20,17
457,-1895,-1,94,-4612,23,-44,-20,17
458,-1898,-2,96,-4614,23,-44,-19,17
459,-1897,-2,93,-4611,23,-44,-20,17
460,-1896,-2,92,-4612,23,-44,-20,17
461,-1895,-1,93,-4614,23,-44,-19,17
462,-1895,-2,93,-4613,23,-44,-20,17
463,-1895,-3,90,-4614,23,-44,-20,17
464,-1896,-3,93,-4615,23,-44,-20,17
465,-1896,-2,97,-4613,23,-44,-20,17
466,-1895,-2,94,-4612,23,-44,-20,18
467,-1896,-2,93,-4613,23,-44,-20,17
468,-1897,-2,95,-4610,23,-44,-20,18
469,-1895,-3,97,-4613,23,-44,-20,17
470,-1894,0,97,-4610,23,-44,-20,17
471,-1893,-1,95,-4612,23,-44,-20,17
472,-1894,0,95,-4609,23,-44,-19,17
473,-1894,-3,92,-4612,23,-44,-19,17
474,-1893,-2,91,-4612,23,-44,-19,17
475,-1892,-4,90,-4611,23,-43,-20,17
476,-1893,-2,88,-4612,23,-44,-19,18
477,-1894,-2,91,-4613,23,-44,-20,18
478,-1897,-1,95,-4613,23,-44,-19,17
479,-1896,-3,95,-4612,23,-44,-19,17
480,-1898,-2,93,-4611,23,-44,-19,17
481,-1898,-2,92,-4611,23,-44,-19,17
482,-1897,-2,95,-4614,23,-45,-19,17
483,-1897,-2,96,-4610,23,-44,-19,17
484,-1895,-1,96,-4611,23,-44,-20,17
485,-1895,-1,93,-4612,23,-44,-19,17
486,-1894,0,92,-4610,23,-44,-20,16
487,-1896,0,91,-4614,23,-44,-20,16
488,-1895,-1,94,-4613,23,-44,-20,17
489,-1892,-1,93,-4615,23,-44,-20,17
490,-1893,-1,95,-4612,23,-44,-20,17
491,-1895,0,95,-4609,23,-44,-19,17
492,-1894,0,93,-4610,23,-44,-19,17
493,-1893,-1,94,-4612,23,-45,-19,17
494,-1894,-2,95,-4608,23,-44,-20,17
495,-1895,-3,95,-4610,23,-45,-20,17
496,-1894,-2,96,-4610,23,-44,-20,17
497,-1895,-3,97,-4608,23,-45,-20,17
498,-1894,-1,96,-4607,23,-44,-20,17
499,-1894,-1,96,-4607,23,-44,-20,17
500,-1896,0,94,-4609,23,-44,-20,17
501,-1897,-2,91,-4612,23,-44,-21,17
502,-1896,-1,92,-4609,23,-44,-20,17
503,-1896,-3,92,-4610,23,-44,-20,17
504,-1895,-3,93,-4613,23,-44,-19,17
505,-1893,-3,94,-4609,23,-44,-20,17
506,-1893,-2,93,-4610,23,-44,-20,16
507,-1895,-3,95,-4609,23,-44,-20,17
508,-1895,-3,97,-4609,23,-45,-19,17
509,-1896,-2,95,-4611,23,-44,-20,17
510,-1894,-1,91,-4609,23,-44,-19,17
511,-1893,-2,91,-4611,23,-44,-20,17
512,-1893,-5,91,-4608,23,-44,-20,17
513,-1893,-5,89,-4609,23,-44,-20,18
514,-1893,-5,91,-4611,23,-44,-20,17
515,-1893,-6,92,-4608,23,-44,-20,17
516,-1894,-3,92,-4609,23,-44,-20,17
517,-1896,-2,92,-4604,23,-44,-19,17
518,-1897,-3,94,-4605,23,-44,-20,17
519,-1897,0,96,-4606,23,-44,-20,17
520,-1898,-1,93,-4605,23,-44,-20,17
521,-1895,-1,96,-4605,23,-44,-20,16
522,-1895,-2,97,-4606,23,-44,-21,17
523,-1895,-1,96,-4608,23,-44,-20,17
524,-1896,1,99,-4610,23,-44,-20,17
525,-1896,-1,96,-4609,23,-44,-20,17
526,-1898,-2,96,-4611,23,-44,-20,17
527,-1899,-2,94,-4610,23,-44,-20,17
528,-1897,-3,94,-4610,23,-44,-20,17
529,-1897,-3,94,-4610,23,-44,-19,17
530,-1896,-6,93,-4609,23,-44,-20,16
531,-1896,-5,91,-4607,23,-43,-19,17
532,-1898,-4,93,-4609,23,-43,-20,17
533,-1896,-3,94,-4608,23,-44,-19,17
534,-1894,-5,95,-4609,23,-43,-20,17
535,-1895,-5,94,-4608,23,-44,-20,17
536,-1897,-4,93,-4610,23,-44,-20,17
537,-1897,-3,94,-4612,23,-44,-20,17
538,-1896,-3,95,-4612,23,-44,-20,16
539,-1895,-3,94,-4610,23,-44,-20,16
540,-1897,-2,94,-4612,23,-44,-20,17
541,-1895,0,92,-4608,23,-44,-20,17
542,-1896,1,92,-4608,23,-43,-20,17
543,-1896,-3,90,-4607,23,-43,-20,17
544,-1898,-3,92,-4609,23,-44,-20,17
545,-1897,-4,93,-4607,23,-44,-20,17
546,-1899,-5,94,-4612,23,-44,-20,17
547,-1897,-3,96,-4607,23,-44,-20,17
548,-1896,-2,97,-4606,23,-44,-20,17
549,-1894,-2,96,-4603,23,-44,-20,17
550,-1893,-4,93,-4603,23,-44,-20,17
551,-1896,-5,93,-4604,23,-43,-20,17
552,-1895,-1,96,-4601,23,-44,-19,17
553,-1896,-1,94,-4605,23,-43,-20,17
554,-1895,-3,93,-4606,23,-44,-20,17
555,-1893,-3,97,-4609,23,-44,-20,17
556,-1892,-1,94,-4610,23,-44,-20,17
557,-1894,0,92,-4606,23,-44,-20,17
558,-1892,1,93,-4607,23,-44,-20,17
559,-1892,-2,93,-4608,23,-44,-19,17
560,-1895,1,93,-4609,23,-44,-20,17
561,-1895,1,93,-4608,23,-44,-20,17
562,-1895,-2,93,-4611,23,-44,-19,17
563,-1897,-2,96,-4608,23,-44,-19,16
564,-1895,-1,95,-4608,23,-44,-19,17
565,-1896,1,96,-4611,23,-45,-20,17
566,-1894,-1,98,-4609,23,-44,-20,17
567,-1894,-2,94,-4608,23,-44,-20,18
568,-1895,-2,94,-4609,23,-44,-20,17
569,-1895,0,97,-4610,23,-44,-20,18
570,-1893,0,92,-4611,23,-44,-19,17
571,-1893,0,90,-4609,23,-44,-19,17
572,-1895,1,90,-4609,23,-44,-20,17
573,-1895,-1,91,-4611,23,-44,-19,17
574,-1896,-1,92,-4614,23,-44,-19,17
575,-1896,0,91,-4612,23,-44,-20,17
576,-1896,-1,92,-4609,23,-44,-19,17
577,-1896,-3,94,-4608,23,-44,-20,17
578,-1895,-1,94,-4604,23,-44,-20,17
579,-1896,1,93,-4608,23,-44,-20,17
580,-1896,0,95,-4611,23,-44,-20,17
581,-1896,-2,96,-4612,23,-44,-20,17
582,-1895,-3,97,-4609,23,-43,-19,17
583,-1894,0,97,-4610,23,-43,-19,17
584,-1895,0,98,-4609,23,-43,-20,17
585,-1897,-1,96,-4609,23,-44,-20,17
586,-1898,-1,95,-4608,23,-44,-20,17
587,-1897,-2,94,-4611,23,-44,-20,17
588,-1897,-3,96,-4607,23,-44,-20,17
589,-1898,-4,95,-4605,23,-44,-20,17
590,-1897,-2,95,-4608,23,-44,-20,17
591,-1897,-3,94,-4608,23,-44,-20,17
592,-1896,-5,94,-4608,23,-44,-19,17
593,-1897,-4,95,-4605,23,-44,-20,17
594,-1896,-3,97,-4603,23,-44,-20,17
595,-1896,-1,96,-4603,23,-44,-20,17
596,-1896,-3,93,-4605,23,-44,-20,17
597,-1894,-1,96,-4606,23,-44,-20,17
598,-1891,-2,92,-4608,23,-44,-20,17
599,-1895,-3,92,-4608,23,-44,-20,17
600,-1897,-3,93,-4607,23,-45,-20,17
601,-1896,-3,90,-4609,23,-44,-20,17
602,-1896,-3,92,-4609,23,-44,-20,17
603,-1894,-5,92,-4608,23,-44,-20,17
604,-1895,-4,97,-4606,23,-44,-19,17
605,-1894,-4,97,-4608,23,-44,-20,17
606,-1892,-2,94,-4609,23,-44,-20,17
607,-1893,-3,97,-4611,23,-45,-20,17
608,-1894,-2,95,-4608,23,-45,-20,17
609,-1894,-2,94,-4608,23,-44,-20,17
610,-1895,-3,93,-4608,23,-44,-20,17
611,-1894,-2,90,-4609,23,-44,-20,17
612,-1895,-2,92,-4608,23,-44,-20,17
613,-1893,0,92,-4609,23,-44,-20,17
614,-1893,0,96,-4606,23,-44,-20,18
615,-1895,1,94,-4608,23,-44,-20,18
616,-1897,-1,95,-4608,23,-44,-20,17
617,-1895,-4,96,-4612,23,-44,-20,17
618,-1894,-3,94,-4615,23,-45,-20,17
619,-1896,-3,93,-4612,23,-45,-20,17
620,-1897,-4,93,-4613,23,-44,-20,17
621,-1894,-3,93,-4609,23,-44,-19,17
622,-1895,-1,96,-4607,23,-44,-19,17
623,-1894,-1,94,-4607,23,-44,-19,17
624,-1894,-3,97,-4609,23,-44,-20,17
625,-1893,-4,96,-4611,23,-44,-20,17
626,-1894,-4,95,-4608,23,-44,-20,17
627,-1897,-2,93,-4606,23,-44,-19,17
628,-1898,-3,93,-4607,23,-44,-20,17
629,-1894,-3,93,-4610,23,-44,-20,17
630,-1895,-2,93,-4610,23,-44,-21,17
631,-1897,-3,93,-4610,23,-44,-20,17
632,-1897,-3,90,-4608,23,-44,-21,17
633,-1895,-3,93,-4608,23,-44,-20,17
634,-1898,-3,90,-4612,23,-44,-19,17
635,-1897,-4,93,-4610,23,-44,-20,18
636,-1893,-3,100,-4610,23,-44,-20,18
637,-1893,-3,97,-4611,23,-44,-20,18
638,-1894,-4,94,-4609,23,-44,-19,17
639,-1895,-1,91,-4607,23,-44,-19,17
640,-1896,0,92,-4607,23,-44,-20,17
641,-1894,-1,90,-4610,23,-43,-20,17
642,-1895,-1,92,-4606,23,-44,-20,17
643,-1896,0,91,-4606,23,-44,-19,17
644,-1895,1,91,-4609,23,-44,-20,17
645,-1895,0,93,-4606,23,-44,-20,17
646,-1897,0,94,-4604,23,-44,-21,17
647,-1896,-3,93,-4609,23,-44,-20,17
648,-1896,-1,96,-4608,23,-44,-20,17
649,-1896,-3,98,-4606,23,-44,-20,17
650,-1896,-3,97,-4605,23,-44,-20,17
651,-1896,-4,96,-4609,23,-43,-20,17
652,-1896,-6,94,-4610,23,-43,-20,17
653,-1894,-6,95,-4609,23,-43,-20,18
654,-1892,-8,97,-4609,23,-44,-19,17
655,-1894,-5,95,-4608,23,-44,-19,17
656,-1893,-4,95,-4610,23,-43,-20,17
657,-1893,-2,95,-4608,23,-44,-20,17
658,-1894,-2,92,-4610,23,-44,-19,17
659,-1894,0,93,-4606,23,-44,-19,17
660,-1894,-1,91,-4605,23,-44,-20,17
661,-1895,-1,91,-4611,23,-43,-19,17
662,-1894,-2,93,-4608,23,-43,-19,16
663,-1892,0,92,-4607,23,-44,-19,17
664,-1892,-1,95,-4606,23,-44,-20,17
665,-1890,-1,96,-4607,23,-44,-20,17
666,-1890,-2,93,-4609,23,-44,-19,17
667,-1892,-3,93,-4604,23,-44,-20,17
668,-1894,-2,95,-4603,23,-44,-19,17
669,-1894,-1,97,-4605,23,-44,-20,17
670,-1894,-1,98,-4610,23,-44,-20,17
671,-1895,-2,95,-4607,23,-44,-20,17
672,-1897,-1,93,-4609,23,-44,-20,17
673,-1895,0,97,-4611,23,-44,-20,17
674,-1895,-1,96,-4613,23,-44,-20,17
675,-1895,-2,95,-4610,23,-44,-20,17
676,-1894,-3,91,-4608,23,-44,-20,17
677,-1894,-1,94,-4609,23,-44,-20,17
678,-1894,0,94,-4608,23,-44,-21,17
679,-1896,0,92,-4608,23,-43,-20,17
680,-1896,-1,92,-4607,23,-43,-20,17
681,-1895,-2,94,-4607,23,-44,-20,17
682,-1895,-1,95,-4608,23,-44,-20,17
683,-1894,-2,94,-4607,23,-44,-20,17
684,-1894,-2,97,-4604,23,-43,-20,17
685,-1896,-2,94,-4604,23,-43,-20,17
686,-1895,-1,97,-4604,23,-43,-20,17
687,-1894,-1,95,-4605,23,-44,-20,17
688,-1896,0,95,-4606,23,-44,-19,17
689,-1895,-1,96,-4604,23,-44,-20,17
690,-1893,-2,95,-4605,23,-45,-20,16
691,-1895,-4,95,-4606,23,-45,-20,17
692,-1894,-3,93,-4606,23,-45,-19,17
693,-1895,-2,93,-4609,23,-44,-19,17
694,-1896,0,93,-4610,23,-44,-20,17
695,-1894,-1,94,-4607,23,-44,-20,16
696,-1895,-2,95,-4607,23,-44,-20,17
697,-1897,-2,95,-4609,23,-44,-20,17
698,-1895,-4,94,-4606,23,-44,-20,17
699,-1894,-4,96,-4608,23,-44,-20,17
700,-1894,-4,94,-4609,23,-44,-20,17
701,-1896,-3,94,-4607,23,-44,-19,17
702,-1896,-2,91,-4604,23,-44,-19,17
703,-1896,-2,93,-4604,23,-44,-20,16
704,-1896,-2,93,-4605,23,-44,-20,17
705,-1897,-3,95,-4608,23,-44,-20,17
706,-1897,-2,95,-4609,23,-44,-20,17
707,-1895,-2,91,-4613,23,-44,-20,17
708,-1893,-2,92,-4613,23,-45,-20,17
709,-1892,-2,93,-4615,23,-44,-19,17
710,-1893,-2,92,-4614,23,-44,-20,17
711,-1895,-2,92,-4611,23,-44,-20,16
712,-1895,-3,92,-4606,23,-44,-21,16
713,-1895,-4,93,-4607,23,-44,-20,17
714,-1893,-4,94,-4607,23,-43,-20,17
715,-1895,-3,96,-4608,23,-44,-20,17
716,-1895,-4,95,-4609,23,-44,-20,17
717,-1894,-3,94,-4611,23,-44,-20,17
718,-1894,-3,91,-4612,23,-44,-20,17
719,-1894,0,88,-4608,23,-44,-20,17
720,-1894,-1,92,-4606,23,-44,-19,17
721,-1894,-1,96,-4604,23,-43,-19,17
722,-1894,-2,95,-4603,23,-44,-19,17
723,-1895,-2,94,-4604,23,-45,-20,17
724,-1897,-3,94,-4605,23,-44,-20,18
725,-1897,-4,96,-4603,23,-44,-20,17
726,-1896,-2,95,-4604,23,-44,-20,17
727,-1893,-2,92,-4608,23,-44,-20,18
728,-1891,-3,95,-4605,23,-44,-20,17
729,-1893,-3,94,-4602,23,-45,-19,18
730,-1893,-3,92,-4603,23,-44,-20,17
731,-1894,-1,91,-4605,23,-44,-20,17
732,-1895,-2,90,-4603,23,-44,-20,17
733,-1895,-1,90,-4602,23,-44,-20,17
734,-1895,-3,88,-4603,23,-44,-20,17
735,-1895,-4,87,-4606,23,-44,-20,17
736,-1894,-1,93,-4606,23,-44,-21,17
737,-1894,-1,93,-4607,23,-44,-21,17
738,-1893,-2,92,-4605,23,-44,-20,17
739,-1894,-2,97,-4606,23,-45,-20,17
740,-1896,-4,92,-4606,23,-44,-20,17
741,-1894,-6,93,-4608,23,-44,-20,17
742,-1895,-5,96,-4607,23,-44,-20,16
743,-1894,-4,95,-4607,23,-44,-20,17
744,-1896,-4,96,-4605,23,-44,-20,17
745,-1895,-2,91,-4609,23,-44,-19,17
746,-1894,0,91,-4606,23,-44,-19,17
747,-1894,0,93,-4609,23,-44,-20,17
748,-1895,-1,91,-4607,23,-44,-20,17
749,-1892,-1,91,-4609,23,-44,-20,17
750,-1896,-4,89,-4609,23,-44,-19,17
751,-1894,-4,89,-4608,23,-44,-19,17
752,-1895,-2,93,-4605,23,-44,-19,17
753,-1897,-1,96,-4605,23,-44,-19,17
754,-1897,-2,94,-4601,23,-44,-20,17
755,-1896,-1,96,-4605,23,-44,-20,17
756,-1894,0,94,-4608,23,-44,-19,17
757,-1894,1,94,-4607,23,-44,-19,17
758,-1895,0,96,-4608,23,-44,-20,17
759,-1895,-1,94,-4607,23,-44,-20,17
760,-1896,-1,95,-4605,23,-44,-19,17
761,-1896,-1,92,-4607,23,-44,-20,16
762,-1896,-3,91,-4608,23,-44,-20,16
763,-1898,-5,92,-4609,23,-44,-20,17
764,-1894,-2,94,-4608,23,-44,-20,17
765,-1894,-2,91,-4607,23,-44,-20,17
766,-1892,-4,89,-4607,23,-44,-19,17
767,-1892,-3,87,-4606,23,-44,-20,17
768,-1894,-3,89,-4606,23,-44,-20,17
769,-1892,-3,92,-4609,23,-44,-20,17
770,-1894,-3,92,-4610,23,-45,-20,17
771,-1894,-2,92,-4608,23,-44,-20,17
772,-1894,0,94,-4607,23,-44,-20,17
773,-1896,-1,91,-4607,23,-43,-19,17
774,-1894,-3,93,-4606,23,-44,-19,17
775,-1895,-3,94,-4609,23,-44,-20,17
776,-1895,-3,93,-4609,23,-44,-20,17
777,-1898,-2,93,-4606,23,-44,-20,17
778,-1899,-2,95,-4607,23,-44,-20,17
779,-1897,-1,94,-4607,23,-44,-20,17
780,-1894,-3,94,-4608,23,-44,-20,17
781,-1895,-4,91,-4608,23,-44,-20,17
782,-1895,-4,91,-4605,23,-44,-20,17
783,-1896,-1,93,-4605,23,-44,-20,16
784,-1895,-4,93,-4605,23,-44,-20,17
785,-1895,-2,93,-4610,23,-44,-19,17
786,-1895,0,91,-4613,23,-44,-19,17
787,-1893,-1,89,-4610,23,-44,-20,17
788,-1892,-2,91,-4609,23,-44,-20,17
789,-1894,-1,94,-4608,23,-44,-19,17
790,-1895,-2,95,-4608,23,-44,-20,17
791,-1896,-1,97,-4607,23,-44,-20,17
792,-1896,1,100,-4609,23,-44,-20,17
793,-1896,0,98,-4609,23,-44,-20,17
794,-1895,-1,97,-4609,23,-44,-20,17
795,-1898,-1,96,-4607,23,-44,-20,17
796,-1898,-1,95,-4606,23,-44,-20,17
797,-1898,-2,95,-4602,23,-44,-20,17
798,-1898,-2,93,-4602,23,-44,-20,17
799,-1896,-1,88,-4602,23,-44,-19,17
800,-1894,-3,89,-4608,23,-43,-20,17
801,-1895,-2,91,-4606,23,-44,-19,17
802,-1893,-1,90,-4605,23,-44,-20,17
803,-1894,-2,91,-4607,23,-44,-20,17
804,-1895,-2,94,-4608,23,-44,-20,17
805,-1895,-4,97,-4609,23,-44,-20,17
806,-1894,-3,95,-4607,23,-44,-19,17
807,-1895,-4,97,-4605,23,-44,-20,17
808,-1894,-2,94,-4605,23,-44,-20,17
809,-1895,-3,96,-4602,23,-44,-20,17
810,-1894,-2,94,-4604,23,-44,-20,17
811,-1896,-1,99,-4605,23,-44,-20,17
812,-1897,1,98,-4606,23,-44,-19,17
813,-1897,-1,96,-4607,23,-44,-19,17
814,-1896,-2,95,-4605,23,-44,-19,17
815,-1895,-2,94,-4606,23,-44,-20,17
816,-1896,-3,94,-4607,23,-44,-20,17
817,-1896,-3,93,-4608,23,-44,-20,17
818,-1896,-1,91,-4608,23,-44,-20,17
819,-1896,-1,94,-4607,23,-44,-20,17
820,-1896,-1,91,-4605,23,-44,-20,18
821,-1895,1,94,-4606,23,-44,-20,17
822,-1894,1,91,-4605,23,-43,-20,17
823,-1895,-1,92,-4606,23,-43,-20,17
824,-1895,-1,92,-4606,23,-44,-19,17
825,-1894,-2,92,-4607,23,-44,-19,17
826,-1894,0,93,-4603,23,-44,-20,17
827,-1894,0,94,-4606,23,-44,-20,18
828,-1893,0,91,-4607,23,-44,-20,18
829,-1895,0,91,-4606,23,-44,-19,17
830,-1893,0,90,-4606,23,-44,-19,17
831,-1892,-1,91,-4601,23,-44,-19,17
832,-1892,0,90,-4604,23,-44,-19,17
833,-1893,0,90,-4603,23,-44,-19,17
834,-1893,-1,93,-4603,23,-44,-19,17
835,-1894,0,95,-4606,23,-44,-20,17
836,-1896,0,93,-4606,23,-44,-19,17
837,-1896,-1,93,-4607,23,-43,-20,17
838,-1895,-1,91,-4602,23,-43,-20,18
839,-1896,-1,93,-4604,23,-43,-20,17
840,-1895,-2,91,-4606,23,-43,-19,18
841,-1894,-2,90,-4607,23,-44,-20,17
842,-1894,-2,89,-4607,23,-44,-20,17
843,-1895,-1,93,-4605,23,-44,-20,18
844,-1897,1,91,-4603,23,-44,-20,17
845,-1896,-3,92,-4606,23,-44,-20,17
846,-1895,-1,92,-4608,23,-44,-19,17
847,-1896,-2,96,-4605,23,-44,-19,17
848,-1895,-1,96,-4604,23,-44,-20,17
849,-1895,0,95,-4603,23,-44,-20,17
850,-1895,1,92,-4605,23,-44,-19,17
851,-1896,-1,91,-4604,23,-44,-19,17
852,-1897,-2,93,-4604,23,-45,-19,17
853,-1897,0,95,-4604,23,-44,-19,17
854,-1896,-2,94,-4601,23,-44,-20,17
855,-1893,-1,94,-4600,23,-45,-20,17
856,-1895,-1,95,-4606,23,-45,-20,17
857,-1894,-2,91,-4605,23,-45,-20,17
858,-1893,0,94,-4605,23,-45,-20,17
859,-1892,-1,93,-4604,23,-45,-20,17
860,-1893,-2,92,-4603,23,-45,-20,17
861,-1896,-3,97,-4604,23,-45,-19,17
862,-1895,-1,89,-4603,23,-44,-20,16
863,-1896,-4,93,-4603,23,-44,-19,17
864,-1897,-2,91,-4605,23,-44,-19,17
865,-1897,-2,91,-4604,23,-44,-19,17
866,-1896,-3,89,-4607,23,-44,-20,17
867,-1897,-1,92,-4605,23,-45,-20,17
868,-1896,-1,89,-4604,23,-44,-19,17
869,-1898,-1,90,-4601,23,-45,-19,17
870,-1898,-3,92,-4604,23,-44,-19,17
871,-1897,-3,94,-4604,23,-44,-19,17
872,-1896,-1,96,-4604,23,-44,-20,17
873,-1895,-2,96,-4605,23,-44,-19,17
874,-1893,-2,88,-4605,23,-44,-20,18
875,-1894,-1,88,-4605,23,-44,-20,17
876,-1896,-1,93,-4608,23,-44,-20,17
877,-1896,-2,93,-4607,23,-44,-20,17
878,-1897,-3,90,-4606,23,-44,-20,18
879,-1895,-3,95,-4608,23,-44,-20,17
880,-1896,-3,96,-4607,23,-44,-20,17
881,-1895,-2,94,-4604,23,-44,-20,17
882,-1895,-2,90,-4603,23,-44,-20,17
883,-1896,-3,92,-4607,23,-44,-20,17
884,-1894,-1,95,-4605,23,-44,-20,17
885,-1893,-2,89,-4604,23,-44,-20,17
886,-1894,-1,86,-4607,23,-44,-20,16
887,-1893,-1,85,-4603,23,-44,-20,17
888,-1894,-1,91,-4602,23,-44,-20,17
889,-1895,0,91,-4602,23,-44,-20,17
890,-1895,-1,93,-4601,23,-44,-20,17
891,-1896,-2,92,-4604,23,-44,-20,17
892,-1895,-4,90,-4606,23,-44,-20,17
893,-1895,-4,91,-4605,23,-44,-20,17
894,-1894,-3,93,-4609,23,-44,-20,17
895,-1893,-2,94,-4605,23,-44,-20,17
896,-1895,-2,93,-4604,23,-44,-20,17
897,-1896,-2,95,-4601,23,-44,-19,17
898,-1896,-1,97,-4604,23,-44,-19,17
899,-1896,-1,95,-4603,23,-44,-19,17
900,-1895,-1,96,-4607,23,-44,-20,17
901,-1895,-4,98,-4604,23,-44,-19,17
902,-1894,-3,97,-4602,23,-44,-20,17
903,-1895,-3,95,-4605,23,-44,-20,17
904,-1897,-1,94,-4604,23,-44,-19,17
905,-1898,-1,95,-4605,23,-44,-20,17
906,-1898,0,88,-4605,23,-44,-20,17
907,-1897,-1,89,-4607,23,-45,-20,17
908,-1896,1,88,-4608,23,-45,-20,17
909,-1896,-4,94,-4606,23,-45,-19,18
910,-1896,-1,91,-4606,23,-45,-20,17
911,-1895,0,94,-4606,23,-44,-20,17
912,-1895,1,90,-4604,23,-44,-20,17
913,-1894,-3,95,-4603,23,-43,-20,17
914,-1893,-3,97,-4602,23,-43,-20,17
915,-1894,-2,94,-4603,23,-43,-19,17
916,-1894,-1,92,-4605,23,-43,-19,17
917,-1894,-2,94,-4604,23,-44,-20,17
918,-1896,-3,96,-4603,23,-44,-19,17
919,-1892,-2,95,-4608,23,-44,-19,17
920,-1893,-1,96,-4607,23,-44,-20,17
921,-1897,-3,92,-4609,23,-44,-20,17
922,-1894,-2,93,-4610,23,-44,-20,18
923,-1893,-2,93,-4608,23,-45,-19,17
924,-1893,-2,92,-4605,23,-44,-19,16
925,-1895,-4,94,-4606,23,-44,-19,17
926,-1897,-5,96,-4607,23,-44,-20,17
927,-1895,-3,95,-4607,23,-44,-20,18
928,-1895,-2,94,-4605,23,-43,-20,17
929,-1894,-1,97,-4607,23,-44,-20,17
930,-1895,-2,95,-4608,23,-44,-20,17
931,-1895,-2,97,-4611,23,-44,-20,17
932,-1895,-1,96,-4607,23,-44,-19,17
933,-1895,-2,96,-4606,23,-44,-19,17
934,-1895,-2,96,-4606,23,-44,-20,17
935,-1895,-3,96,-4604,23,-44,-21,17
936,-1895,-3,97,-4604,23,-44,-20,17
937,-1894,-4,96,-4606,23,-45,-20,17
938,-1893,-3,98,-4605,23,-45,-20,17
939,-1893,-3,95,-4609,23,-45,-20,17
940,-1894,-3,96,-4609,23,-45,-20,17
941,-1896,-7,96,-4606,23,-44,-20,17
942,-1896,-5,96,-4610,23,-44,-20,17
943,-1896,-4,93,-4607,23,-44,-20,17
944,-1896,-4,99,-4609,23,-43,-20,17
945,-1895,-5,99,-4606,23,-44,-19,17
946,-1896,-4,95,-4606,23,-44,-19,17
947,-1895,-5,94,-4608,23,-44,-19,17
948,-1895,-3,94,-4608,23,-44,-20,17
949,-1895,-2,96,-4608,23,-44,-20,18
950,-1895,0,91,-4608,23,-44,-20,18
951,-1893,-3,93,-4610,23,-44,-20,17
952,-1893,-1,96,-4610,23,-44,-20,17
953,-1894,-1,95,-4609,23,-44,-19,17
954,-1892,-1,92,-4610,23,-44,-19,17
955,-1894,-1,92,-4607,23,-44,-20,17
956,-1895,-2,96,-4606,23,-44,-19,17
957,-1895,-2,97,-4605,23,-44,-20,17
958,-1895,-2,96,-4601,23,-44,-20,17
959,-1894,-1,97,-4605,23,-44,-19,17
960,-1895,-1,95,-4606,23,-44,-19,17
961,-1895,-2,96,-4602,23,-43,-19,17
962,-1896,-1,95,-4604,23,-43,-19,17
963,-1898,-3,94,-4604,23,-43,-19,17
964,-1899,-1,94,-4606,23,-44,-20,17
965,-1898,-1,93,-4606,23,-44,-20,17
966,-1897,-1,93,-4607,23,-44,-20,17
967,-1897,-3,95,-4606,23,-44,-20,17
968,-1895,-2,97,-4604,23,-44,-20,17
969,-1895,-1,92,-4602,23,-44,-20,17
970,-1897,-3,92,-4598,23,-44,-20,18
971,-1896,-3,95,-4598,23,-44,-20,17
972,-1893,-2,95,-4599,23,-44,-20,17
973,-1893,-3,96,-4602,23,-44,-20,17
974,-1892,-3,97,-4601,23,-44,-19,17
975,-1895,-3,95,-4601,23,-44,-20,17
976,-1895,-4,96,-4603,23,-44,-20,17
977,-1895,-2,96,-4603,23,-44,-20,17
978,-1895,-3,94,-4603,23,-44,-20,17
979,-1894,-3,95,-4605,23,-44,-20,17
980,-1893,-2,94,-4603,23,-44,-19,17
981,-1893,-2,92,-4603,23,-45,-20,17
982,-1893,-4,94,-4602,23,-44,-20,17
983,-1895,-4,97,-4602,23,-45,-20,17
984,-1897,-4,93,-4601,23,-44,-20,17
985,-1897,-3,96,-4601,23,-44,-20,17
986,-1898,-2,92,-4602,23,-44,-19,18
987,-1895,-1,93,-4604,23,-44,-20,17
988,-1894,0,93,-4603,23,-44,-20,16
989,-1894,1,94,-4606,23,-44,-20,17
990,-1894,1,95,-4607,23,-44,-19,17
991,-1893,-2,96,-4608,23,-44,-19,17
992,-1892,-3,96,-4607,23,-44,-20,17
993,-1896,-4,93,-4609,23,-44,-20,17
994,-1894,-3,95,-4604,23,-45,-19,17
995,-1895,-3,95,-4605,23,-44,-20,17
996,-1894,-3,92,-4606,23,-44,-19,17
997,-1893,-4,93,-4606,23,-44,-19,17
998,-1897,-5,92,-4603,23,-44,-19,17
