,acc_X,acc_Y,acc_Z,temp,tempC,gyr_X,gyr_Y,gyr_Z
0,-15142,4,762,-4671,23,-88,-39,33
1,-15166,-44,754,-4675,23,-89,-39,35
2,-15170,-58,760,-4677,23,-87,-41,34
3,-15144,-60,720,-4667,23,-87,-38,37
4,-15152,-32,748,-4677,23,-90,-38,35
5,-15148,-30,688,-4675,23,-86,-39,35
6,-15152,42,776,-4667,23,-89,-40,34
7,-15122,26,756,-4670,23,-91,-42,33
8,-15136,0,760,-4677,23,-88,-39,35
9,-15144,-2,652,-4671,23,-89,-35,32
10,-15124,12,734,-4661,23,-88,-37,35
11,-15170,-2,774,-4673,23,-87,-40,34
12,-15126,48,768,-4674,23,-87,-39,34
13,-15210,-14,742,-4663,23,-89,-39,34
14,-15166,22,676,-4661,23,-89,-40,35
15,-15186,0,768,-4670,23,-91,-39,35
16,-15198,-6,790,-4665,23,-89,-37,37
17,-15164,-52,746,-4673,23,-87,-41,34
18,-15154,-54,774,-4673,23,-86,-38,33
19,-15152,-26,770,-4667,23,-88,-40,33
20,-15198,-14,730,-4669,23,-88,-38,34
21,-15154,-10,796,-4673,23,-85,-42,33
22,-15150,6,738,-4667,23,-90,-39,34
23,-15156,2,746,-4661,23,-88,-38,34
24,-15162,-4,730,-4668,23,-87,-40,37
25,-15178,46,708,-4675,23,-88,-39,34
26,-15144,-16,700,-4669,23,-88,-38,33
27,-15140,8,766,-4671,23,-86,-38,34
28,-15112,-22,774,-4673,23,-90,-38,34
29,-15152,-10,720,-4671,23,-87,-38,33
30,-15124,16,732,-4680,23,-88,-39,35
31,-15212,-38,706,-4676,23,-88,-38,35
32,-15178,-36,764,-4675,23,-89,-38,36
33,-15182,44,730,-4668,23,-87,-37,35
34,-15190,-10,724,-4667,23,-85,-37,35
35,-15154,-4,760,-4664,23,-88,-40,33
36,-15104,-12,744,-4675,23,-87,-40,34
37,-15156,-26,748,-4667,23,-88,-39,36
38,-15186,-54,734,-4669,23,-88,-39,35
39,-15168,-20,758,-4674,23,-86,-41,35
40,-15170,12,792,-4677,23,-88,-40,35
41,-15152,-20,688,-4674,23,-88,-40,32
42,-15110,-66,738,-4673,23,-88,-37,35
43,-15148,-48,748,-4671,23,-85,-37,33
44,-15216,-24,754,-4668,23,-87,-39,34
45,-15108,-32,744,-4670,23,-89,-37,34
46,-15142,-18,738,-4675,23,-89,-40,32
47,-15166,-54,712,-4676,23,-86,-41,37
48,-15166,-22,740,-4673,23,-87,-38,35
49,-15158,-50,718,-4672,23,-86,-41,35
50,-15198,-38,762,-4673,23,-88,-38,37
51,-15148,-42,768,-4674,23,-87,-36,34
52,-15126,-2,788,-4671,23,-88,-39,35
53,-15136,-14,794,-4668,23,-85,-38,36
54,-15160,-52,748,-4671,23,-88,-38,36
55,-15148,-6,778,-4675,23,-89,-38,36
56,-15176,-20,696,-4671,23,-86,-39,34
57,-15160,24,660,-4683,23,-87,-38,35
58,-15116,-34,716,-4675,23,-87,-38,34
59,-15156,14,744,-4672,23,-87,-39,36
60,-15140,-2,754,-4675,23,-87,-38,33
61,-15148,-58,756,-4676,23,-87,-38,34
62,-15158,-2,746,-4679,23,-87,-38,36
63,-15140,-50,746,-4668,23,-89,-37,35
64,-15110,-28,778,-4668,23,-87,-38,34
65,-15134,-22,740,-4671,23,-89,-39,35
66,-15148,-12,756,-4676,23,-88,-40,36
67,-15174,-24,714,-4663,23,-87,-40,34
68,-15210,0,724,-4662,23,-89,-39,33
69,-15138,16,768,-4667,23,-91,-37,35
70,-15222,-50,798,-4664,23,-84,-37,36
71,-15182,-62,732,-4676,23,-88,-39,35
72,-15164,-12,700,-4676,23,-86,-42,35
73,-15178,-42,740,-4678,23,-86,-39,35
74,-15110,-6,846,-4677,23,-89,-37,36
75,-15158,-42,830,-4669,23,-89,-37,34
76,-15194,-48,730,-4668,23,-88,-38,35
77,-15162,-34,766,-4673,23,-87,-39,32
78,-15192,-74,794,-4667,23,-89,-38,36
79,-15144,-52,774,-4680,23,-90,-38,34
80,-15170,-48,714,-4672,23,-87,-36,33
81,-15168,-14,820,-4663,23,-87,-39,34
82,-15190,-12,712,-4670,23,-86,-39,33
83,-15158,16,768,-4675,23,-90,-39,34
84,-15140,6,768,-4671,23,-88,-39,33
85,-15170,-16,748,-4670,23,-89,-39,35
86,-15182,-14,776,-4678,23,-89,-38,34
87,-15158,14,806,-4679,23,-90,-38,33
88,-15146,-12,848,-4678,23,-87,-40,35
89,-15142,2,750,-4669,23,-88,-37,35
90,-15170,-14,746,-4674,23,-83,-40,36
91,-15142,36,800,-4673,23,-86,-38,34
92,-15226,-22,770,-4671,23,-88,-40,34
93,-15166,8,732,-4662,23,-85,-42,34
94,-15180,-28,778,-4665,23,-86,-40,33
95,-15136,-54,744,-4674,23,-89,-40,32
96,-15126,-8,782,-4661,23,-87,-40,35
97,-15136,-42,772,-4670,23,-89,-33,38
98,-15168,-42,786,-4671,23,-89,-38,34
99,-15128,-2,770,-4671,23,-87,-38,35
100,-15116,-6,780,-4663,23,-86,-37,33
101,-15118,-42,764,-4665,23,-87,-41,36
102,-15114,-18,744,-4667,23,-88,-38,35
103,-15158,-14,752,-4666,23,-87,-41,36
104,-15154,14,794,-4671,23,-88,-41,34
105,-15126,-24,816,-4670,23,-87,-38,33
106,-15144,-8,762,-4668,23,-87,-38,35
107,-15138,2,712,-4678,23,-88,-41,36
108,-15130,-10,762,-4664,23,-87,-39,33
109,-15168,2,732,-4665,23,-88,-40,34
110,-15214,-12,734,-4664,23,-86,-39,35
111,-15166,0,742,-4666,23,-87,-41,35
112,-15126,6,744,-4664,23,-88,-39,38
113,-15156,-24,694,-4669,23,-89,-38,34
114,-15144,-56,736,-4670,23,-88,-41,36
115,-15126,-66,680,-4674,23,-85,-41,33
116,-15178,-22,790,-4662,23,-86,-35,35
117,-15152,-24,798,-4672,23,-85,-39,37
118,-15138,-42,798,-4667,23,-88,-36,32
119,-15154,-6,748,-4670,23,-87,-40,34
120,-15146,-46,702,-4675,23,-87,-37,33
121,-15132,-6,800,-4668,23,-87,-37,35
122,-15180,28,730,-4659,23,-87,-37,36
123,-15174,-68,690,-4661,23,-86,-39,35
124,-15170,20,742,-4669,23,-88,-38,33
125,-15156,-6,734,-4670,23,-89,-40,34
126,-15202,-74,744,-4673,23,-88,-40,31
127,-15182,-30,764,-4669,23,-88,-40,35
128,-15168,-40,740,-4681,23,-87,-37,32
129,-15158,-10,808,-4681,23,-90,-39,34
130,-15164,-4,846,-4669,23,-88,-36,33
131,-15176,-18,748,-4675,23,-90,-39,37
132,-15166,26,790,-4665,23,-90,-36,37
133,-15134,20,734,-4674,23,-87,-39,35
134,-15184,-24,792,-4668,23,-87,-38,35
135,-15186,-6,764,-4668,23,-86,-37,35
136,-15132,8,764,-4676,23,-86,-40,33
137,-15114,-28,782,-4675,23,-89,-40,35
138,-15142,-10,792,-4674,23,-88,-39,34
139,-15172,-32,744,-4669,23,-87,-39,34
140,-15160,12,774,-4664,23,-88,-40,34
141,-15164,-12,774,-4679,23,-86,-36,34
142,-15122,-26,754,-4686,23,-86,-36,34
143,-15170,-22,726,-4674,23,-88,-38,35
144,-15120,2,734,-4674,23,-90,-41,35
145,-15126,-22,762,-4673,23,-87,-40,36
146,-15168,-12,708,-4669,23,-87,-39,36
147,-15166,20,710,-4668,23,-88,-38,35
148,-15140,-8,802,-4669,23,-88,-40,34
149,-15144,-20,786,-4663,23,-85,-38,35
150,-15204,-30,704,-4665,23,-87,-39,34
151,-15142,-12,680,-4667,23,-87,-39,34
152,-15176,-34,712,-4674,23,-87,-39,33
153,-15152,22,740,-4672,23,-86,-38,32
154,-15126,-44,748,-4667,23,-87,-36,35
155,-15126,-22,752,-4665,23,-87,-37,33
156,-15184,-10,732,-4672,23,-86,-37,34
157,-15184,-56,720,-4674,23,-87,-36,35
158,-15198,-24,820,-4669,23,-87,-39,32
159,-15152,10,778,-4673,23,-89,-38,33
160,-15136,-72,748,-4674,23,-87,-39,32
161,-15118,-10,830,-4676,23,-86,-39,35
162,-15170,24,710,-4674,23,-84,-36,35
163,-15156,-44,688,-4667,23,-88,-38,36
164,-15162,4,782,-4672,23,-88,-39,34
165,-15154,-20,714,-4669,23,-87,-40,35
166,-15158,-18,772,-4669,23,-87,-38,34
167,-15132,-38,684,-4673,23,-85,-39,33
168,-15190,-42,760,-4667,23,-89,-40,35
169,-15158,-44,752,-4664,23,-88,-39,33
170,-15172,-58,712,-4671,23,-90,-39,33
171,-15178,-30,810,-4674,23,-89,-38,35
172,-15148,-2,738,-4677,23,-89,-39,36
173,-15160,-20,750,-4674,23,-85,-40,34
174,-15142,28,746,-4671,23,-88,-42,32
175,-15108,-6,742,-4657,23,-86,-38,35
176,-15136,-8,776,-4664,23,-85,-38,35
177,-15154,-30,732,-4667,23,-88,-40,34
178,-15158,-6,722,-4667,23,-87,-41,35
179,-15168,-22,766,-4666,23,-88,-36,34
180,-15140,-24,746,-4670,23,-89,-38,34
181,-15186,-32,792,-4671,23,-87,-38,33
182,-15184,-10,698,-4669,23,-85,-39,34
183,-15154,-32,754,-4678,23,-87,-40,35
184,-15150,-46,766,-4672,23,-87,-37,35
185,-15164,-54,804,-4674,23,-88,-38,33
186,-15168,-68,734,-4670,23,-85,-37,36
187,-15196,-34,770,-4665,23,-87,-38,34
188,-15176,-36,712,-4678,23,-89,-37,36
189,-15188,-8,786,-4670,23,-86,-39,35
190,-15122,-8,750,-4660,23,-86,-37,34
191,-15158,6,730,-4669,23,-87,-41,35
192,-15164,-32,782,-4673,23,-88,-36,34
193,-15190,-52,688,-4668,23,-88,-41,36
194,-15154,-18,742,-4676,23,-88,-41,34
195,-15174,-10,740,-4674,23,-88,-39,34
196,-15160,-46,716,-4668,23,-90,-40,37
197,-15172,10,746,-4667,23,-87,-38,34
198,-15172,-14,812,-4670,23,-87,-37,35
199,-15134,-72,770,-4670,23,-87,-39,36
200,-15144,-16,762,-4665,23,-87,-39,35
201,-15170,0,748,-4664,23,-86,-39,34
202,-15174,-2,764,-4674,23,-87,-38,34
203,-15174,-18,766,-4674,23,-87,-38,34
204,-15152,30,734,-4673,23,-86,-39,36
205,-15148,-22,730,-4669,23,-89,-37,36
206,-15158,-28,734,-4672,23,-87,-39,36
207,-15124,-44,760,-4670,23,-87,-40,34
208,-15128,-50,726,-4673,23,-89,-40,36
209,-15168,-20,782,-4670,23,-88,-36,36
210,-15192,-16,744,-4668,23,-88,-39,37
211,-15170,-48,806,-4664,23,-88,-38,35
212,-15132,-34,720,-4667,23,-87,-41,35
213,-15144,-8,742,-4661,23,-88,-40,34
214,-15106,2,732,-4664,23,-88,-41,33
215,-15174,-36,674,-4671,23,-87,-39,35
216,-15126,12,676,-4671,23,-87,-38,36
217,-15126,-30,708,-4665,23,-86,-38,36
218,-15126,0,766,-4669,23,-88,-41,33
219,-15158,60,792,-4663,23,-88,-38,34
220,-15166,-38,754,-4676,23,-86,-39,35
221,-15146,26,792,-4672,23,-89,-40,37
222,-15150,-6,790,-4668,23,-88,-37,35
223,-15206,0,778,-4668,23,-87,-38,34
224,-15158,-36,758,-4670,23,-89,-37,35
225,-15170,-28,800,-4667,23,-86,-37,33
226,-15154,-12,774,-4668,23,-86,-36,34
227,-15172,6,792,-4665,23,-89,-37,33
228,-15128,-36,774,-4671,23,-87,-39,33
229,-15162,-16,770,-4675,23,-90,-36,34
230,-15158,-42,802,-4669,23,-89,-41,34
231,-15148,-14,752,-4664,23,-89,-39,35
232,-15178,-40,828,-4669,23,-85,-40,36
233,-15140,8,750,-4669,23,-86,-39,34
234,-15148,-10,722,-4670,23,-88,-40,35
235,-15186,12,718,-4663,23,-84,-37,34
236,-15156,-20,794,-4663,23,-87,-39,36
237,-15152,-4,714,-4665,23,-88,-38,36
238,-15232,0,736,-4669,23,-86,-41,35
239,-15152,48,704,-4673,23,-87,-41,35
240,-15200,-14,742,-4669,23,-90,-39,36
241,-15168,28,770,-4659,23,-88,-38,35
242,-15192,-34,718,-4671,23,-86,-39,36
243,-15184,-12,772,-4662,23,-87,-40,33
244,-15148,4,714,-4661,23,-89,-37,33
245,-15188,-34,784,-4662,23,-91,-37,36
246,-15190,-34,702,-4667,23,-86,-36,33
247,-15180,-52,802,-4673,23,-87,-37,34
248,-15168,4,782,-4668,23,-88,-40,31
249,-15186,-14,752,-4666,23,-89,-41,35
250,-15154,-42,824,-4666,23,-86,-38,35
251,-15184,-30,758,-4668,23,-88,-38,32
252,-15194,-14,802,-4672,23,-88,-40,36
253,-15202,16,802,-4672,23,-86,-39,37
254,-15210,62,754,-4669,23,-86,-38,36
255,-15186,18,696,-4670,23,-89,-40,35
256,-15132,-10,780,-4668,23,-86,-39,33
257,-15212,-34,752,-4674,23,-87,-38,36
258,-15204,-10,796,-4669,23,-89,-39,36
259,-15188,-10,734,-4668,23,-88,-41,37
260,-15160,-32,700,-4664,23,-87,-35,36
261,-15162,-54,710,-4667,23,-87,-37,36
262,-15108,-8,726,-4672,23,-85,-37,34
263,-15120,40,774,-4659,23,-87,-40,34
264,-15168,-64,766,-4666,23,-88,-37,35
265,-15148,-52,798,-4666,23,-87,-38,35
266,-15134,-20,786,-4661,23,-86,-41,35
267,-15130,16,762,-4673,23,-88,-38,35
268,-15122,-4,764,-4672,23,-87,-39,36
269,-15152,-24,810,-4667,23,-87,-39,34
270,-15152,-4,776,-4674,23,-87,-38,33
271,-15152,-12,752,-4673,23,-89,-37,34
272,-15150,-24,736,-4662,23,-87,-39,33
273,-15194,-14,754,-4675,23,-90,-39,34
274,-15154,-2,756,-4673,23,-90,-36,36
275,-15204,-2,758,-4676,23,-87,-38,34
276,-15206,-54,764,-4666,23,-85,-38,34
277,-15158,-26,696,-4662,23,-86,-37,35
278,-15146,-26,732,-4670,23,-89,-36,35
279,-15224,24,740,-4670,23,-89,-37,33
280,-15242,42,740,-4663,23,-87,-40,33
281,-15188,-30,760,-4663,23,-89,-38,34
282,-15186,-34,772,-4667,23,-88,-40,36
283,-15158,-2,750,-4673,23,-88,-37,34
284,-15176,-20,674,-4668,23,-89,-38,35
285,-15120,2,722,-4666,23,-91,-38,36
286,-15142,-26,798,-4675,23,-89,-40,33
287,-15210,-6,774,-4665,23,-84,-37,31
288,-15118,-8,736,-4673,23,-88,-37,34
289,-15162,-2,732,-4675,23,-88,-38,33
290,-15116,66,706,-4672,23,-89,-39,36
291,-15146,-42,694,-4674,23,-87,-40,33
292,-15188,-46,742,-4672,23,-91,-39,34
293,-15132,28,706,-4672,23,-88,-38,35
294,-15156,-44,756,-4679,23,-86,-35,35
295,-15190,-2,736,-4671,23,-88,-38,36
296,-15170,-46,716,-4665,23,-91,-40,34
297,-15152,-22,752,-4661,23,-87,-40,34
298,-15160,-30,756,-4656,23,-88,-39,35
299,-15160,-32,758,-4659,23,-87,-39,34
300,-15126,18,770,-4667,23,-87,-39,35
301,-15142,14,746,-4672,23,-89,-39,35
302,-15164,-22,698,-4669,23,-88,-38,36
303,-15144,0,760,-4667,23,-87,-41,36
304,-15146,0,750,-4663,23,-89,-38,36
305,-15158,-24,760,-4665,23,-88,-39,35
306,-15134,-10,804,-4668,23,-86,-38,33
307,-15200,16,730,-4659,23,-89,-40,36
308,-15174,-10,692,-4664,23,-85,-38,35
309,-15166,-16,778,-4668,23,-87,-39,33
310,-15180,10,724,-4672,23,-88,-39,36
311,-15156,-20,724,-4672,23,-87,-41,36
312,-15146,-12,726,-4671,23,-87,-40,36
313,-15160,16,746,-4673,23,-88,-38,35
314,-15140,-24,704,-4676,23,-88,-38,33
315,-15200,12,758,-4663,23,-87,-36,32
316,-15156,-26,818,-4665,23,-86,-38,35
317,-15188,-6,820,-4669,23,-87,-40,34
318,-15108,24,674,-4665,23,-87,-38,37
319,-15160,36,752,-4664,23,-87,-39,34
320,-15106,-10,746,-4669,23,-88,-38,36
321,-15164,-28,802,-4659,23,-88,-39,35
322,-15184,-42,722,-4661,23,-87,-39,35
323,-15192,-4,748,-4662,23,-90,-38,35
324,-15178,-14,800,-4670,23,-88,-38,35
325,-15168,24,726,-4672,23,-86,-36,37
326,-15126,-20,750,-4668,23,-87,-39,36
327,-15116,-20,762,-4674,23,-87,-37,34
328,-15146,30,726,-4668,23,-88,-39,33
329,-15148,-38,782,-4673,23,-87,-36,33
330,-15198,30,748,-4673,23,-87,-37,32
331,-15178,-10,742,-4679,23,-87,-37,34
332,-15170,6,770,-4663,23,-87,-35,34
333,-15126,2,798,-4664,23,-89,-38,34
334,-15140,-22,744,-4672,23,-89,-38,33
335,-15158,-28,786,-4668,23,-87,-39,35
336,-15210,-42,768,-4665,23,-88,-38,34
337,-15180,-22,754,-4675,23,-87,-37,33
338,-15156,22,718,-4666,23,-88,-40,35
339,-15146,-4,780,-4668,23,-86,-39,36
340,-15194,-20,802,-4671,23,-85,-37,33
341,-15150,12,754,-4667,23,-87,-35,36
342,-15182,24,746,-4677,23,-88,-40,36
343,-15180,-6,774,-4672,23,-88,-37,35
344,-15176,-4,786,-4666,23,-88,-37,37
345,-15206,-40,764,-4667,23,-88,-39,37
346,-15142,-16,772,-4665,23,-86,-33,36
347,-15144,-22,724,-4667,23,-88,-37,34
348,-15148,-34,762,-4665,23,-88,-40,36
349,-15142,-2,754,-4671,23,-89,-38,37
350,-15168,-32,762,-4674,23,-88,-37,35
351,-15152,8,702,-4675,23,-88,-40,37
352,-15180,-22,680,-4670,23,-88,-37,34
353,-15166,8,760,-4668,23,-87,-38,34
354,-15158,-30,752,-4675,23,-91,-37,35
355,-15108,-18,712,-4671,23,-86,-39,34
356,-15154,6,820,-4668,23,-88,-37,34
357,-15204,12,758,-4673,23,-87,-42,34
358,-15154,0,750,-4672,23,-87,-38,35
359,-15214,-38,718,-4675,23,-87,-39,33
360,-15176,28,778,-4671,23,-89,-39,33
361,-15142,-34,708,-4673,23,-88,-37,34
362,-15110,44,712,-4676,23,-89,-41,36
363,-15182,-30,750,-4672,23,-85,-37,36
364,-15124,28,698,-4668,23,-87,-39,34
365,-15170,6,700,-4669,23,-86,-38,32
366,-15136,-86,724,-4665,23,-87,-39,34
367,-15166,-38,752,-4669,23,-88,-39,35
368,-15164,4,752,-4672,23,-88,-38,34
369,-15182,-6,790,-4665,23,-90,-39,35
370,-15182,-40,780,-4670,23,-89,-38,33
371,-15136,12,734,-4674,23,-86,-38,34
372,-15156,-24,724,-4668,23,-87,-38,35
373,-15166,-20,784,-4670,23,-89,-38,35
374,-15140,-34,748,-4665,23,-86,-37,36
375,-15192,-6,732,-4669,23,-87,-37,34
376,-15162,-18,782,-4675,23,-89,-40,34
377,-15108,-18,756,-4678,23,-89,-37,33
378,-15156,-28,714,-4672,23,-88,-38,31
379,-15170,-38,764,-4668,23,-90,-38,34
380,-15140,-38,736,-4674,23,-90,-41,33
381,-15154,-20,720,-4672,23,-87,-39,34
382,-15094,4,786,-4677,23,-89,-38,33
383,-15162,10,800,-4667,23,-87,-39,35
384,-15130,-16,800,-4669,23,-90,-39,33
385,-15148,-42,810,-4675,23,-85,-38,32
386,-15170,-20,782,-4672,23,-86,-35,35
387,-15132,-46,790,-4661,23,-89,-38,35
388,-15164,-2,730,-4662,23,-86,-37,35
389,-15134,6,728,-4671,23,-89,-38,34
390,-15120,-10,764,-4674,23,-88,-38,34
391,-15156,8,732,-4674,23,-89,-38,35
392,-15192,20,718,-4670,23,-90,-39,35
393,-15118,-24,742,-4668,23,-90,-38,34
394,-15130,-10,754,-4672,23,-88,-37,35
395,-15160,36,752,-4665,23,-86,-36,36
396,-15170,-20,740,-4670,23,-89,-39,36
397,-15164,4,790,-4672,23,-88,-37,36
398,-15132,14,768,-4675,23,-87,-39,34
399,-15152,-26,758,-4670,23,-88,-40,33
400,-15176,-32,666,-4669,23,-89,-39,34
401,-15192,-12,680,-4678,23,-87,-37,36
402,-15134,-12,748,-4682,23,-88,-38,36
403,-15168,-40,744,-4675,23,-86,-40,34
404,-15156,-22,754,-4679,23,-87,-40,35
405,-15162,-32,806,-4672,23,-87,-40,32
406,-15140,-12,784,-4666,23,-87,-36,35
407,-15152,6,746,-4666,23,-87,-39,34
408,-15172,14,730,-4674,23,-88,-38,36
409,-15162,-26,726,-4674,23,-88,-40,35
410,-15176,-12,722,-4665,23,-88,-40,33
411,-15136,-54,710,-4665,23,-87,-39,32
412,-15120,10,822,-4661,23,-87,-40,35
413,-15116,4,774,-4672,23,-87,-40,33
414,-15128,-42,762,-4672,23,-88,-37,35
415,-15172,4,688,-4668,23,-88,-38,36
416,-15126,18,724,-4682,23,-88,-39,35
417,-15154,-10,682,-4676,23,-87,-37,34
418,-15178,-26,744,-4673,23,-88,-38,32
419,-15154,-54,724,-4668,23,-88,-39,35
420,-15188,-22,782,-4674,23,-90,-39,36
421,-15184,-28,782,-4667,23,-88,-39,35
422,-15130,-28,786,-4666,23,-89,-36,34
423,-15124,20,770,-4655,23,-86,-36,36
424,-15160,24,728,-4668,23,-87,-35,34
425,-15152,-10,740,-4676,23,-87,-37,35
426,-15172,-32,718,-4666,23,-89,-39,36
427,-15120,-2,802,-4669,23,-85,-38,35
428,-15140,-32,828,-4675,23,-89,-40,36
429,-15158,0,710,-4667,23,-86,-38,34
430,-15142,-16,694,-4666,23,-88,-38,34
431,-15142,-28,772,-4668,23,-88,-38,35
432,-15160,-4,790,-4669,23,-86,-36,34
433,-15174,-34,766,-4668,23,-86,-38,36
434,-15170,10,728,-4672,23,-87,-39,37
435,-15176,-24,736,-4668,23,-86,-39,32
436,-15108,8,732,-4671,23,-86,-42,34
437,-15152,6,754,-4669,23,-87,-37,35
438,-15162,-22,746,-4663,23,-88,-39,34
439,-15164,-28,728,-4663,23,-88,-40,35
440,-15174,-24,754,-4667,23,-87,-41,34
441,-15172,-18,712,-4664,23,-86,-38,34
442,-15118,4,704,-4663,23,-87,-39,35
443,-15134,2,694,-4665,23,-85,-35,34
444,-15152,-48,690,-4673,23,-89,-39,33
445,-15168,16,760,-4670,23,-88,-38,37
446,-15154,-38,716,-4668,23,-87,-35,33
447,-15158,-10,740,-4663,23,-89,-36,35
448,-15136,-4,662,-4669,23,-89,-39,35
449,-15162,0,780,-4671,23,-89,-40,36
450,-15152,-26,742,-4673,23,-86,-38,34
451,-15142,44,746,-4667,23,-89,-41,32
452,-15144,-4,710,-4665,23,-87,-39,32
453,-15164,-40,796,-4668,23,-88,-39,34
454,-15188,-36,758,-4666,23,-90,-38,35
455,-15154,-10,648,-4668,23,-88,-38,35
456,-15176,8,788,-4666,23,-88,-37,37
457,-15160,28,702,-4670,23,-88,-38,37
458,-15176,-8,748,-4668,23,-86,-36,31
459,-15096,-26,730,-4669,23,-87,-37,33
460,-15178,18,738,-4665,23,-88,-38,34
461,-15224,-30,760,-4671,23,-87,-40,35
462,-15176,-34,696,-4669,23,-89,-42,36
463,-15174,-46,722,-4671,23,-87,-37,35
464,-15130,20,744,-4668,23,-90,-40,35
465,-15124,-8,786,-4671,23,-88,-41,36
466,-15168,-28,752,-4667,23,-91,-40,35
467,-15148,-20,774,-4656,23,-88,-40,35
468,-15136,12,760,-4663,23,-90,-38,34
469,-15138,8,676,-4663,23,-89,-38,34
470,-15114,-8,774,-4665,23,-87,-38,31
471,-15136,-6,776,-4666,23,-88,-38,33
472,-15190,-2,788,-4672,23,-87,-38,35
473,-15182,16,740,-4660,23,-84,-40,33
474,-15170,18,716,-4665,23,-88,-37,35
475,-15154,-26,752,-4671,23,-87,-38,33
476,-15140,-14,778,-4667,23,-86,-39,36
477,-15162,28,742,-4661,23,-87,-41,37
478,-15160,16,772,-4670,23,-87,-40,36
479,-15168,-26,784,-4669,23,-89,-40,34
480,-15172,-32,764,-4673,23,-87,-38,35
481,-15126,-8,756,-4669,23,-87,-36,35
482,-15132,10,752,-4661,23,-89,-39,35
483,-15140,30,726,-4675,23,-91,-38,35
484,-15118,-36,772,-4668,23,-88,-40,35
485,-15176,-20,678,-4667,23,-86,-39,32
486,-15174,-30,732,-4662,23,-85,-40,36
487,-15166,-34,740,-4660,23,-86,-40,33
488,-15138,-4,740,-4663,23,-88,-36,33
489,-15138,0,844,-4668,23,-87,-39,34
490,-15148,16,806,-4668,23,-89,-41,31
491,-15098,-32,786,-4670,23,-86,-40,34
492,-15204,-18,770,-4659,23,-88,-38,34
493,-15164,0,730,-4662,23,-89,-39,36
494,-15154,4,776,-4671,23,-87,-39,34
495,-15186,8,780,-4668,23,-85,-39,33
496,-15188,-16,706,-4666,23,-87,-39,35
497,-15100,4,724,-4664,23,-86,-40,35
498,-15176,-2,772,-4668,23,-90,-38,35
499,-15120,-42,724,-4664,23,-86,-40,34
500,-15180,-22,716,-4669,23,-88,-40,34
501,-15126,-14,710,-4653,23,-87,-43,35
502,-15164,50,776,-4658,23,-85,-42,34
503,-15160,2,774,-4664,23,-87,-40,34
504,-15144,-28,686,-4668,23,-89,-39,35
505,-15114,-10,664,-4667,23,-88,-38,34
506,-15166,20,766,-4665,23,-88,-39,37
507,-15170,-8,794,-4662,23,-92,-38,34
508,-15154,-6,740,-4667,23,-86,-39,36
509,-15168,-46,666,-4660,23,-84,-37,36
510,-15162,-44,702,-4660,23,-89,-40,35
511,-15160,34,814,-4665,23,-89,-38,35
512,-15144,16,770,-4665,23,-87,-39,36
513,-15124,-38,728,-4659,23,-85,-38,37
514,-15150,-44,752,-4669,23,-85,-38,36
515,-15152,-30,726,-4670,23,-87,-41,36
516,-15130,-4,668,-4669,23,-86,-40,37
517,-15142,-4,746,-4673,23,-88,-40,33
518,-15178,6,706,-4665,23,-89,-38,35
519,-15172,8,740,-4673,23,-89,-39,35
520,-15126,-22,760,-4665,23,-88,-39,35
521,-15122,-20,740,-4661,23,-90,-40,35
522,-15156,-56,726,-4672,23,-86,-38,36
523,-15146,-46,696,-4669,23,-88,-37,36
524,-15170,-52,768,-4674,23,-88,-38,34
525,-15154,-20,760,-4667,23,-87,-40,35
526,-15176,-34,674,-4669,23,-85,-40,34
527,-15172,-74,684,-4664,23,-86,-41,34
528,-15122,-36,748,-4668,23,-89,-39,33
529,-15148,-2,770,-4658,23,-88,-39,34
530,-15154,-2,766,-4665,23,-87,-36,36
531,-15168,14,762,-4664,23,-89,-38,35
532,-15180,0,752,-4671,23,-88,-41,37
533,-15160,-48,652,-4670,23,-89,-39,37
534,-15130,-20,726,-4669,23,-90,-41,34
535,-15172,-24,754,-4665,23,-85,-40,36
536,-15140,-18,702,-4666,23,-86,-37,35
537,-15180,-34,752,-4666,23,-87,-39,33
538,-15192,-50,754,-4660,23,-87,-39,36
539,-15186,-4,758,-4668,23,-86,-41,36
540,-15164,-28,732,-4668,23,-89,-40,35
541,-15122,-32,728,-4670,23,-88,-37,36
542,-15140,-10,706,-4670,23,-86,-39,37
543,-15146,12,706,-4673,23,-87,-37,33
544,-15168,14,750,-4668,23,-86,-35,33
545,-15164,-12,782,-4665,23,-90,-40,34
546,-15180,20,760,-4661,23,-87,-39,32
547,-15150,-14,720,-4669,23,-86,-40,33
548,-15136,-28,712,-4675,23,-88,-39,34
549,-15200,-54,686,-4659,23,-88,-41,33
550,-15156,-2,760,-4669,23,-90,-40,35
551,-15116,-16,778,-4663,23,-88,-37,34
552,-15194,-28,688,-4668,23,-87,-39,33
553,-15160,-38,728,-4669,23,-85,-39,33
554,-15140,22,780,-4665,23,-89,-38,35
555,-15134,-18,734,-4669,23,-88,-41,34
556,-15164,-6,804,-4664,23,-89,-38,35
557,-15144,-36,674,-4668,23,-85,-37,36
558,-15130,-70,764,-4669,23,-89,-38,34
559,-15158,-34,800,-4666,23,-88,-38,35
560,-15180,-2,782,-4672,23,-87,-37,32
561,-15174,-14,768,-4663,23,-88,-37,32
562,-15158,-18,720,-4659,23,-89,-39,34
563,-15102,-8,768,-4664,23,-87,-38,34
564,-15138,6,732,-4672,23,-88,-42,33
565,-15168,-34,736,-4662,23,-89,-38,35
566,-15172,-2,720,-4671,23,-86,-39,36
567,-15146,-20,740,-4663,23,-89,-40,36
568,-15148,-22,762,-4671,23,-87,-40,34
569,-15106,-22,748,-4673,23,-87,-37,35
570,-15122,-72,772,-4662,23,-86,-38,34
571,-15176,-70,762,-4661,23,-88,-38,35
572,-15172,-16,656,-4667,23,-88,-38,38
573,-15186,-44,732,-4659,23,-88,-38,34
574,-15186,16,730,-4663,23,-88,-40,32
575,-15148,-20,774,-4661,23,-88,-38,35
576,-15166,-46,774,-4670,23,-86,-38,35
577,-15126,-2,732,-4668,23,-88,-39,34
578,-15150,-2,742,-4667,23,-87,-39,34
579,-15150,-42,706,-4668,23,-88,-37,36
580,-15152,-4,750,-4671,23,-88,-37,33
581,-15178,-50,778,-4656,23,-88,-36,35
582,-15162,-52,746,-4660,23,-88,-37,33
583,-15166,18,714,-4662,23,-87,-38,34
584,-15166,-32,760,-4665,23,-88,-39,35
585,-15154,-26,740,-4672,23,-91,-39,34
586,-15160,-50,802,-4666,23,-86,-39,34
587,-15168,-26,772,-4665,23,-89,-41,33
588,-15188,-44,778,-4658,23,-88,-40,36
589,-15158,-32,780,-4667,23,-88,-37,35
590,-15124,-52,726,-4663,23,-87,-36,36
591,-15160,-58,774,-4670,23,-89,-37,36
592,-15136,20,778,-4670,23,-90,-40,38
593,-15178,-8,772,-4665,23,-87,-37,36
594,-15136,-16,740,-4663,23,-88,-36,34
595,-15170,-28,806,-4662,23,-85,-37,32
596,-15180,8,800,-4667,23,-86,-41,33
597,-15124,-8,808,-4673,23,-87,-39,35
598,-15132,-24,770,-4665,23,-87,-41,35
599,-15146,-28,770,-4662,23,-87,-40,33
600,-15176,6,752,-4669,23,-87,-38,34
601,-15148,-16,766,-4665,23,-87,-37,35
602,-15176,-32,748,-4673,23,-87,-37,34
603,-15134,-52,658,-4667,23,-87,-40,35
604,-15136,-6,696,-4666,23,-89,-39,33
605,-15134,-38,692,-4667,23,-88,-41,33
606,-15156,-42,806,-4664,23,-87,-36,34
607,-15124,-38,678,-4662,23,-88,-39,35
608,-15122,46,736,-4666,23,-88,-38,35
609,-15152,-64,734,-4669,23,-88,-38,34
610,-15152,-50,774,-4666,23,-86,-42,35
611,-15156,16,748,-4660,23,-89,-39,36
612,-15126,-2,762,-4665,23,-90,-37,35
613,-15132,-2,742,-4667,23,-88,-39,34
614,-15116,-26,768,-4660,23,-89,-38,35
615,-15168,-2,784,-4668,23,-87,-39,35
616,-15142,-10,716,-4672,23,-85,-39,36
617,-15148,18,644,-4664,23,-87,-40,34
618,-15128,-38,696,-4671,23,-89,-40,35
619,-15144,4,766,-4667,23,-90,-35,34
620,-15136,-24,736,-4665,23,-89,-38,36
621,-15130,-28,720,-4667,23,-86,-41,33
622,-15162,-8,738,-4670,23,-86,-39,35
623,-15226,-2,676,-4670,23,-89,-38,35
624,-15158,22,720,-4670,23,-88,-41,34
625,-15174,-8,814,-4669,23,-88,-37,38
626,-15144,-10,726,-4668,23,-88,-37,35
627,-15140,26,808,-4664,23,-90,-37,35
628,-15228,4,714,-4666,23,-88,-42,36
629,-15168,8,778,-4667,23,-87,-40,35
630,-15158,10,694,-4665,23,-87,-37,35
631,-15142,-24,700,-4672,23,-90,-38,35
632,-15158,-10,702,-4666,23,-90,-40,34
633,-15134,-14,832,-4665,23,-89,-38,35
634,-15140,0,702,-4669,23,-87,-38,35
635,-15144,-10,782,-4665,23,-88,-38,33
636,-15126,4,754,-4666,23,-88,-36,34
637,-15136,-24,756,-4670,23,-86,-38,32
638,-15118,-10,780,-4664,23,-90,-38,34
639,-15136,16,706,-4669,23,-89,-38,36
640,-15160,-4,766,-4668,23,-89,-38,35
641,-15176,-10,726,-4669,23,-83,-42,34
642,-15096,-8,744,-4675,23,-89,-39,34
643,-15166,-12,716,-4665,23,-89,-40,32
644,-15146,-22,766,-4663,23,-88,-39,38
645,-15148,48,744,-4668,23,-85,-37,36
646,-15164,8,728,-4657,23,-87,-37,36
647,-15156,12,772,-4668,23,-87,-37,34
648,-15094,8,724,-4668,23,-87,-41,34
649,-15112,18,742,-4673,23,-87,-38,36
650,-15170,-50,686,-4668,23,-88,-36,33
651,-15146,2,712,-4666,23,-89,-37,33
652,-15178,-20,754,-4663,23,-88,-39,34
653,-15096,2,758,-4673,23,-87,-38,35
654,-15118,-16,768,-4670,23,-89,-39,36
655,-15162,-60,800,-4675,23,-89,-35,36
656,-15158,-26,762,-4673,23,-90,-39,36
657,-15174,20,712,-4671,23,-85,-39,34
658,-15182,-30,712,-4674,23,-89,-40,37
659,-15134,-20,714,-4666,23,-88,-37,35
660,-15134,22,754,-4667,23,-86,-40,32
661,-15142,22,806,-4667,23,-88,-39,36
662,-15132,-42,724,-4678,23,-88,-39,33
663,-15120,-56,712,-4662,23,-89,-38,33
664,-15084,0,718,-4661,23,-87,-41,33
665,-15134,-26,702,-4663,23,-90,-40,33
666,-15120,-12,772,-4668,23,-89,-42,34
667,-15166,-64,698,-4671,23,-90,-39,34
668,-15138,-12,744,-4665,23,-89,-38,35
669,-15140,30,710,-4652,23,-87,-40,36
670,-15196,-26,744,-4665,23,-87,-40,34
671,-15136,-10,710,-4670,23,-88,-39,36
672,-15148,12,748,-4668,23,-83,-38,35
673,-15180,-12,756,-4666,23,-86,-39,35
674,-15176,16,746,-4666,23,-88,-36,33
675,-15130,-14,720,-4663,23,-89,-38,33
676,-15152,-6,766,-4665,23,-88,-36,36
677,-15132,-28,786,-4664,23,-86,-41,35
678,-15158,-30,722,-4666,23,-87,-38,34
679,-15170,-12,728,-4669,23,-87,-39,33
680,-15158,-30,766,-4661,23,-88,-41,32
681,-15170,26,776,-4667,23,-87,-37,34
682,-15136,4,718,-4666,23,-87,-40,34
683,-15166,-40,760,-4665,23,-87,-37,34
684,-15184,-44,786,-4662,23,-87,-38,34
685,-15150,-14,786,-4674,23,-86,-39,37
686,-15118,8,734,-4667,23,-86,-40,35
687,-15130,-30,782,-4663,23,-87,-38,35
688,-15152,-10,754,-4660,23,-87,-39,35
689,-15140,-40,748,-4662,23,-88,-37,32
690,-15180,-50,750,-4664,23,-89,-40,34
691,-15136,28,832,-4666,23,-88,-37,34
692,-15174,-14,744,-4670,23,-86,-37,36
693,-15112,0,796,-4666,23,-88,-38,38
694,-15154,10,776,-4672,23,-86,-39,35
695,-15148,-38,790,-4667,23,-87,-39,36
696,-15120,6,710,-4667,23,-90,-38,33
697,-15200,6,844,-4670,23,-87,-38,36
698,-15176,-2,712,-4665,23,-87,-41,37
699,-15168,2,724,-4664,23,-88,-39,36
700,-15178,-38,726,-4657,23,-87,-40,35
701,-15136,10,764,-4656,23,-83,-38,35
702,-15182,22,810,-4661,23,-87,-37,33
703,-15182,-30,802,-4663,23,-84,-38,34
704,-15136,14,730,-4677,23,-86,-42,34
705,-15184,-16,748,-4678,23,-89,-37,33
706,-15152,-40,682,-4660,23,-87,-39,34
707,-15126,-40,768,-4666,23,-90,-37,34
708,-15186,-12,690,-4657,23,-89,-39,37
709,-15134,-42,766,-4664,23,-88,-36,33
710,-15192,-28,804,-4667,23,-88,-38,35
711,-15172,-8,750,-4663,23,-87,-39,34
712,-15126,-42,740,-4661,23,-90,-39,37
713,-15158,-10,744,-4661,23,-88,-41,35
714,-15162,-40,742,-4663,23,-91,-39,32
715,-15126,-8,744,-4665,23,-87,-41,35
716,-15154,-24,708,-4669,23,-89,-39,37
717,-15182,-8,786,-4672,23,-88,-39,34
718,-15166,-16,752,-4669,23,-88,-35,34
719,-15154,-12,784,-4662,23,-88,-38,34
720,-15116,10,746,-4659,23,-87,-41,32
721,-15164,-6,720,-4665,23,-85,-37,33
722,-15182,20,744,-4664,23,-89,-35,36
723,-15162,-22,820,-4666,23,-87,-39,35
724,-15188,-4,696,-4661,23,-88,-42,34
725,-15162,16,710,-4667,23,-89,-39,35
726,-15134,38,760,-4668,23,-87,-39,35
727,-15136,-16,738,-4665,23,-88,-38,35
728,-15176,-28,744,-4661,23,-90,-40,36
729,-15154,-36,724,-4675,23,-89,-37,38
730,-15118,-12,724,-4669,23,-88,-43,36
731,-15178,-28,718,-4670,23,-90,-38,34
732,-15140,-26,720,-4669,23,-86,-40,33
733,-15152,-36,760,-4670,23,-86,-41,34
734,-15156,-4,774,-4665,23,-86,-38,36
735,-15150,22,750,-4662,23,-85,-37,35
736,-15162,-2,774,-4667,23,-88,-38,35
737,-15162,-26,714,-4671,23,-89,-40,31
738,-15156,14,752,-4660,23,-89,-39,34
739,-15146,-38,738,-4663,23,-89,-40,36
740,-15174,-16,798,-4672,23,-89,-38,32
741,-15152,-44,716,-4667,23,-88,-42,34
742,-15168,-8,774,-4667,23,-88,-41,35
743,-15186,-12,756,-4674,23,-88,-41,36
744,-15208,20,714,-4660,23,-88,-39,33
745,-15156,-12,758,-4660,23,-89,-38,33
746,-15128,-36,730,-4669,23,-89,-37,34
747,-15164,0,726,-4670,23,-85,-37,32
748,-15142,-14,740,-4664,23,-84,-37,35
749,-15138,8,752,-4670,23,-86,-38,35
750,-15160,-40,788,-4662,23,-88,-37,36
751,-15220,-18,742,-4665,23,-87,-37,34
752,-15182,10,726,-4664,23,-90,-42,35
753,-15136,-14,718,-4660,23,-90,-38,36
754,-15140,-10,690,-4667,23,-90,-38,35
755,-15188,-6,736,-4669,23,-89,-39,34
756,-15176,-42,778,-4673,23,-90,-39,35
757,-15154,-30,750,-4673,23,-89,-41,33
758,-15108,-6,726,-4662,23,-87,-37,32
759,-15134,-32,790,-4666,23,-88,-37,32
760,-15150,-22,706,-4673,23,-89,-37,33
761,-15124,-26,748,-4669,23,-89,-39,34
762,-15162,2,736,-4662,23,-86,-36,36
763,-15176,2,740,-4664,23,-88,-37,34
764,-15150,-14,682,-4663,23,-86,-39,33
765,-15180,30,740,-4664,23,-88,-41,33
766,-15158,-22,750,-4663,23,-87,-41,36
767,-15156,-34,716,-4665,23,-86,-40,34
768,-15146,-26,690,-4658,23,-87,-38,34
769,-15196,16,674,-4662,23,-89,-40,36
770,-15174,6,726,-4658,23,-88,-41,35
771,-15172,-20,784,-4665,23,-89,-38,34
772,-15190,-40,786,-4668,23,-86,-36,36
773,-15150,-56,760,-4663,23,-87,-37,34
774,-15144,-2,726,-4668,23,-86,-39,34
775,-15176,-18,776,-4665,23,-89,-37,34
776,-15166,-36,780,-4666,23,-87,-40,34
777,-15154,12,808,-4660,23,-85,-36,37
778,-15092,-38,786,-4662,23,-85,-40,36
779,-15102,-36,788,-4664,23,-88,-38,35
780,-15154,-34,734,-4669,23,-88,-39,36
781,-15178,-6,720,-4667,23,-88,-40,37
782,-15196,-10,806,-4656,23,-87,-39,36
783,-15126,-14,772,-4671,23,-90,-38,37
784,-15104,-6,726,-4667,23,-85,-39,35
785,-15156,-4,684,-4671,23,-87,-38,33
786,-15140,32,704,-4668,23,-88,-36,34
787,-15160,6,686,-4671,23,-90,-39,32
788,-15164,-10,756,-4667,23,-86,-37,35
789,-15132,-2,790,-4660,23,-88,-39,36
790,-15124,2,764,-4666,23,-88,-39,35
791,-15164,30,726,-4666,23,-90,-36,36
792,-15190,-2,794,-4667,23,-90,-39,36
793,-15164,-44,732,-4671,23,-87,-38,33
794,-15164,4,750,-4664,23,-91,-39,32
795,-15180,-48,744,-4658,23,-91,-38,35
796,-15210,8,752,-4664,23,-89,-38,35
797,-15196,-2,814,-4665,23,-88,-38,35
798,-15198,-24,730,-4662,23,-87,-39,37
799,-15196,-62,778,-4666,23,-86,-41,34
800,-15154,-50,688,-4663,23,-88,-41,35
801,-15180,-30,734,-4660,23,-87,-40,34
802,-15186,20,754,-4666,23,-88,-38,36
803,-15196,0,772,-4665,23,-89,-38,35
804,-15160,-30,768,-4665,23,-90,-40,35
805,-15118,-6,744,-4665,23,-87,-40,35
806,-15108,-16,742,-4658,23,-87,-38,36
807,-15114,10,802,-4664,23,-88,-39,33
808,-15178,6,742,-4665,23,-87,-40,34
809,-15134,-12,708,-4661,23,-87,-39,33
810,-15190,-30,702,-4658,23,-87,-38,38
811,-15146,-10,692,-4665,23,-87,-38,36
812,-15142,38,758,-4659,23,-88,-39,35
813,-15192,-12,804,-4656,23,-87,-39,35
814,-15168,-34,760,-4653,23,-88,-38,32
815,-15140,-2,736,-4663,23,-87,-36,36
816,-15152,-30,732,-4661,23,-88,-38,34
817,-15144,-4,744,-4664,23,-86,-39,35
818,-15138,-10,792,-4661,23,-87,-41,35
819,-15140,-24,714,-4660,23,-85,-38,36
820,-15168,-14,742,-4663,23,-88,-41,33
821,-15174,30,748,-4670,23,-88,-39,36
822,-15148,10,728,-4660,23,-91,-40,34
823,-15122,-22,734,-4662,23,-87,-39,35
824,-15142,-6,722,-4661,23,-86,-38,34
825,-15164,12,796,-4659,23,-86,-37,34
826,-15144,14,694,-4658,23,-89,-39,35
827,-15118,-32,782,-4665,23,-89,-37,33
828,-15166,-58,670,-4657,23,-88,-39,35
829,-15158,12,794,-4662,23,-87,-38,33
830,-15206,8,792,-4661,23,-88,-39,37
831,-15168,14,716,-4660,23,-85,-40,35
832,-15164,-16,716,-4666,23,-88,-39,34
833,-15172,14,710,-4663,23,-88,-38,34
834,-15184,-20,734,-4661,23,-86,-39,34
835,-15164,-18,740,-4659,23,-87,-39,32
836,-15188,4,736,-4661,23,-86,-38,30
837,-15192,8,784,-4667,23,-87,-39,33
838,-15132,-12,750,-4668,23,-89,-39,36
839,-15136,-32,720,-4669,23,-86,-39,37
840,-15096,-22,784,-4658,23,-86,-39,33
841,-15150,-18,696,-4663,23,-87,-38,35
842,-15108,-10,698,-4668,23,-87,-39,36
843,-15152,-16,720,-4670,23,-88,-37,34
844,-15128,-2,692,-4667,23,-85,-39,31
845,-15148,6,744,-4664,23,-86,-37,34
846,-15134,-10,792,-4668,23,-85,-37,35
847,-15178,-18,842,-4663,23,-87,-38,33
848,-15136,-60,740,-4664,23,-88,-40,33
849,-15186,-6,788,-4667,23,-88,-40,32
850,-15174,-38,668,-4662,23,-88,-37,35
851,-15204,-40,762,-4669,23,-88,-39,37
852,-15158,-22,772,-4675,23,-88,-37,35
853,-15156,-2,728,-4662,23,-89,-36,35
854,-15164,-42,756,-4660,23,-89,-38,35
855,-15144,-4,790,-4660,23,-88,-39,34
856,-15132,2,752,-4672,23,-87,-40,36
857,-15120,44,766,-4668,23,-89,-41,36
858,-15212,-22,726,-4665,23,-88,-41,37
859,-15142,-8,740,-4662,23,-88,-39,37
860,-15186,-38,816,-4667,23,-86,-40,37
861,-15178,10,784,-4668,23,-87,-37,35
862,-15168,-16,770,-4662,23,-83,-39,35
863,-15178,14,800,-4665,23,-89,-38,35
864,-15152,12,796,-4666,23,-88,-40,34
865,-15122,2,732,-4664,23,-84,-39,35
866,-15134,-20,766,-4666,23,-87,-36,34
867,-15152,-40,778,-4660,23,-89,-39,34
868,-15148,2,758,-4666,23,-88,-37,34
869,-15132,-2,774,-4662,23,-86,-37,36
870,-15142,4,794,-4659,23,-86,-37,34
871,-15134,-28,734,-4659,23,-86,-37,35
872,-15136,-26,768,-4661,23,-89,-41,34
873,-15176,12,694,-4658,23,-87,-41,34
874,-15110,-40,768,-4669,23,-87,-42,34
875,-15164,0,726,-4666,23,-85,-38,35
876,-15166,6,726,-4665,23,-88,-40,35
877,-15124,4,786,-4655,23,-90,-41,34
878,-15188,2,804,-4662,23,-88,-39,33
879,-15168,-6,726,-4666,23,-87,-44,36
880,-15188,-24,710,-4670,23,-87,-40,36
881,-15150,-4,802,-4665,23,-88,-36,35
882,-15178,-34,726,-4662,23,-88,-38,36
883,-15146,-44,734,-4665,23,-87,-38,35
884,-15142,-48,832,-4657,23,-91,-41,33
885,-15134,-6,774,-4663,23,-91,-38,33
886,-15158,-22,744,-4662,23,-89,-39,36
887,-15132,-34,682,-4668,23,-87,-37,35
888,-15158,46,706,-4673,23,-89,-38,35
889,-15152,-24,744,-4666,23,-85,-38,36
890,-15174,-30,718,-4668,23,-89,-40,35
891,-15198,-20,730,-4658,23,-86,-41,31
892,-15204,12,770,-4662,23,-88,-39,35
893,-15140,-58,728,-4659,23,-86,-39,34
894,-15172,-40,804,-4653,23,-87,-36,34
895,-15138,-24,806,-4665,23,-88,-38,35
896,-15142,-54,816,-4659,23,-87,-40,33
897,-15168,-18,772,-4660,23,-88,-39,36
898,-15136,-10,756,-4658,23,-87,-37,36
899,-15158,12,762,-4661,23,-86,-38,34
900,-15188,-10,762,-4665,23,-89,-38,34
901,-15148,8,748,-4661,23,-87,-39,32
902,-15124,-26,690,-4668,23,-88,-39,34
903,-15118,-18,766,-4662,23,-86,-40,34
904,-15114,-28,758,-4660,23,-87,-38,31
905,-15162,-6,760,-4663,23,-89,-41,35
906,-15128,-14,750,-4667,23,-88,-37,34
907,-15116,-28,712,-4666,23,-86,-39,34
908,-15098,-12,772,-4661,23,-87,-39,36
909,-15106,-10,760,-4666,23,-87,-36,36
910,-15110,-10,732,-4673,23,-89,-37,35
911,-15180,-30,720,-4667,23,-88,-37,36
912,-15190,-34,822,-4658,23,-86,-40,36
913,-15164,-8,744,-4657,23,-87,-38,36
914,-15170,-22,756,-4663,23,-88,-39,33
915,-15150,-52,696,-4657,23,-86,-39,34
916,-15150,8,780,-4658,23,-86,-41,32
917,-15126,-18,856,-4666,23,-87,-42,36
918,-15144,-54,734,-4667,23,-89,-39,34
919,-15164,6,818,-4667,23,-87,-38,35
920,-15150,54,790,-4660,23,-87,-38,37
921,-15132,-44,788,-4660,23,-88,-39,34
922,-15126,-8,768,-4659,23,-86,-39,34
923,-15172,-36,780,-4657,23,-87,-37,35
924,-15214,-32,734,-4660,23,-90,-38,34
925,-15176,32,786,-4661,23,-88,-40,35
926,-15190,-8,790,-4656,23,-88,-38,34
927,-15100,-18,772,-4661,23,-88,-38,34
928,-15130,-38,716,-4654,23,-87,-40,34
929,-15174,-6,798,-4655,23,-86,-39,36
930,-15176,-10,668,-4670,23,-87,-42,34
931,-15162,24,722,-4660,23,-86,-38,35
932,-15166,-38,720,-4661,23,-87,-40,35
933,-15200,24,766,-4661,23,-87,-38,37
934,-15210,-22,760,-4661,23,-89,-38,33
935,-15170,0,772,-4656,23,-88,-40,34
936,-15166,-34,706,-4663,23,-89,-39,36
937,-15182,-18,760,-4661,23,-87,-37,35
938,-15116,8,798,-4669,23,-89,-36,38
939,-15182,0,782,-4655,23,-86,-37,34
940,-15160,-12,762,-4663,23,-87,-38,36
941,-15190,-18,742,-4666,23,-87,-38,35
942,-15166,-22,706,-4664,23,-89,-36,33
943,-15164,12,762,-4660,23,-86,-41,35
944,-15142,16,758,-4663,23,-88,-38,36
945,-15162,24,744,-4662,23,-86,-39,38
946,-15160,18,782,-4657,23,-87,-38,34
947,-15160,-10,718,-4664,23,-89,-38,36
948,-15194,-32,726,-4661,23,-87,-39,34
949,-15142,-46,762,-4664,23,-87,-41,36
950,-15130,-4,774,-4662,23,-86,-38,35
951,-15172,-34,714,-4663,23,-88,-37,35
952,-15108,-4,726,-4658,23,-87,-37,35
953,-15166,58,764,-4659,23,-87,-39,34
954,-15172,-22,722,-4664,23,-85,-40,34
955,-15186,-22,716,-4658,23,-86,-38,36
956,-15100,-2,704,-4660,23,-86,-39,35
957,-15132,-16,718,-4659,23,-88,-37,34
958,-15128,-26,728,-4668,23,-86,-41,34
959,-15154,-64,728,-4665,23,-88,-36,36
960,-15164,-18,720,-4666,23,-88,-38,37
961,-15134,-82,790,-4657,23,-90,-37,34
962,-15130,-16,756,-4655,23,-86,-41,36
963,-15148,-36,744,-4668,23,-89,-37,34
964,-15160,-28,750,-4657,23,-87,-38,31
965,-15162,-24,730,-4665,23,-89,-38,33
966,-15164,-16,716,-4662,23,-88,-39,35
967,-15150,20,770,-4662,23,-90,-41,37
968,-15184,-50,740,-4663,23,-88,-37,35
969,-15154,-16,720,-4659,23,-87,-38,33
970,-15144,-8,720,-4662,23,-87,-38,34
971,-15130,-20,758,-4663,23,-90,-38,39
972,-15154,-34,724,-4664,23,-88,-39,35
973,-15166,-14,784,-4663,23,-89,-37,36
974,-15164,-4,698,-4667,23,-88,-38,36
975,-15158,-10,690,-4662,23,-88,-42,34
976,-15130,-60,788,-4660,23,-87,-38,37
977,-15186,-36,706,-4661,23,-85,-38,35
978,-15136,4,778,-4665,23,-86,-37,32
979,-15162,-16,756,-4659,23,-88,-38,34
980,-15148,-34,748,-4665,23,-86,-37,34
981,-15126,-58,690,-4663,23,-87,-38,36
982,-15138,-22,738,-4661,23,-88,-40,36
983,-15158,4,796,-4662,23,-89,-39,36
984,-15088,-2,804,-4659,23,-89,-40,35
985,-15174,12,772,-4663,23,-85,-40,33
986,-15190,36,768,-4661,23,-87,-39,36
987,-15084,16,776,-4674,23,-86,-36,33
988,-15122,-24,732,-4667,23,-88,-38,32
989,-15152,-12,738,-4657,23,-88,-40,35
990,-15152,36,710,-4666,23,-88,-39,33
991,-15164,-12,758,-4660,23,-90,-40,33
992,-15188,20,722,-4666,23,-88,-39,36
993,-15160,12,736,-4666,23,-88,-36,38
994,-15174,-6,788,-4657,23,-88,-40,36
995,-15114,8,714,-4656,23,-87,-39,35
996,-15122,-46,728,-4666,23,-85,-40,35
997,-15150,-22,702,-4668,23,-88,-38,35
998,-15200,-20,750,-4665,23,-86,-41,34
