,acc_X,acc_Y,acc_Z,temp,tempC,gyr_X,gyr_Y,gyr_Z
0,-1902,0,94,-4697,23,-43,-20,18
1,-1890,1,95,-4696,23,-45,-19,18
2,-1898,2,97,-4690,23,-43,-19,17
3,-1895,-3,96,-4694,23,-44,-18,17
4,-1893,0,94,-4690,23,-44,-20,18
5,-1891,-1,95,-4693,23,-44,-20,18
6,-1899,-6,97,-4694,23,-44,-20,18
7,-1894,-2,82,-4696,23,-43,-20,18
8,-1894,-1,90,-4689,23,-42,-21,18
9,-1893,-4,89,-4693,23,-43,-21,18
10,-1894,-8,95,-4694,23,-45,-19,17
11,-1894,-6,88,-4695,23,-44,-19,17
12,-1893,-2,90,-4688,23,-43,-20,18
13,-1898,-5,89,-4691,23,-45,-18,18
14,-1893,2,91,-4693,23,-45,-19,16
15,-1889,3,93,-4689,23,-44,-19,16
16,-1895,-3,87,-4694,23,-46,-20,17
17,-1893,-2,95,-4689,23,-44,-20,16
18,-1895,-5,89,-4689,23,-44,-19,17
19,-1891,-1,95,-4683,23,-45,-19,17
20,-1890,-2,93,-4701,23,-44,-20,17
21,-1893,4,93,-4688,23,-45,-20,17
22,-1896,0,90,-4686,23,-43,-20,16
23,-1890,0,94,-4695,23,-43,-20,17
24,-1889,-7,100,-4691,23,-45,-19,18
25,-1890,-1,84,-4692,23,-44,-21,17
26,-1897,2,95,-4685,23,-44,-20,17
27,-1891,0,102,-4683,23,-43,-20,16
28,-1899,-2,98,-4688,23,-44,-19,16
29,-1894,-3,91,-4678,23,-43,-19,16
30,-1898,-2,88,-4693,23,-44,-20,16
31,-1901,-1,89,-4689,23,-43,-20,18
32,-1894,0,92,-4692,23,-45,-19,19
33,-1896,-6,88,-4687,23,-44,-19,16
34,-1895,-4,94,-4693,23,-44,-20,18
35,-1895,-5,89,-4699,23,-45,-20,18
36,-1897,1,89,-4690,23,-44,-21,17
37,-1896,0,95,-4695,23,-43,-20,19
38,-1896,-1,92,-4703,23,-44,-20,17
39,-1894,-1,96,-4697,23,-45,-20,18
40,-1891,-2,95,-4689,23,-44,-21,16
41,-1890,2,89,-4688,23,-44,-20,17
42,-1895,-1,103,-4690,23,-45,-20,17
43,-1894,-3,95,-4685,23,-45,-20,17
44,-1887,3,102,-4701,23,-44,-18,17
45,-1894,-3,106,-4693,23,-43,-19,17
46,-1898,-4,99,-4692,23,-44,-19,17
47,-1896,-1,90,-4697,23,-45,-18,17
48,-1898,-4,92,-4701,23,-44,-20,17
49,-1900,0,98,-4700,23,-41,-20,17
50,-1894,-2,96,-4696,23,-43,-20,17
51,-1892,-6,98,-4695,23,-42,-20,16
52,-1893,-6,91,-4701,23,-43,-20,17
53,-1893,-3,91,-4693,23,-44,-19,18
54,-1892,-7,93,-4687,23,-44,-20,18
55,-1899,-8,90,-4693,23,-44,-20,17
56,-1892,-2,88,-4693,23,-43,-20,18
57,-1891,-5,95,-4695,23,-44,-19,16
58,-1897,-5,91,-4689,23,-43,-20,17
59,-1889,-4,91,-4684,23,-44,-21,16
60,-1897,2,93,-4693,23,-43,-20,16
61,-1894,0,93,-4688,23,-43,-19,16
62,-1892,-5,94,-4691,23,-45,-19,18
63,-1897,-1,95,-4696,23,-45,-20,18
64,-1895,-2,103,-4692,23,-44,-19,17
65,-1896,-2,91,-4695,23,-42,-19,16
66,-1896,1,92,-4688,23,-45,-21,16
67,-1899,1,92,-4690,23,-45,-20,17
68,-1900,-5,89,-4699,23,-44,-20,17
69,-1899,-5,94,-4693,23,-43,-19,16
70,-1895,1,92,-4686,23,-43,-20,17
71,-1897,-3,83,-4691,23,-44,-20,15
72,-1898,-3,98,-4688,23,-44,-20,16
73,-1893,-1,93,-4688,23,-45,-19,17
74,-1898,2,84,-4694,23,-43,-21,17
75,-1900,-1,96,-4691,23,-44,-19,16
76,-1899,-7,96,-4693,23,-43,-21,17
77,-1892,-5,101,-4694,23,-45,-20,16
78,-1892,-3,85,-4687,23,-43,-19,18
79,-1895,-8,91,-4693,23,-43,-19,17
80,-1892,-10,94,-4691,23,-43,-20,17
81,-1896,0,95,-4690,23,-44,-19,17
82,-1892,-6,90,-4686,23,-43,-21,17
83,-1895,-4,96,-4696,23,-45,-19,17
84,-1896,-7,84,-4691,23,-43,-20,17
85,-1896,1,97,-4696,23,-44,-19,18
86,-1894,-3,95,-4688,23,-43,-20,18
87,-1893,-2,90,-4693,23,-45,-21,17
88,-1896,3,89,-4679,23,-44,-20,17
89,-1896,2,90,-4690,23,-44,-20,17
90,-1898,-7,90,-4693,23,-43,-19,17
91,-1892,-7,90,-4685,23,-43,-19,16
92,-1895,-7,87,-4696,23,-43,-20,17
93,-1893,-3,84,-4693,23,-44,-19,17
94,-1897,-2,91,-4687,23,-45,-19,17
95,-1891,-4,101,-4693,23,-43,-19,16
96,-1894,1,94,-4692,23,-43,-19,16
97,-1894,-2,94,-4690,23,-43,-20,17
98,-1898,-5,90,-4685,23,-45,-20,17
99,-1900,-4,94,-4693,23,-44,-20,17
100,-1889,-2,84,-4694,23,-44,-20,16
101,-1896,0,100,-4698,23,-44,-20,16
102,-1897,0,99,-4700,23,-43,-21,18
103,-1893,-6,99,-4691,23,-44,-20,16
104,-1890,3,97,-4695,23,-44,-19,17
105,-1898,6,100,-4692,23,-42,-19,17
106,-1896,-1,90,-4691,23,-43,-19,17
107,-1896,-6,91,-4687,23,-45,-19,18
108,-1895,-3,92,-4691,23,-43,-20,17
109,-1901,1,102,-4692,23,-44,-19,16
110,-1894,2,84,-4686,23,-44,-21,17
111,-1894,3,95,-4692,23,-43,-19,16
112,-1898,2,92,-4682,23,-44,-20,17
113,-1896,-4,89,-4687,23,-44,-19,17
114,-1901,-1,90,-4686,23,-44,-22,18
115,-1896,-4,95,-4690,23,-44,-18,18
116,-1896,-1,91,-4683,23,-45,-20,18
117,-1900,-2,109,-4687,23,-44,-20,17
118,-1899,0,94,-4684,23,-43,-20,16
119,-1902,-5,93,-4688,23,-43,-20,17
120,-1898,-3,88,-4694,23,-43,-18,18
121,-1897,2,87,-4689,23,-43,-22,16
122,-1897,-4,93,-4686,23,-44,-19,16
123,-1896,-2,99,-4689,23,-45,-21,17
124,-1898,-3,91,-4688,23,-44,-20,16
125,-1894,-3,92,-4694,23,-45,-19,17
126,-1895,-7,98,-4684,23,-44,-19,17
127,-1900,-4,96,-4693,23,-44,-19,17
128,-1900,0,101,-4688,23,-44,-19,16
129,-1897,-4,94,-4689,23,-43,-19,17
130,-1900,-5,97,-4688,23,-43,-20,17
131,-1893,-4,90,-4682,23,-44,-21,17
132,-1897,-2,88,-4685,23,-44,-20,18
133,-1900,-2,93,-4691,23,-45,-20,17
134,-1891,0,91,-4689,23,-43,-21,17
135,-1897,-1,91,-4684,23,-42,-20,17
136,-1893,-1,85,-4691,23,-44,-21,17
137,-1896,-3,95,-4689,23,-44,-20,17
138,-1894,-4,90,-4690,23,-43,-21,17
139,-1895,-4,86,-4689,23,-44,-20,17
140,-1896,3,84,-4687,23,-45,-19,18
141,-1899,0,96,-4693,23,-44,-19,17
142,-1898,-5,93,-4706,23,-44,-20,17
143,-1890,-8,93,-4693,23,-44,-20,18
144,-1897,0,94,-4687,23,-45,-19,16
145,-1893,-5,85,-4693,23,-43,-21,18
146,-1897,-1,95,-4694,23,-43,-20,17
147,-1898,-2,88,-4691,23,-44,-19,17
148,-1893,-2,88,-4687,23,-45,-19,17
149,-1892,-3,91,-4694,23,-43,-21,17
150,-1896,-2,88,-4691,23,-44,-19,17
151,-1893,-6,89,-4696,23,-44,-19,17
152,-1901,0,86,-4694,23,-44,-19,18
153,-1900,-5,92,-4690,23,-44,-19,17
154,-1901,1,90,-4689,23,-45,-20,17
155,-1894,-1,94,-4693,23,-44,-20,17
156,-1893,9,100,-4689,23,-43,-20,17
157,-1898,2,93,-4695,23,-42,-20,17
158,-1899,1,95,-4699,23,-43,-21,17
159,-1897,-4,89,-4695,23,-43,-19,17
160,-1897,0,89,-4690,23,-45,-18,17
161,-1895,0,97,-4691,23,-45,-18,17
162,-1896,-4,89,-4681,23,-43,-19,16
163,-1896,-1,89,-4694,23,-44,-19,17
164,-1895,-1,97,-4685,23,-44,-20,16
165,-1892,2,87,-4692,23,-43,-20,17
166,-1895,-3,93,-4693,23,-43,-19,17
167,-1888,3,90,-4697,23,-44,-19,17
168,-1900,0,97,-4693,23,-44,-19,17
169,-1894,0,95,-4696,23,-43,-19,16
170,-1900,-5,90,-4699,23,-44,-20,17
171,-1897,-4,90,-4700,23,-44,-19,18
172,-1895,-1,95,-4689,23,-43,-20,17
173,-1897,-7,94,-4692,23,-43,-19,17
174,-1902,-3,95,-4687,23,-44,-19,18
175,-1894,-2,95,-4695,23,-44,-18,16
176,-1894,2,102,-4694,23,-43,-20,17
177,-1900,5,99,-4691,23,-44,-20,17
178,-1896,3,98,-4686,23,-43,-20,16
179,-1893,-2,92,-4689,23,-43,-20,17
180,-1896,-6,95,-4692,23,-43,-19,17
181,-1889,-6,97,-4686,23,-44,-19,18
182,-1898,-1,88,-4688,23,-44,-20,16
183,-1900,1,94,-4689,23,-44,-20,17
184,-1893,-5,99,-4685,23,-44,-19,17
185,-1894,0,93,-4692,23,-45,-18,16
186,-1891,3,89,-4693,23,-43,-20,16
187,-1895,4,97,-4691,23,-44,-20,17
188,-1889,-2,89,-4691,23,-44,-20,16
189,-1894,-2,100,-4694,23,-43,-19,17
190,-1895,-2,87,-4689,23,-44,-19,17
191,-1899,3,92,-4688,23,-45,-19,17
192,-1896,3,90,-4691,23,-43,-19,16
193,-1900,-1,93,-4686,23,-44,-19,18
194,-1897,-6,92,-4681,23,-44,-20,15
195,-1893,-5,89,-4679,23,-45,-19,18
196,-1889,-4,89,-4691,23,-45,-18,18
197,-1895,3,101,-4684,23,-43,-19,16
198,-1898,3,100,-4683,23,-44,-19,17
199,-1898,-1,92,-4686,23,-43,-18,18
200,-1895,-2,90,-4691,23,-43,-19,17
201,-1892,-2,88,-4688,23,-44,-20,17
202,-1891,1,93,-4694,23,-44,-20,17
203,-1894,-1,88,-4691,23,-45,-20,16
204,-1894,-1,91,-4689,23,-45,-20,17
205,-1894,-3,87,-4685,23,-44,-20,16
206,-1895,-1,89,-4689,23,-44,-19,18
207,-1894,-1,96,-4697,23,-44,-20,18
208,-1895,-1,94,-4691,23,-43,-21,17
209,-1897,2,94,-4685,23,-44,-20,17
210,-1893,-3,96,-4687,23,-44,-21,15
211,-1890,2,99,-4690,23,-44,-18,17
212,-1894,1,91,-4688,23,-43,-20,17
213,-1896,1,87,-4691,23,-43,-19,16
214,-1900,1,89,-4693,23,-44,-19,17
215,-1898,0,94,-4691,23,-44,-19,17
216,-1898,5,88,-4693,23,-44,-19,17
217,-1901,-1,91,-4686,23,-45,-21,18
218,-1893,-4,94,-4682,23,-43,-20,17
219,-1893,-5,100,-4686,23,-43,-19,17
220,-1896,1,96,-4682,23,-44,-20,17
221,-1890,4,96,-4686,23,-45,-20,17
222,-1890,-2,98,-4685,23,-45,-20,17
223,-1897,-4,95,-4686,23,-44,-20,17
224,-1895,-2,92,-4689,23,-43,-20,16
225,-1893,-4,95,-4685,23,-43,-21,17
226,-1894,-3,89,-4693,23,-43,-20,17
227,-1890,-6,100,-4691,23,-44,-20,17
228,-1894,-3,98,-4696,23,-44,-21,17
229,-1891,-5,92,-4696,23,-44,-20,16
230,-1896,-2,98,-4693,23,-43,-18,17
231,-1898,1,86,-4689,23,-43,-19,18
232,-1899,-4,92,-4688,23,-44,-19,17
233,-1900,2,92,-4691,23,-45,-20,17
234,-1894,-4,86,-4694,23,-44,-19,18
235,-1900,-2,96,-4702,23,-44,-21,17
236,-1892,-6,96,-4690,23,-43,-21,17
237,-1901,-1,96,-4687,23,-43,-20,17
238,-1896,1,101,-4689,23,-43,-19,18
239,-1892,3,104,-4686,23,-43,-20,17
240,-1895,-4,97,-4687,23,-44,-20,17
241,-1895,3,99,-4688,23,-43,-19,17
242,-1892,-2,91,-4687,23,-43,-19,17
243,-1899,-6,85,-4686,23,-43,-20,17
244,-1895,-9,91,-4698,23,-45,-20,17
245,-1895,1,91,-4694,23,-45,-21,17
246,-1900,2,91,-4694,23,-44,-20,17
247,-1894,-3,95,-4687,23,-44,-21,17
248,-1897,-8,96,-4683,23,-44,-19,17
249,-1898,1,94,-4688,23,-43,-20,16
250,-1893,-5,92,-4691,23,-44,-19,17
251,-1890,-3,93,-4686,23,-44,-20,18
252,-1894,-4,94,-4692,23,-44,-19,16
253,-1891,-3,101,-4689,23,-43,-20,18
254,-1898,-3,95,-4691,23,-45,-19,14
255,-1894,-5,96,-4691,23,-43,-21,17
256,-1894,-5,91,-4689,23,-43,-21,16
257,-1893,-3,96,-4690,23,-44,-20,17
258,-1899,-5,94,-4683,23,-44,-20,17
259,-1893,-1,93,-4691,23,-44,-19,17
260,-1889,-2,93,-4684,23,-44,-20,16
261,-1902,-4,88,-4686,23,-43,-20,17
262,-1892,-1,107,-4695,23,-43,-19,17
263,-1897,1,92,-4688,23,-43,-19,17
264,-1896,-3,86,-4693,23,-44,-21,17
265,-1898,-3,92,-4694,23,-44,-19,18
266,-1893,1,92,-4684,23,-43,-19,16
267,-1897,-3,94,-4681,23,-45,-20,17
268,-1894,-7,99,-4691,23,-45,-20,17
269,-1896,2,95,-4694,23,-44,-20,18
270,-1892,0,92,-4692,23,-44,-20,17
271,-1892,-5,98,-4682,23,-44,-19,17
272,-1898,0,86,-4683,23,-44,-19,17
273,-1898,0,85,-4681,23,-44,-19,16
274,-1896,-1,100,-4687,23,-43,-19,16
275,-1895,-1,90,-4694,23,-43,-19,17
276,-1892,-2,92,-4695,23,-43,-21,17
277,-1891,0,95,-4694,23,-44,-20,17
278,-1896,-3,86,-4682,23,-44,-21,18
279,-1901,-1,94,-4685,23,-44,-20,17
280,-1896,-3,93,-4686,23,-45,-21,17
281,-1899,-2,96,-4683,23,-44,-20,16
282,-1895,-4,84,-4694,23,-43,-20,17
283,-1894,-5,88,-4691,23,-44,-20,16
284,-1890,-4,90,-4684,23,-44,-19,17
285,-1901,-7,94,-4685,23,-44,-20,17
286,-1893,-4,98,-4686,23,-44,-20,18
287,-1894,-3,94,-4687,23,-45,-19,19
288,-1896,-1,99,-4697,23,-43,-20,18
289,-1895,-4,101,-4689,23,-43,-19,17
290,-1896,-4,95,-4690,23,-43,-20,17
291,-1892,-1,97,-4687,23,-44,-20,18
292,-1899,-1,93,-4690,23,-44,-20,18
293,-1898,-6,94,-4684,23,-43,-19,18
294,-1900,-6,95,-4687,23,-43,-20,17
295,-1899,-2,93,-4693,23,-45,-19,17
296,-1894,-3,87,-4689,23,-43,-20,17
297,-1894,-3,100,-4685,23,-43,-19,17
298,-1896,-5,93,-4690,23,-45,-19,17
299,-1893,-3,92,-4687,23,-44,-20,16
300,-1896,-1,94,-4695,23,-44,-20,17
301,-1895,-4,92,-4690,23,-43,-21,17
302,-1897,-10,87,-4691,23,-43,-20,17
303,-1891,-3,91,-4683,23,-44,-19,18
304,-1894,-8,94,-4683,23,-45,-21,18
305,-1892,-9,93,-4684,23,-44,-19,18
306,-1894,-3,92,-4688,23,-43,-19,18
307,-1895,-1,87,-4686,23,-45,-20,18
308,-1894,-7,94,-4695,23,-44,-21,16
309,-1895,4,94,-4692,23,-44,-20,17
310,-1894,-5,97,-4691,23,-44,-19,17
311,-1897,-5,90,-4686,23,-43,-20,18
312,-1896,-6,92,-4683,23,-43,-20,17
313,-1896,-1,97,-4692,23,-43,-20,17
314,-1901,-3,96,-4692,23,-44,-19,17
315,-1898,0,96,-4687,23,-43,-20,17
316,-1897,-2,92,-4689,23,-43,-20,17
317,-1898,-4,91,-4689,23,-44,-19,17
318,-1895,2,97,-4691,23,-43,-19,16
319,-1891,-4,91,-4694,23,-43,-20,16
320,-1892,1,94,-4694,23,-44,-20,17
321,-1891,-2,94,-4688,23,-46,-20,18
322,-1895,-5,93,-4690,23,-44,-20,16
323,-1894,-4,93,-4691,23,-44,-20,17
324,-1894,0,95,-4688,23,-44,-19,16
325,-1892,-4,87,-4687,23,-44,-19,16
326,-1895,-4,90,-4687,23,-44,-20,17
327,-1894,-4,90,-4687,23,-44,-19,17
328,-1891,1,93,-4693,23,-44,-20,17
329,-1894,-5,95,-4685,23,-44,-20,17
330,-1896,3,100,-4692,23,-43,-19,18
331,-1894,-2,92,-4688,23,-44,-19,17
332,-1896,-8,101,-4692,23,-43,-21,17
333,-1895,-6,87,-4688,23,-43,-20,17
334,-1895,-3,94,-4691,23,-43,-19,17
335,-1892,-7,92,-4686,23,-43,-20,17
336,-1896,-1,90,-4691,23,-44,-19,17
337,-1890,-1,101,-4687,23,-43,-19,17
338,-1891,-5,98,-4687,23,-43,-18,17
339,-1903,-5,99,-4683,23,-43,-19,17
340,-1894,0,96,-4687,23,-43,-20,16
341,-1896,1,91,-4679,23,-44,-19,17
342,-1892,3,92,-4676,23,-44,-20,17
343,-1894,0,91,-4684,23,-43,-19,17
344,-1895,0,91,-4688,23,-44,-20,17
345,-1896,-1,92,-4685,23,-44,-20,17
346,-1896,4,99,-4688,23,-44,-19,17
347,-1897,8,89,-4691,23,-44,-19,15
348,-1897,-1,96,-4688,23,-44,-20,17
349,-1891,-2,105,-4692,23,-43,-19,18
350,-1893,1,91,-4698,23,-45,-18,17
351,-1899,-1,98,-4691,23,-43,-19,17
352,-1894,2,89,-4680,23,-44,-19,17
353,-1891,-7,94,-4691,23,-44,-21,18
354,-1899,-3,100,-4686,23,-44,-20,17
355,-1892,-3,91,-4685,23,-44,-19,17
356,-1895,-1,91,-4692,23,-44,-20,17
357,-1902,-7,106,-4686,23,-44,-20,17
358,-1893,-1,97,-4682,23,-43,-18,17
359,-1894,-3,92,-4685,23,-44,-19,17
360,-1896,-3,85,-4690,23,-44,-20,17
361,-1888,-4,96,-4688,23,-43,-20,18
362,-1891,-1,93,-4689,23,-44,-19,18
363,-1895,-1,90,-4680,23,-44,-21,18
364,-1898,-1,88,-4686,23,-44,-21,18
365,-1898,-2,93,-4681,23,-44,-19,17
366,-1895,-6,94,-4688,23,-44,-19,17
367,-1893,-6,94,-4686,23,-42,-19,17
368,-1893,-3,93,-4692,23,-44,-18,17
369,-1891,1,92,-4690,23,-43,-19,16
370,-1893,0,91,-4688,23,-45,-20,16
371,-1891,1,89,-4685,23,-43,-19,17
372,-1891,2,91,-4693,23,-44,-19,18
373,-1895,0,88,-4680,23,-43,-20,17
374,-1894,-2,92,-4685,23,-45,-19,16
375,-1896,1,100,-4689,23,-44,-20,17
376,-1894,-4,94,-4693,23,-44,-19,17
377,-1891,1,86,-4690,23,-44,-18,18
378,-1893,0,97,-4685,23,-42,-19,17
379,-1896,2,84,-4684,23,-44,-20,17
380,-1894,3,100,-4691,23,-45,-20,17
381,-1896,-4,91,-4691,23,-44,-19,18
382,-1901,-8,92,-4683,23,-43,-18,18
383,-1899,1,98,-4681,23,-43,-20,17
384,-1893,-1,88,-4689,23,-44,-19,16
385,-1889,-4,91,-4684,23,-44,-21,18
386,-1898,-2,90,-4687,23,-44,-19,18
387,-1903,-5,95,-4682,23,-45,-20,17
388,-1893,-3,94,-4686,23,-44,-20,17
389,-1897,-1,88,-4683,23,-45,-20,17
390,-1894,-2,91,-4694,23,-43,-20,16
391,-1893,-7,90,-4689,23,-44,-18,17
392,-1888,-1,90,-4685,23,-44,-20,17
393,-1896,-3,92,-4684,23,-42,-18,17
394,-1892,-4,90,-4692,23,-44,-19,16
395,-1895,-5,99,-4691,23,-45,-19,17
396,-1896,-4,97,-4683,23,-44,-20,16
397,-1897,-5,86,-4686,23,-42,-19,17
398,-1894,-4,93,-4688,23,-44,-20,17
399,-1897,-3,99,-4682,23,-44,-20,17
400,-1891,1,92,-4690,23,-43,-20,17
401,-1899,-4,91,-4685,23,-44,-20,16
402,-1898,2,95,-4690,23,-45,-19,16
403,-1895,0,92,-4697,23,-45,-20,17
404,-1891,0,97,-4689,23,-45,-20,18
405,-1893,1,94,-4694,23,-44,-19,18
406,-1888,-3,93,-4688,23,-42,-20,16
407,-1896,2,97,-4687,23,-44,-20,17
408,-1905,2,97,-4690,23,-43,-19,17
409,-1899,-4,96,-4684,23,-43,-18,16
410,-1898,-8,94,-4682,23,-43,-19,16
411,-1892,0,95,-4686,23,-45,-17,16
412,-1894,-5,87,-4694,23,-44,-20,17
413,-1892,-1,93,-4691,23,-43,-20,17
414,-1886,2,93,-4676,23,-45,-20,17
415,-1895,-2,98,-4683,23,-44,-19,17
416,-1893,-2,96,-4682,23,-45,-19,17
417,-1890,-9,98,-4688,23,-45,-19,17
418,-1896,-6,92,-4694,23,-43,-19,17
419,-1893,0,90,-4689,23,-43,-21,17
420,-1895,1,88,-4684,23,-43,-20,16
421,-1896,-5,98,-4683,23,-44,-19,17
422,-1896,-5,94,-4684,23,-44,-19,17
423,-1899,-6,93,-4689,23,-44,-20,16
424,-1898,4,94,-4690,23,-44,-20,17
425,-1898,3,92,-4694,23,-44,-19,17
426,-1894,2,92,-4693,23,-43,-20,17
427,-1894,-3,93,-4686,23,-44,-20,17
428,-1890,-3,97,-4692,23,-44,-21,16
429,-1900,4,91,-4691,23,-45,-20,18
430,-1896,-3,100,-4692,23,-44,-18,18
431,-1893,-4,92,-4686,23,-44,-20,17
432,-1899,-2,94,-4690,23,-45,-20,16
433,-1893,4,96,-4693,23,-43,-20,16
434,-1901,0,91,-4681,23,-44,-19,17
435,-1888,5,99,-4686,23,-44,-20,18
436,-1895,-8,95,-4688,23,-43,-19,17
437,-1898,-2,90,-4694,23,-43,-19,17
438,-1892,-2,92,-4686,23,-45,-19,17
439,-1891,-2,96,-4683,23,-44,-20,18
440,-1896,-8,93,-4686,23,-45,-21,17
441,-1893,-5,96,-4684,23,-43,-18,17
442,-1891,-8,100,-4687,23,-44,-21,17
443,-1891,-4,92,-4682,23,-44,-20,17
444,-1894,1,91,-4689,23,-43,-20,16
445,-1893,-4,93,-4688,23,-43,-21,15
446,-1896,-1,100,-4692,23,-43,-21,17
447,-1899,-1,93,-4685,23,-44,-21,16
448,-1892,-3,88,-4688,23,-43,-20,16
449,-1898,-3,90,-4684,23,-44,-19,18
450,-1891,1,92,-4689,23,-45,-19,16
451,-1889,3,96,-4690,23,-45,-20,16
452,-1894,-2,95,-4676,23,-44,-20,17
453,-1895,-7,96,-4691,23,-43,-19,17
454,-1893,-7,102,-4692,23,-44,-19,18
455,-1896,-1,97,-4692,23,-44,-19,17
456,-1899,-2,96,-4689,23,-43,-19,18
457,-1896,-8,100,-4690,23,-45,-20,17
458,-1895,-5,95,-4687,23,-45,-19,16
459,-1891,0,94,-4683,23,-43,-18,16
460,-1891,0,94,-4688,23,-43,-20,16
461,-1896,-1,94,-4693,23,-45,-19,17
462,-1896,2,90,-4687,23,-44,-20,18
463,-1892,-6,100,-4679,23,-44,-22,15
464,-1898,1,95,-4692,23,-43,-20,16
465,-1895,2,101,-4687,23,-44,-19,17
466,-1895,-2,93,-4685,23,-43,-19,17
467,-1895,-6,96,-4686,23,-43,-18,16
468,-1896,-3,89,-4691,23,-44,-18,17
469,-1896,-4,91,-4682,23,-45,-19,16
470,-1894,-2,89,-4687,23,-44,-19,17
471,-1892,-1,93,-4686,23,-43,-20,17
472,-1897,-2,91,-4685,23,-44,-19,17
473,-1899,2,95,-4690,23,-44,-20,17
474,-1898,3,98,-4678,23,-43,-20,17
475,-1897,-5,96,-4688,23,-44,-20,17
476,-1899,-5,93,-4690,23,-44,-19,17
477,-1898,-6,98,-4686,23,-42,-18,17
478,-1892,2,95,-4689,23,-43,-20,17
479,-1893,-6,95,-4687,23,-44,-20,17
480,-1893,-3,97,-4681,23,-43,-20,18
481,-1897,2,97,-4688,23,-44,-20,18
482,-1899,-4,91,-4689,23,-44,-19,17
483,-1899,-8,96,-4691,23,-43,-20,17
484,-1889,-3,81,-4687,23,-45,-20,16
485,-1888,2,92,-4678,23,-44,-20,15
486,-1896,-2,91,-4684,23,-43,-21,17
487,-1900,-6,93,-4684,23,-44,-20,17
488,-1896,-4,97,-4691,23,-44,-20,17
489,-1896,-5,99,-4693,23,-42,-19,17
490,-1897,1,95,-4685,23,-43,-19,18
491,-1895,0,94,-4690,23,-45,-18,16
492,-1901,-1,91,-4691,23,-44,-20,17
493,-1894,-1,88,-4687,23,-44,-19,17
494,-1895,-1,98,-4678,23,-43,-19,17
495,-1893,-6,90,-4685,23,-45,-19,17
496,-1895,0,92,-4682,23,-44,-19,16
497,-1898,-1,84,-4689,23,-44,-18,17
498,-1900,0,94,-4688,23,-44,-18,17
499,-1898,2,94,-4685,23,-43,-19,18
500,-1891,-5,94,-4681,23,-44,-18,16
501,-1894,-2,94,-4680,23,-43,-21,17
502,-1893,1,98,-4690,23,-44,-21,17
503,-1890,-1,100,-4683,23,-44,-20,18
504,-1892,-2,90,-4686,23,-45,-22,18
505,-1887,-4,102,-4690,23,-43,-21,15
506,-1888,-2,96,-4692,23,-42,-22,17
507,-1893,-1,85,-4686,23,-44,-20,17
508,-1899,-5,93,-4692,23,-43,-20,17
509,-1892,-3,96,-4684,23,-45,-20,18
510,-1895,-2,99,-4689,23,-43,-18,16
511,-1894,-1,97,-4691,23,-43,-18,16
512,-1895,-8,100,-4686,23,-43,-19,17
513,-1893,-4,94,-4687,23,-43,-20,16
514,-1895,-3,90,-4685,23,-44,-18,17
515,-1894,-1,100,-4698,23,-44,-19,16
516,-1892,-4,101,-4690,23,-43,-20,16
517,-1900,-3,90,-4685,23,-43,-19,17
518,-1895,-4,95,-4683,23,-44,-19,18
519,-1893,-2,91,-4688,23,-43,-19,16
520,-1895,0,96,-4685,23,-45,-19,17
521,-1892,1,94,-4689,23,-43,-18,16
522,-1897,-3,92,-4684,23,-43,-19,17
523,-1899,-4,98,-4683,23,-45,-18,16
524,-1893,-2,102,-4687,23,-45,-19,16
525,-1898,-2,95,-4685,23,-43,-20,17
526,-1899,0,88,-4687,23,-44,-19,18
527,-1892,-2,94,-4694,23,-43,-20,17
528,-1896,-4,93,-4692,23,-42,-19,17
529,-1892,-1,83,-4689,23,-44,-19,18
530,-1890,-2,92,-4691,23,-44,-20,17
531,-1894,2,94,-4693,23,-43,-20,18
532,-1899,-2,95,-4690,23,-44,-19,17
533,-1894,-1,97,-4682,23,-43,-20,17
534,-1892,1,95,-4686,23,-43,-21,16
535,-1900,1,97,-4687,23,-43,-18,16
536,-1899,-1,100,-4694,23,-45,-19,17
537,-1894,-5,91,-4686,23,-44,-20,16
538,-1895,-5,99,-4689,23,-44,-19,17
539,-1896,-2,92,-4695,23,-43,-20,16
540,-1896,-4,95,-4693,23,-44,-20,17
541,-1893,0,96,-4691,23,-44,-19,17
542,-1890,-5,93,-4688,23,-43,-19,17
543,-1890,-5,96,-4687,23,-44,-19,18
544,-1897,-1,94,-4683,23,-43,-19,19
545,-1896,1,89,-4685,23,-42,-20,17
546,-1895,1,95,-4687,23,-42,-20,16
547,-1893,1,95,-4687,23,-45,-19,16
548,-1891,0,92,-4688,23,-44,-20,16
549,-1901,1,96,-4689,23,-43,-20,16
550,-1893,2,89,-4691,23,-44,-19,17
551,-1899,-4,91,-4682,23,-44,-19,18
552,-1894,-2,95,-4682,23,-43,-19,16
553,-1894,-5,89,-4687,23,-44,-20,17
554,-1896,-2,91,-4687,23,-43,-18,16
555,-1892,-7,95,-4684,23,-44,-20,15
556,-1894,-4,97,-4687,23,-44,-18,17
557,-1893,-3,96,-4695,23,-42,-20,18
558,-1895,-2,97,-4687,23,-43,-20,17
559,-1899,-1,94,-4690,23,-43,-19,17
560,-1897,-3,101,-4693,23,-43,-19,16
561,-1892,-2,96,-4688,23,-43,-18,17
562,-1897,0,94,-4686,23,-43,-20,16
563,-1894,4,90,-4676,23,-44,-20,17
564,-1897,1,88,-4684,23,-45,-20,17
565,-1895,-7,84,-4690,23,-44,-20,17
566,-1889,3,91,-4687,23,-43,-19,17
567,-1897,-8,93,-4683,23,-43,-20,18
568,-1898,-3,88,-4692,23,-44,-20,18
569,-1893,-3,96,-4686,23,-43,-19,16
570,-1899,0,93,-4680,23,-43,-21,17
571,-1898,-1,100,-4684,23,-43,-20,18
572,-1902,-2,93,-4684,23,-43,-19,16
573,-1890,-2,86,-4688,23,-43,-21,17
574,-1892,-2,90,-4685,23,-44,-19,16
575,-1890,-2,99,-4688,23,-44,-19,18
576,-1898,-4,98,-4680,23,-43,-20,16
577,-1895,-1,97,-4683,23,-43,-20,17
578,-1898,0,87,-4685,23,-42,-21,16
579,-1894,-1,92,-4684,23,-44,-19,17
580,-1895,-5,88,-4679,23,-44,-19,17
581,-1890,1,93,-4687,23,-43,-20,18
582,-1895,1,91,-4690,23,-43,-20,18
583,-1894,-4,93,-4689,23,-44,-19,19
584,-1894,-4,97,-4689,23,-43,-19,17
585,-1894,-2,95,-4682,23,-43,-20,18
586,-1895,-4,91,-4678,23,-44,-20,17
587,-1887,-2,95,-4686,23,-42,-19,17
588,-1897,2,97,-4680,23,-43,-21,16
589,-1895,-1,85,-4680,23,-44,-21,16
590,-1897,-4,95,-4678,23,-43,-19,18
591,-1894,-4,94,-4687,23,-42,-20,18
592,-1900,-4,87,-4685,23,-44,-20,17
593,-1899,4,99,-4692,23,-43,-19,15
594,-1896,-3,88,-4687,23,-44,-21,16
595,-1894,-2,95,-4682,23,-44,-20,16
596,-1894,-2,94,-4681,23,-45,-20,17
597,-1892,-6,92,-4680,23,-43,-20,18
598,-1896,-1,88,-4690,23,-44,-21,16
599,-1892,0,95,-4684,23,-44,-20,18
600,-1896,-4,93,-4681,23,-44,-18,17
601,-1893,0,89,-4683,23,-44,-18,18
602,-1894,-7,92,-4686,23,-43,-19,17
603,-1893,-1,87,-4689,23,-45,-20,17
604,-1901,0,94,-4692,23,-45,-19,16
605,-1897,-3,99,-4690,23,-43,-20,17
606,-1900,-4,97,-4686,23,-44,-20,17
607,-1896,0,92,-4692,23,-44,-20,17
608,-1894,-3,89,-4682,23,-43,-18,17
609,-1892,-1,95,-4687,23,-42,-21,16
610,-1894,1,101,-4685,23,-43,-21,17
611,-1893,0,92,-4682,23,-43,-20,17
612,-1891,1,96,-4682,23,-43,-20,17
613,-1897,3,89,-4680,23,-43,-20,17
614,-1895,0,99,-4681,23,-45,-21,17
615,-1899,2,94,-4686,23,-44,-19,17
616,-1889,-1,95,-4685,23,-44,-20,18
617,-1900,-2,95,-4680,23,-45,-20,17
618,-1897,-4,103,-4684,23,-43,-19,18
619,-1898,3,98,-4685,23,-44,-20,16
620,-1891,1,88,-4683,23,-45,-21,16
621,-1892,-1,98,-4677,23,-44,-18,17
622,-1895,-3,87,-4686,23,-44,-19,18
623,-1894,0,102,-4682,23,-44,-20,16
624,-1899,-5,106,-4684,23,-44,-20,17
625,-1894,-6,95,-4686,23,-44,-19,17
626,-1900,-2,95,-4675,23,-44,-19,17
627,-1896,-3,93,-4687,23,-42,-18,18
628,-1897,0,91,-4682,23,-44,-21,16
629,-1894,2,88,-4690,23,-45,-20,16
630,-1896,2,91,-4693,23,-43,-19,17
631,-1897,-3,93,-4684,23,-43,-20,17
632,-1901,3,90,-4682,23,-44,-20,17
633,-1891,2,92,-4681,23,-43,-20,18
634,-1896,-5,91,-4693,23,-44,-22,16
635,-1892,-2,97,-4685,23,-45,-20,18
636,-1898,-4,88,-4682,23,-44,-20,16
637,-1899,2,91,-4691,23,-44,-19,17
638,-1896,-2,86,-4684,23,-43,-19,18
639,-1893,-5,87,-4681,23,-44,-19,17
640,-1898,2,93,-4690,23,-44,-19,17
641,-1897,2,94,-4693,23,-43,-20,18
642,-1897,-3,97,-4694,23,-43,-18,17
643,-1895,-4,91,-4688,23,-42,-20,17
644,-1892,-3,89,-4679,23,-44,-20,17
645,-1894,2,86,-4687,23,-43,-21,17
646,-1892,-3,95,-4683,23,-44,-19,17
647,-1894,-5,88,-4683,23,-42,-21,18
648,-1897,1,88,-4684,23,-44,-21,17
649,-1895,-2,90,-4685,23,-44,-20,17
650,-1895,-5,96,-4683,23,-44,-19,17
651,-1896,-6,92,-4685,23,-43,-21,18
652,-1892,-3,92,-4684,23,-44,-20,18
653,-1890,-3,87,-4687,23,-44,-20,17
654,-1892,1,91,-4693,23,-43,-18,18
655,-1891,-9,87,-4684,23,-43,-20,16
656,-1895,-1,86,-4681,23,-43,-19,17
657,-1887,-7,87,-4687,23,-44,-19,16
658,-1895,-6,90,-4684,23,-43,-19,17
659,-1897,0,94,-4678,23,-44,-18,17
660,-1896,-3,84,-4680,23,-44,-20,17
661,-1900,-3,103,-4684,23,-44,-21,18
662,-1899,-5,91,-4684,23,-44,-22,17
663,-1894,1,92,-4677,23,-43,-20,16
664,-1897,-2,88,-4679,23,-43,-18,16
665,-1902,4,84,-4681,23,-42,-19,17
666,-1899,4,81,-4689,23,-44,-19,17
667,-1891,-2,92,-4685,23,-43,-20,16
668,-1891,0,95,-4691,23,-44,-19,16
669,-1896,3,90,-4688,23,-43,-20,17
670,-1892,-8,87,-4684,23,-44,-19,16
671,-1901,1,99,-4684,23,-44,-20,17
672,-1897,2,87,-4683,23,-44,-18,17
673,-1893,-1,90,-4685,23,-43,-18,17
674,-1896,1,90,-4679,23,-44,-20,18
675,-1901,4,90,-4682,23,-43,-20,17
676,-1893,-2,89,-4685,23,-43,-20,18
677,-1895,-1,90,-4690,23,-44,-19,16
678,-1897,-2,96,-4682,23,-44,-20,19
679,-1894,1,95,-4681,23,-44,-19,17
680,-1894,-5,97,-4683,23,-43,-20,18
681,-1895,-1,87,-4689,23,-44,-20,18
682,-1896,-1,87,-4683,23,-43,-19,18
683,-1898,-7,95,-4687,23,-44,-20,18
684,-1895,-2,94,-4689,23,-44,-20,18
685,-1892,-2,91,-4685,23,-44,-20,17
686,-1893,-2,85,-4683,23,-43,-19,17
687,-1901,-4,91,-4677,23,-43,-19,17
688,-1893,-3,93,-4689,23,-44,-19,15
689,-1898,0,91,-4685,23,-43,-20,17
690,-1892,-2,87,-4683,23,-45,-20,17
691,-1896,-4,89,-4691,23,-43,-20,16
692,-1894,-6,96,-4684,23,-43,-20,16
693,-1893,-2,92,-4687,23,-43,-21,18
694,-1898,-3,91,-4688,23,-44,-21,16
695,-1888,-7,94,-4686,23,-44,-20,18
696,-1894,-2,95,-4683,23,-43,-19,17
697,-1895,-5,90,-4687,23,-44,-20,17
698,-1894,-2,96,-4691,23,-44,-18,17
699,-1895,-3,96,-4683,23,-45,-19,18
700,-1896,-3,91,-4682,23,-43,-20,17
701,-1895,-2,88,-4678,23,-44,-20,17
702,-1892,-6,87,-4686,23,-44,-19,16
703,-1898,-4,89,-4684,23,-44,-20,17
704,-1894,2,89,-4678,23,-44,-20,18
705,-1891,4,97,-4685,23,-44,-20,17
706,-1898,0,95,-4684,23,-44,-19,17
707,-1896,-8,98,-4683,23,-46,-19,16
708,-1895,-3,88,-4685,23,-43,-18,18
709,-1902,-5,96,-4684,23,-44,-20,17
710,-1894,2,94,-4688,23,-43,-19,17
711,-1889,0,98,-4686,23,-44,-20,17
712,-1892,-2,93,-4683,23,-44,-20,16
713,-1892,0,94,-4684,23,-44,-20,18
714,-1895,-6,93,-4677,23,-44,-21,17
715,-1900,-5,96,-4673,23,-43,-19,16
716,-1895,0,95,-4675,23,-44,-20,17
717,-1896,-2,97,-4681,23,-44,-20,19
718,-1894,1,89,-4684,23,-45,-20,18
719,-1895,2,93,-4686,23,-44,-20,17
720,-1898,-1,92,-4692,23,-44,-20,17
721,-1896,-7,93,-4681,23,-44,-19,18
722,-1899,-4,99,-4680,23,-44,-20,18
723,-1891,-7,90,-4674,23,-44,-18,17
724,-1889,3,97,-4688,23,-44,-20,17
725,-1894,1,99,-4679,23,-42,-19,17
726,-1895,-8,89,-4680,23,-44,-20,17
727,-1897,-9,89,-4681,23,-43,-20,17
728,-1898,-3,89,-4667,23,-43,-21,18
729,-1898,0,86,-4684,23,-45,-19,17
730,-1893,-7,95,-4679,23,-45,-19,16
731,-1894,1,95,-4681,23,-44,-20,18
732,-1898,-6,97,-4682,23,-45,-20,18
733,-1897,-4,91,-4687,23,-43,-19,17
734,-1894,-1,97,-4683,23,-43,-20,18
735,-1894,-4,91,-4685,23,-44,-20,18
736,-1898,-6,91,-4682,23,-43,-18,18
737,-1892,-2,83,-4683,23,-44,-19,17
738,-1891,-1,98,-4689,23,-44,-18,17
739,-1890,-3,94,-4688,23,-43,-19,17
740,-1896,-1,91,-4684,23,-43,-20,17
741,-1896,-2,89,-4682,23,-42,-21,18
742,-1893,-4,90,-4677,23,-43,-20,17
743,-1889,-1,95,-4685,23,-44,-20,18
744,-1895,4,97,-4684,23,-44,-18,17
745,-1890,0,91,-4682,23,-44,-20,18
746,-1896,-3,91,-4679,23,-44,-18,17
747,-1897,-1,97,-4685,23,-43,-20,17
748,-1894,-6,94,-4681,23,-43,-20,17
749,-1895,-7,96,-4674,23,-44,-19,17
750,-1897,1,91,-4681,23,-44,-19,17
751,-1890,0,101,-4688,23,-43,-21,16
752,-1893,-2,91,-4686,23,-44,-19,17
753,-1895,-2,94,-4685,23,-42,-21,17
754,-1896,-2,90,-4683,23,-43,-21,18
755,-1899,0,88,-4682,23,-43,-19,17
756,-1896,0,98,-4680,23,-44,-19,18
757,-1894,-2,91,-4680,23,-43,-20,18
758,-1895,-3,98,-4683,23,-43,-19,17
759,-1895,-1,93,-4678,23,-43,-18,16
760,-1896,-3,94,-4678,23,-44,-19,16
761,-1893,4,99,-4680,23,-44,-20,16
762,-1894,-5,92,-4675,23,-43,-19,17
763,-1896,-2,97,-4673,23,-43,-19,18
764,-1895,-7,92,-4679,23,-44,-20,18
765,-1895,1,92,-4690,23,-45,-21,16
766,-1892,-5,91,-4687,23,-44,-20,18
767,-1895,-4,90,-4682,23,-43,-20,17
768,-1898,-2,102,-4679,23,-45,-19,17
769,-1898,-5,99,-4681,23,-45,-19,17
770,-1898,-1,91,-4681,23,-44,-20,17
771,-1895,1,92,-4688,23,-44,-19,17
772,-1898,-1,86,-4682,23,-44,-20,16
773,-1900,-4,90,-4680,23,-44,-19,17
774,-1897,-2,100,-4686,23,-44,-18,16
775,-1895,-5,92,-4678,23,-43,-20,17
776,-1893,1,93,-4676,23,-44,-20,16
777,-1891,-4,97,-4676,23,-44,-20,16
778,-1895,1,89,-4672,23,-43,-19,17
779,-1886,-5,86,-4682,23,-44,-19,17
780,-1896,-3,83,-4684,23,-44,-20,17
781,-1893,-1,99,-4684,23,-43,-19,17
782,-1896,-1,100,-4689,23,-44,-20,16
783,-1893,-1,91,-4687,23,-44,-20,17
784,-1895,-3,95,-4683,23,-43,-19,17
785,-1897,-2,95,-4682,23,-44,-19,18
786,-1897,0,89,-4680,23,-44,-18,17
787,-1897,-3,96,-4678,23,-43,-20,17
788,-1892,-5,93,-4687,23,-43,-19,17
789,-1897,0,90,-4685,23,-43,-22,18
790,-1896,1,93,-4688,23,-42,-20,17
791,-1895,-3,98,-4683,23,-44,-20,18
792,-1889,-5,100,-4671,23,-44,-20,17
793,-1900,-2,89,-4682,23,-43,-19,17
794,-1897,0,100,-4687,23,-43,-21,18
795,-1901,-4,91,-4684,23,-44,-19,19
796,-1892,-2,90,-4681,23,-44,-19,17
797,-1894,0,90,-4684,23,-45,-18,16
798,-1898,-1,94,-4689,23,-44,-20,17
799,-1892,-4,101,-4685,23,-44,-20,17
800,-1893,0,97,-4682,23,-44,-20,17
801,-1898,1,79,-4687,23,-44,-20,17
802,-1897,0,89,-4685,23,-43,-20,16
803,-1897,1,98,-4686,23,-44,-21,17
804,-1895,-4,90,-4686,23,-43,-20,17
805,-1897,-4,89,-4680,23,-45,-18,16
806,-1896,-7,94,-4689,23,-45,-20,17
807,-1896,-6,97,-4681,23,-44,-20,18
808,-1895,-4,92,-4682,23,-42,-20,17
809,-1897,-3,89,-4696,23,-44,-20,17
810,-1896,-3,90,-4681,23,-44,-20,18
811,-1892,0,92,-4679,23,-43,-20,17
812,-1893,-5,89,-4688,23,-43,-21,17
813,-1895,1,95,-4682,23,-44,-19,17
814,-1896,-5,90,-4680,23,-44,-19,18
815,-1896,-2,88,-4673,23,-43,-20,17
816,-1898,1,89,-4678,23,-45,-18,17
817,-1898,0,98,-4681,23,-42,-19,16
818,-1894,-5,83,-4685,23,-43,-21,16
819,-1893,-10,86,-4680,23,-45,-20,17
820,-1890,-5,96,-4677,23,-43,-20,18
821,-1898,-6,95,-4684,23,-44,-20,17
822,-1896,3,95,-4677,23,-44,-20,16
823,-1895,-7,100,-4682,23,-44,-19,18
824,-1899,-1,95,-4684,23,-44,-19,18
825,-1897,-1,93,-4681,23,-45,-20,17
826,-1891,1,81,-4683,23,-44,-20,16
827,-1897,-2,94,-4683,23,-42,-20,17
828,-1891,0,91,-4682,23,-42,-20,18
829,-1894,-4,97,-4688,23,-44,-19,17
830,-1896,-2,97,-4677,23,-43,-20,18
831,-1898,-2,87,-4680,23,-44,-20,17
832,-1902,5,93,-4673,23,-43,-20,17
833,-1898,-2,85,-4679,23,-43,-18,17
834,-1896,-1,91,-4680,23,-45,-20,17
835,-1892,1,94,-4677,23,-44,-21,18
836,-1893,0,100,-4684,23,-43,-19,17
837,-1895,-2,101,-4681,23,-43,-19,16
838,-1900,-6,93,-4678,23,-45,-20,17
839,-1899,-2,94,-4676,23,-45,-20,16
840,-1895,2,92,-4680,23,-43,-19,16
841,-1894,-3,95,-4683,23,-43,-20,17
842,-1894,-4,94,-4676,23,-44,-18,16
843,-1899,0,100,-4684,23,-45,-18,17
844,-1895,-3,103,-4680,23,-44,-18,17
845,-1894,2,93,-4675,23,-43,-19,17
846,-1893,-2,89,-4679,23,-44,-19,17
847,-1890,0,95,-4682,23,-43,-19,16
848,-1895,-8,96,-4688,23,-43,-18,16
849,-1897,-3,92,-4691,23,-42,-19,16
850,-1890,-9,86,-4693,23,-43,-19,18
851,-1897,-3,92,-4682,23,-45,-20,16
852,-1890,2,92,-4683,23,-44,-20,17
853,-1893,-1,89,-4684,23,-43,-20,18
854,-1896,-3,90,-4690,23,-43,-18,17
855,-1894,2,92,-4682,23,-44,-19,16
856,-1895,-3,91,-4686,23,-43,-21,17
857,-1896,0,95,-4689,23,-44,-20,17
858,-1897,-5,87,-4681,23,-43,-20,17
859,-1894,-1,89,-4686,23,-44,-18,16
860,-1891,-4,93,-4682,23,-45,-20,17
861,-1897,-2,92,-4682,23,-43,-19,17
862,-1897,-1,102,-4681,23,-44,-20,17
863,-1896,0,93,-4681,23,-43,-20,18
864,-1894,-2,93,-4678,23,-45,-19,17
865,-1893,-2,95,-4678,23,-44,-19,16
866,-1895,-5,91,-4678,23,-42,-19,17
867,-1895,-3,93,-4687,23,-45,-20,17
868,-1896,-5,95,-4684,23,-43,-19,17
869,-1894,-10,95,-4680,23,-44,-20,17
870,-1898,-4,92,-4676,23,-43,-20,18
871,-1897,-2,93,-4677,23,-44,-19,18
872,-1900,4,97,-4680,23,-44,-19,17
873,-1899,-3,84,-4679,23,-43,-21,16
874,-1897,-1,92,-4682,23,-43,-21,17
875,-1891,-4,90,-4683,23,-42,-20,17
876,-1899,-5,86,-4682,23,-44,-19,17
877,-1894,-4,96,-4681,23,-44,-19,17
878,-1895,-1,94,-4685,23,-44,-21,18
879,-1900,-5,95,-4679,23,-43,-20,17
880,-1896,-1,93,-4676,23,-45,-20,17
881,-1890,3,85,-4679,23,-43,-19,17
882,-1899,0,91,-4685,23,-44,-20,18
883,-1895,-3,90,-4681,23,-42,-20,17
884,-1898,-2,95,-4680,23,-45,-20,17
885,-1897,-2,100,-4683,23,-44,-20,18
886,-1900,-2,95,-4684,23,-43,-20,16
887,-1893,0,87,-4679,23,-43,-20,18
888,-1892,-2,89,-4681,23,-43,-19,17
889,-1898,-3,87,-4683,23,-44,-18,18
890,-1900,-1,86,-4689,23,-44,-21,17
891,-1898,-1,94,-4687,23,-43,-20,18
892,-1898,2,91,-4686,23,-43,-20,17
893,-1893,-2,84,-4677,23,-44,-18,17
894,-1896,-4,92,-4678,23,-43,-20,17
895,-1893,1,86,-4677,23,-44,-20,18
896,-1895,-1,96,-4690,23,-45,-18,17
897,-1893,-3,96,-4678,23,-44,-19,18
898,-1893,-8,98,-4688,23,-43,-20,18
899,-1900,-4,100,-4686,23,-43,-20,16
900,-1901,-3,90,-4681,23,-45,-19,16
901,-1895,-2,91,-4682,23,-44,-20,16
902,-1894,-3,96,-4677,23,-45,-19,16
903,-1893,-5,93,-4683,23,-44,-19,17
904,-1894,3,94,-4687,23,-45,-18,16
905,-1898,-4,96,-4681,23,-44,-19,16
906,-1894,-3,91,-4677,23,-44,-20,17
907,-1894,-8,98,-4678,23,-44,-21,17
908,-1896,-6,99,-4681,23,-44,-20,17
909,-1899,-10,94,-4679,23,-43,-20,18
910,-1891,-2,89,-4680,23,-44,-20,18
911,-1896,3,95,-4684,23,-43,-19,17
912,-1888,-5,86,-4679,23,-43,-19,17
913,-1890,-6,88,-4678,23,-43,-19,17
914,-1899,0,96,-4685,23,-44,-21,17
915,-1890,-1,91,-4686,23,-45,-20,18
916,-1898,0,88,-4678,23,-44,-20,18
917,-1893,3,91,-4671,23,-42,-20,17
918,-1898,-1,93,-4683,23,-44,-20,18
919,-1894,-3,90,-4681,23,-44,-19,16
920,-1894,-7,94,-4684,23,-43,-19,17
921,-1898,1,94,-4687,23,-45,-19,18
922,-1895,-4,87,-4682,23,-43,-19,17
923,-1894,0,97,-4674,23,-44,-19,17
924,-1894,-3,91,-4675,23,-42,-19,17
925,-1894,-1,96,-4684,23,-44,-19,17
926,-1899,0,97,-4690,23,-45,-20,17
927,-1896,-3,90,-4676,23,-44,-19,17
928,-1893,0,93,-4683,23,-44,-20,17
929,-1894,-1,94,-4683,23,-44,-19,17
930,-1891,1,96,-4682,23,-44,-20,18
931,-1894,-3,93,-4681,23,-44,-18,18
932,-1891,0,96,-4680,23,-45,-19,17
933,-1891,0,92,-4680,23,-44,-18,16
934,-1895,0,96,-4683,23,-45,-19,18
935,-1895,-1,95,-4686,23,-44,-19,18
936,-1892,-6,95,-4689,23,-44,-19,17
937,-1897,-3,93,-4676,23,-44,-20,18
938,-1894,-1,91,-4679,23,-45,-20,17
939,-1894,-1,93,-4680,23,-44,-19,16
940,-1891,-6,90,-4679,23,-43,-20,17
941,-1897,-3,93,-4686,23,-44,-18,17
942,-1895,-5,90,-4673,23,-43,-19,16
943,-1897,-1,87,-4680,23,-44,-19,17
944,-1891,4,96,-4679,23,-45,-20,18
945,-1899,1,95,-4690,23,-43,-20,18
946,-1896,-1,92,-4681,23,-43,-20,17
947,-1894,1,91,-4678,23,-44,-20,17
948,-1891,-4,99,-4685,23,-45,-21,17
949,-1897,-4,80,-4686,23,-45,-20,16
950,-1895,0,91,-4684,23,-44,-19,17
951,-1893,-2,102,-4679,23,-44,-18,17
952,-1893,-2,94,-4679,23,-43,-19,17
953,-1894,3,90,-4679,23,-42,-19,17
954,-1895,-7,86,-4682,23,-42,-20,18
955,-1892,-3,95,-4677,23,-45,-19,17
956,-1899,-6,93,-4679,23,-42,-20,17
957,-1892,-2,85,-4685,23,-45,-19,18
958,-1897,-5,91,-4683,23,-43,-20,17
959,-1897,-3,87,-4672,23,-43,-19,18
960,-1894,-3,89,-4685,23,-42,-20,18
961,-1895,-5,94,-4685,23,-44,-20,18
962,-1897,-3,89,-4682,23,-44,-19,18
963,-1900,-3,91,-4681,23,-44,-19,17
964,-1897,-3,94,-4684,23,-44,-19,17
965,-1890,-4,102,-4681,23,-45,-20,17
966,-1899,-3,92,-4672,23,-43,-20,17
967,-1897,-7,101,-4682,23,-45,-21,17
968,-1896,1,92,-4681,23,-44,-18,17
969,-1891,-3,96,-4674,23,-43,-19,17
970,-1898,-5,83,-4683,23,-44,-19,16
971,-1894,-3,86,-4685,23,-44,-20,17
972,-1898,-3,95,-4678,23,-45,-20,18
973,-1898,-2,99,-4685,23,-45,-19,18
974,-1898,2,90,-4676,23,-44,-19,17
975,-1893,-2,85,-4682,23,-44,-18,17
976,-1887,-1,88,-4681,23,-42,-20,17
977,-1890,-2,99,-4681,23,-43,-19,17
978,-1897,1,93,-4678,23,-42,-20,17
979,-1901,-7,91,-4684,23,-44,-20,17
980,-1894,-5,95,-4685,23,-43,-19,17
981,-1893,-5,100,-4677,23,-44,-19,17
982,-1892,-1,101,-4679,23,-44,-18,16
983,-1889,-4,93,-4681,23,-43,-20,16
984,-1898,-2,101,-4682,23,-44,-20,17
985,-1898,-3,91,-4682,23,-44,-20,17
986,-1896,-3,90,-4685,23,-43,-20,17
987,-1897,-4,95,-4674,23,-43,-20,16
988,-1897,-3,95,-4686,23,-43,-20,16
989,-1895,0,94,-4680,23,-44,-20,17
990,-1898,-2,88,-4676,23,-44,-20,17
991,-1896,-2,91,-4681,23,-45,-18,17
992,-1895,-2,90,-4676,23,-43,-19,16
993,-1894,3,83,-4675,23,-43,-20,16
994,-1894,-2,88,-4676,23,-44,-21,17
995,-1893,-5,92,-4680,23,-44,-19,17
996,-1894,-2,91,-4674,23,-44,-20,16
997,-1900,-1,85,-4680,23,-43,-18,17
998,-1897,-5,93,-4677,23,-44,-19,17
