,acc_X,acc_Y,acc_Z,temp,tempC,gyr_X,gyr_Y,gyr_Z
0,-3777,-4,186,-4672,23,-350,-150,139
1,-3786,3,189,-4670,23,-347,-147,141
2,-3793,3,188,-4673,23,-345,-150,144
3,-3789,-12,185,-4669,23,-343,-152,141
4,-3790,-3,184,-4668,23,-345,-142,145
5,-3788,-5,186,-4668,23,-350,-151,144
6,-3779,-7,187,-4670,23,-352,-149,144
7,-3785,-8,197,-4672,23,-350,-149,137
8,-3783,1,191,-4671,23,-349,-154,141
9,-3789,-5,197,-4671,23,-348,-154,143
10,-3787,-11,190,-4668,23,-348,-156,141
11,-3787,-3,172,-4674,23,-351,-164,137
12,-3790,-2,183,-4671,23,-345,-157,141
13,-3790,-7,188,-4668,23,-339,-146,145
14,-3790,-7,188,-4671,23,-340,-154,139
15,-3792,-5,185,-4671,23,-346,-152,142
16,-3789,-8,187,-4669,23,-347,-149,143
17,-3793,-8,193,-4668,23,-347,-148,135
18,-3795,-2,190,-4667,23,-345,-149,140
19,-3784,-1,188,-4671,23,-347,-151,138
20,-3786,-1,186,-4671,23,-350,-154,137
21,-3792,-8,182,-4671,23,-343,-158,138
22,-3797,-4,178,-4669,23,-339,-163,139
23,-3784,-11,181,-4668,23,-351,-160,138
24,-3783,-8,182,-4670,23,-353,-159,132
25,-3785,-10,178,-4671,23,-351,-157,138
26,-3792,-13,184,-4677,23,-345,-156,145
27,-3789,-10,195,-4675,23,-345,-157,143
28,-3795,-10,190,-4674,23,-341,-157,141
29,-3787,-13,198,-4668,23,-337,-151,141
30,-3794,-9,201,-4669,23,-334,-157,142
31,-3790,2,184,-4673,23,-343,-149,140
32,-3793,-6,183,-4671,23,-345,-146,142
33,-3788,-6,178,-4669,23,-339,-146,140
34,-3787,-7,179,-4669,23,-335,-153,139
35,-3780,-6,182,-4672,23,-339,-150,137
36,-3786,-4,190,-4670,23,-343,-158,135
37,-3791,-1,196,-4675,23,-345,-155,140
38,-3788,2,184,-4672,23,-343,-159,139
39,-3779,3,180,-4672,23,-348,-151,138
40,-3790,-3,178,-4669,23,-349,-151,137
41,-3782,-8,174,-4670,23,-342,-153,142
42,-3785,-5,182,-4668,23,-344,-156,141
43,-3785,-8,179,-4670,23,-350,-146,144
44,-3791,-10,183,-4670,23,-347,-149,142
45,-3789,-11,191,-4666,23,-341,-149,141
46,-3783,-14,184,-4668,23,-351,-150,138
47,-3788,-6,188,-4668,23,-348,-148,140
48,-3789,-1,196,-4668,23,-341,-161,137
49,-3790,-4,194,-4665,23,-343,-151,134
50,-3789,-4,182,-4667,23,-349,-154,135
51,-3780,1,189,-4668,23,-343,-151,139
52,-3788,3,190,-4665,23,-341,-157,144
53,-3788,0,195,-4666,23,-339,-149,140
54,-3783,-2,189,-4661,23,-343,-152,140
55,-3796,-5,184,-4660,23,-348,-153,139
56,-3797,8,177,-4668,23,-340,-146,141
57,-3793,3,186,-4665,23,-345,-147,141
58,-3793,-3,200,-4669,23,-343,-151,136
59,-3791,-4,194,-4669,23,-347,-148,138
60,-3782,-11,198,-4668,23,-351,-151,134
61,-3790,-10,189,-4667,23,-350,-151,137
62,-3791,-2,187,-4664,23,-348,-152,138
63,-3790,1,187,-4668,23,-348,-150,140
64,-3783,-2,183,-4669,23,-340,-143,142
65,-3786,1,175,-4668,23,-350,-147,143
66,-3784,-11,190,-4666,23,-348,-153,143
67,-3789,-7,190,-4670,23,-346,-149,136
68,-3795,-8,185,-4669,23,-343,-154,145
69,-3791,-5,192,-4662,23,-344,-155,142
70,-3790,-8,184,-4659,23,-346,-151,145
71,-3790,-3,181,-4667,23,-351,-149,140
72,-3784,-4,184,-4663,23,-346,-155,138
73,-3793,-2,187,-4665,23,-345,-159,141
74,-3787,-8,189,-4667,23,-349,-150,140
75,-3781,-11,184,-4667,23,-348,-153,146
76,-3782,-6,196,-4671,23,-340,-153,137
77,-3783,-7,198,-4672,23,-337,-150,137
78,-3788,-7,179,-4667,23,-345,-154,138
79,-3781,-10,184,-4670,23,-347,-149,141
80,-3784,-11,192,-4672,23,-349,-145,136
81,-3778,-3,189,-4663,23,-350,-145,135
82,-3781,-1,187,-4667,23,-344,-144,140
83,-3785,-3,188,-4671,23,-341,-150,141
84,-3790,-1,185,-4665,23,-347,-151,141
85,-3788,-10,195,-4664,23,-349,-151,136
86,-3791,-11,187,-4667,23,-352,-148,139
87,-3789,-8,191,-4664,23,-344,-150,140
88,-3787,0,194,-4665,23,-348,-148,139
89,-3780,-5,187,-4666,23,-352,-152,138
90,-3780,-6,194,-4664,23,-347,-151,142
91,-3787,-2,185,-4668,23,-346,-157,141
92,-3791,-6,185,-4670,23,-349,-151,144
93,-3784,3,188,-4672,23,-343,-155,137
94,-3787,-2,196,-4674,23,-349,-151,142
95,-3789,3,196,-4669,23,-350,-149,142
96,-3792,-4,188,-4666,23,-351,-154,139
97,-3787,0,186,-4667,23,-357,-151,135
98,-3789,6,181,-4667,23,-349,-152,142
99,-3786,-2,190,-4667,23,-347,-153,142
100,-3781,-3,195,-4666,23,-347,-156,140
101,-3786,-2,187,-4665,23,-351,-150,138
102,-3789,-6,178,-4669,23,-354,-156,147
103,-3789,2,185,-4663,23,-346,-148,135
104,-3790,-6,180,-4666,23,-343,-150,130
105,-3785,-1,179,-4663,23,-341,-152,140
106,-3788,-3,182,-4662,23,-347,-144,136
107,-3793,-5,190,-4669,23,-348,-149,139
108,-3785,-8,187,-4662,23,-346,-156,141
109,-3789,-2,183,-4663,23,-346,-146,139
110,-3790,-1,178,-4666,23,-350,-152,136
111,-3785,-4,189,-4667,23,-350,-146,137
112,-3783,0,186,-4666,23,-352,-151,133
113,-3790,-3,194,-4668,23,-351,-156,141
114,-3785,-2,189,-4669,23,-347,-151,143
115,-3787,0,188,-4673,23,-349,-151,144
116,-3791,-1,184,-4677,23,-349,-150,144
117,-3795,-1,187,-4671,23,-346,-153,141
118,-3786,1,191,-4672,23,-347,-149,140
119,-3784,5,198,-4670,23,-344,-155,136
120,-3784,-6,185,-4668,23,-345,-152,144
121,-3788,-5,180,-4673,23,-342,-148,141
122,-3789,-4,179,-4666,23,-353,-152,135
123,-3794,-1,186,-4666,23,-355,-156,139
124,-3786,-3,193,-4667,23,-348,-161,141
125,-3784,-3,189,-4663,23,-347,-159,142
126,-3786,-5,187,-4666,23,-350,-155,140
127,-3791,-5,181,-4663,23,-345,-156,138
128,-3790,1,177,-4661,23,-341,-154,139
129,-3790,3,180,-4664,23,-347,-154,141
130,-3786,3,180,-4668,23,-351,-159,142
131,-3782,-5,183,-4670,23,-344,-159,133
132,-3794,-1,176,-4668,23,-345,-152,131
133,-3788,-7,188,-4667,23,-346,-156,136
134,-3792,-6,194,-4668,23,-348,-153,140
135,-3792,-9,191,-4670,23,-349,-158,138
136,-3790,1,191,-4671,23,-349,-158,141
137,-3789,-3,193,-4669,23,-352,-155,138
138,-3788,-3,185,-4669,23,-348,-154,138
139,-3788,-7,175,-4665,23,-346,-145,140
140,-3784,-2,183,-4663,23,-346,-155,139
141,-3793,-10,187,-4669,23,-345,-157,136
142,-3795,-5,182,-4667,23,-348,-156,143
143,-3780,3,186,-4670,23,-338,-153,137
144,-3788,-3,196,-4669,23,-342,-153,139
145,-3788,-2,181,-4666,23,-343,-147,139
146,-3788,3,188,-4666,23,-344,-148,140
147,-3787,-2,180,-4669,23,-344,-157,135
148,-3790,-5,189,-4669,23,-347,-149,134
149,-3790,0,198,-4668,23,-347,-155,142
150,-3785,-4,191,-4663,23,-348,-154,151
151,-3793,-4,191,-4662,23,-351,-150,137
152,-3792,-3,194,-4667,23,-347,-150,135
153,-3792,-1,189,-4668,23,-346,-160,135
154,-3787,2,183,-4667,23,-344,-153,133
155,-3788,-1,183,-4668,23,-347,-155,139
156,-3787,-4,169,-4664,23,-346,-154,136
157,-3784,-10,186,-4666,23,-348,-155,137
158,-3787,-10,174,-4671,23,-348,-152,140
159,-3794,-6,184,-4664,23,-347,-155,137
160,-3801,-2,195,-4667,23,-345,-157,136
161,-3788,-1,193,-4666,23,-348,-157,140
162,-3795,-4,187,-4662,23,-339,-152,143
163,-3792,-2,191,-4663,23,-342,-150,140
164,-3793,5,192,-4665,23,-348,-148,141
165,-3788,0,184,-4665,23,-347,-146,142
166,-3790,2,190,-4663,23,-345,-150,137
167,-3786,7,187,-4666,23,-343,-152,136
168,-3791,6,177,-4669,23,-354,-156,141
169,-3788,3,195,-4665,23,-343,-150,138
170,-3794,1,190,-4665,23,-348,-143,140
171,-3792,-4,192,-4669,23,-345,-153,140
172,-3787,-3,196,-4667,23,-349,-156,137
173,-3786,-4,202,-4669,23,-339,-153,137
174,-3782,-10,193,-4667,23,-346,-154,136
175,-3789,0,188,-4665,23,-347,-148,142
176,-3789,-5,196,-4670,23,-344,-151,140
177,-3785,-10,187,-4664,23,-344,-155,140
178,-3779,-8,184,-4667,23,-356,-154,141
179,-3784,-5,184,-4670,23,-349,-157,144
180,-3787,-8,186,-4668,23,-352,-152,142
181,-3786,1,187,-4672,23,-348,-151,137
182,-3788,1,188,-4669,23,-345,-153,143
183,-3787,-8,190,-4664,23,-345,-149,144
184,-3791,1,194,-4662,23,-349,-152,143
185,-3790,-5,196,-4664,23,-352,-151,145
186,-3782,-6,195,-4669,23,-347,-150,136
187,-3783,-2,195,-4668,23,-348,-151,136
188,-3787,-6,187,-4667,23,-346,-158,140
189,-3785,-4,186,-4665,23,-341,-154,134
190,-3785,-11,189,-4666,23,-347,-149,136
191,-3789,-3,191,-4664,23,-355,-147,142
192,-3792,-6,192,-4660,23,-348,-151,145
193,-3783,-2,192,-4670,23,-345,-148,142
194,-3789,-4,184,-4672,23,-342,-150,138
195,-3786,4,190,-4669,23,-344,-157,143
196,-3786,-8,182,-4670,23,-349,-148,144
197,-3791,-9,182,-4666,23,-343,-148,141
198,-3795,-6,196,-4664,23,-337,-149,139
199,-3790,-4,202,-4661,23,-348,-151,139
200,-3787,-5,189,-4664,23,-354,-150,142
201,-3783,-6,189,-4664,23,-346,-154,147
202,-3788,-6,175,-4668,23,-351,-153,137
203,-3788,-1,191,-4666,23,-346,-158,139
204,-3794,-14,196,-4665,23,-347,-162,142
205,-3795,-4,203,-4665,23,-349,-158,135
206,-3784,-6,189,-4668,23,-351,-158,135
207,-3792,0,198,-4666,23,-349,-150,135
208,-3789,-3,183,-4666,23,-348,-156,142
209,-3786,-2,191,-4669,23,-346,-154,135
210,-3790,-2,180,-4663,23,-346,-157,144
211,-3792,-4,172,-4662,23,-345,-162,142
212,-3795,-14,182,-4668,23,-348,-163,140
213,-3792,-2,193,-4668,23,-342,-158,142
214,-3788,-11,193,-4665,23,-344,-154,138
215,-3788,-9,184,-4670,23,-345,-152,144
216,-3786,-8,186,-4666,23,-354,-152,139
217,-3788,-1,180,-4659,23,-357,-158,139
218,-3788,3,190,-4667,23,-351,-156,142
219,-3800,-3,208,-4664,23,-347,-156,141
220,-3797,-3,199,-4668,23,-345,-157,134
221,-3799,-1,188,-4661,23,-346,-158,137
222,-3791,-2,190,-4665,23,-346,-159,138
223,-3781,0,193,-4664,23,-345,-156,138
224,-3790,-3,198,-4668,23,-354,-156,139
225,-3787,-10,194,-4664,23,-347,-150,136
226,-3793,-2,194,-4663,23,-348,-151,136
227,-3793,-12,202,-4664,23,-346,-155,140
228,-3788,-12,177,-4667,23,-348,-147,143
229,-3789,-5,180,-4665,23,-343,-152,141
230,-3790,0,185,-4664,23,-351,-153,144
231,-3790,-4,189,-4662,23,-344,-158,136
232,-3790,-7,189,-4661,23,-347,-149,137
233,-3791,-5,188,-4668,23,-342,-154,135
234,-3790,-7,188,-4665,23,-338,-150,140
235,-3788,-2,200,-4668,23,-337,-153,141
236,-3796,-7,193,-4671,23,-341,-148,146
237,-3793,-10,185,-4667,23,-349,-153,142
238,-3790,-1,200,-4661,23,-343,-151,143
239,-3777,-1,192,-4664,23,-353,-152,137
240,-3787,-8,187,-4664,23,-347,-149,138
241,-3786,-10,188,-4666,23,-348,-150,145
242,-3787,-4,188,-4669,23,-344,-156,137
243,-3789,-1,178,-4666,23,-344,-147,140
244,-3786,0,187,-4665,23,-340,-150,146
245,-3784,-1,180,-4668,23,-341,-160,142
246,-3783,3,182,-4670,23,-340,-145,139
247,-3791,-2,180,-4671,23,-347,-151,141
248,-3795,-9,181,-4670,23,-351,-156,145
249,-3792,-10,183,-4664,23,-348,-155,140
250,-3790,-6,187,-4671,23,-345,-156,143
251,-3793,2,193,-4670,23,-347,-150,141
252,-3790,-11,189,-4664,23,-349,-147,145
253,-3776,-4,195,-4665,23,-344,-147,142
254,-3783,-7,198,-4662,23,-344,-155,139
255,-3789,-7,196,-4662,23,-357,-155,138
256,-3789,-6,188,-4665,23,-349,-162,136
257,-3788,-2,186,-4668,23,-355,-161,139
258,-3788,-4,192,-4666,23,-350,-156,133
259,-3788,-8,182,-4666,23,-348,-157,135
260,-3785,-3,188,-4669,23,-350,-157,140
261,-3787,-7,191,-4671,23,-351,-157,145
262,-3789,-2,188,-4672,23,-345,-153,144
263,-3786,-2,182,-4667,23,-341,-147,147
264,-3790,-2,167,-4665,23,-343,-156,147
265,-3789,-4,181,-4664,23,-349,-149,144
266,-3782,-1,189,-4664,23,-345,-151,136
267,-3787,4,208,-4665,23,-347,-152,139
268,-3786,-1,210,-4665,23,-345,-154,137
269,-3796,-6,189,-4669,23,-343,-151,142
270,-3789,-5,188,-4667,23,-350,-149,142
271,-3790,-3,184,-4668,23,-349,-153,148
272,-3783,-8,187,-4667,23,-341,-156,141
273,-3790,-6,199,-4666,23,-347,-150,141
274,-3794,-7,189,-4668,23,-347,-158,146
275,-3793,-5,176,-4671,23,-347,-160,145
276,-3784,-8,185,-4665,23,-352,-157,143
277,-3789,-10,185,-4663,23,-348,-158,143
278,-3786,-11,188,-4661,23,-347,-155,140
279,-3786,-13,171,-4666,23,-349,-153,137
280,-3789,-8,184,-4673,23,-349,-151,141
281,-3788,-4,177,-4670,23,-350,-152,144
282,-3791,1,171,-4673,23,-344,-155,140
283,-3795,-1,185,-4672,23,-345,-151,133
284,-3788,-3,184,-4670,23,-340,-149,135
285,-3791,-2,186,-4668,23,-349,-151,134
286,-3790,3,191,-4665,23,-353,-149,138
287,-3786,-8,189,-4666,23,-352,-153,139
288,-3791,-9,181,-4666,23,-346,-155,141
289,-3782,-9,185,-4673,23,-346,-146,150
290,-3786,-3,188,-4663,23,-352,-156,149
291,-3782,-6,188,-4666,23,-344,-145,142
292,-3784,-10,187,-4665,23,-344,-150,139
293,-3785,1,184,-4667,23,-356,-155,138
294,-3792,-7,180,-4670,23,-353,-155,141
295,-3795,-4,187,-4672,23,-350,-159,134
296,-3787,-6,188,-4672,23,-352,-155,139
297,-3792,-5,179,-4665,23,-349,-159,140
298,-3788,-5,189,-4667,23,-349,-153,140
299,-3788,2,188,-4670,23,-347,-154,142
300,-3795,1,192,-4670,23,-349,-155,138
301,-3786,7,192,-4665,23,-347,-149,138
302,-3788,-1,195,-4662,23,-349,-152,146
303,-3791,-8,187,-4661,23,-349,-156,140
304,-3794,-7,196,-4667,23,-348,-157,142
305,-3793,-2,204,-4667,23,-348,-155,146
306,-3794,-2,188,-4668,23,-342,-153,148
307,-3786,-1,183,-4667,23,-348,-161,147
308,-3783,-3,179,-4667,23,-352,-156,135
309,-3793,-1,179,-4669,23,-342,-158,136
310,-3790,-4,183,-4666,23,-344,-154,140
311,-3791,-3,190,-4665,23,-337,-157,138
312,-3796,-3,188,-4666,23,-344,-154,140
313,-3794,-2,188,-4666,23,-338,-154,137
314,-3794,-8,185,-4661,23,-342,-161,135
315,-3789,-4,190,-4657,23,-340,-160,136
316,-3785,-9,192,-4661,23,-352,-153,145
317,-3784,-6,186,-4664,23,-346,-147,141
318,-3787,-4,193,-4667,23,-348,-149,145
319,-3790,-14,191,-4671,23,-346,-153,145
320,-3793,-8,187,-4671,23,-348,-150,143
321,-3784,-1,192,-4668,23,-345,-160,139
322,-3793,-3,192,-4661,23,-343,-154,141
323,-3789,-2,186,-4660,23,-350,-151,135
324,-3789,6,186,-4658,23,-349,-150,137
325,-3792,-4,182,-4657,23,-345,-152,143
326,-3793,0,192,-4667,23,-346,-157,143
327,-3794,0,193,-4666,23,-343,-159,144
328,-3784,-2,181,-4665,23,-347,-155,142
329,-3784,-4,186,-4667,23,-346,-157,141
330,-3791,0,204,-4660,23,-344,-160,140
331,-3792,-4,193,-4661,23,-346,-153,142
332,-3787,3,185,-4662,23,-353,-158,137
333,-3787,1,194,-4665,23,-348,-162,136
334,-3793,-10,200,-4667,23,-352,-153,142
335,-3791,-2,199,-4662,23,-349,-152,144
336,-3789,4,190,-4666,23,-345,-145,138
337,-3788,-1,190,-4664,23,-354,-154,147
338,-3796,-3,193,-4667,23,-345,-153,133
339,-3787,-5,193,-4667,23,-341,-156,142
340,-3792,-11,187,-4666,23,-340,-155,139
341,-3784,-6,186,-4665,23,-345,-156,138
342,-3783,-6,183,-4661,23,-346,-152,140
343,-3791,3,186,-4655,23,-342,-152,142
344,-3785,-1,184,-4660,23,-351,-149,139
345,-3791,-6,191,-4666,23,-345,-153,135
346,-3794,-2,183,-4663,23,-347,-156,140
347,-3790,-4,184,-4667,23,-345,-161,141
348,-3789,3,186,-4666,23,-351,-156,139
349,-3783,5,184,-4662,23,-344,-150,139
350,-3791,-5,180,-4659,23,-345,-146,141
351,-3786,0,186,-4658,23,-352,-145,139
352,-3795,-2,197,-4661,23,-342,-153,135
353,-3788,-1,194,-4662,23,-341,-147,135
354,-3782,3,193,-4665,23,-349,-151,137
355,-3787,6,188,-4663,23,-347,-151,139
356,-3785,-3,184,-4663,23,-346,-147,134
357,-3789,-10,195,-4659,23,-348,-151,139
358,-3789,0,187,-4658,23,-347,-145,146
359,-3786,0,183,-4660,23,-345,-150,138
360,-3786,-2,190,-4663,23,-344,-150,139
361,-3789,-12,201,-4667,23,-342,-160,140
362,-3794,-12,189,-4665,23,-349,-156,137
363,-3792,-5,189,-4666,23,-351,-151,144
364,-3784,-10,188,-4667,23,-354,-156,141
365,-3782,-8,191,-4669,23,-337,-154,143
366,-3787,-3,199,-4665,23,-344,-149,141
367,-3787,2,202,-4663,23,-344,-146,144
368,-3785,-2,198,-4663,23,-348,-151,140
369,-3785,-7,189,-4665,23,-342,-151,137
370,-3790,-7,184,-4664,23,-343,-148,135
371,-3791,-5,191,-4662,23,-336,-153,136
372,-3787,1,190,-4665,23,-338,-150,134
373,-3793,-8,181,-4661,23,-344,-156,135
374,-3793,-7,180,-4662,23,-342,-152,135
375,-3788,-1,183,-4661,23,-346,-156,139
376,-3791,-3,184,-4661,23,-346,-149,142
377,-3792,-6,184,-4666,23,-350,-151,143
378,-3788,-6,201,-4664,23,-349,-153,134
379,-3786,-15,197,-4665,23,-349,-147,133
380,-3783,-3,192,-4660,23,-340,-147,129
381,-3789,-6,188,-4664,23,-344,-149,140
382,-3792,-15,186,-4666,23,-350,-154,136
383,-3794,-5,192,-4662,23,-347,-160,140
384,-3794,-3,197,-4661,23,-346,-161,142
385,-3786,-8,189,-4665,23,-353,-154,140
386,-3790,-7,184,-4660,23,-343,-153,138
387,-3787,-3,190,-4660,23,-342,-153,143
388,-3784,2,193,-4669,23,-351,-146,144
389,-3782,-1,192,-4666,23,-347,-153,138
390,-3787,1,181,-4669,23,-349,-150,135
391,-3782,2,181,-4667,23,-346,-150,140
392,-3784,-7,171,-4665,23,-355,-150,140
393,-3786,-4,188,-4666,23,-346,-150,139
394,-3794,-7,175,-4666,23,-352,-149,141
395,-3792,-3,181,-4665,23,-352,-153,142
396,-3792,-8,189,-4667,23,-348,-160,144
397,-3792,-3,197,-4669,23,-348,-156,140
398,-3788,-4,189,-4670,23,-347,-155,142
399,-3786,-7,196,-4663,23,-345,-149,143
400,-3788,-10,189,-4661,23,-343,-153,137
401,-3787,-16,179,-4664,23,-348,-154,142
402,-3796,-1,187,-4660,23,-342,-152,142
403,-3786,0,194,-4655,23,-335,-158,143
404,-3787,-3,184,-4660,23,-348,-149,142
405,-3794,7,185,-4656,23,-350,-153,143
406,-3791,-4,189,-4657,23,-347,-151,146
407,-3795,-3,182,-4659,23,-348,-147,145
408,-3795,-7,190,-4664,23,-349,-155,141
409,-3792,-9,186,-4662,23,-345,-157,136
410,-3788,-6,187,-4663,23,-343,-150,138
411,-3789,0,190,-4666,23,-336,-153,138
412,-3787,-4,186,-4667,23,-346,-156,132
413,-3795,-9,178,-4663,23,-349,-148,134
414,-3792,-13,182,-4668,23,-348,-151,135
415,-3782,-11,188,-4662,23,-351,-155,141
416,-3786,-4,189,-4666,23,-355,-156,147
417,-3792,-9,183,-4667,23,-350,-153,144
418,-3794,-8,176,-4660,23,-353,-149,145
419,-3782,-8,171,-4662,23,-346,-157,142
420,-3787,-4,184,-4659,23,-351,-151,142
421,-3794,-2,187,-4664,23,-348,-156,140
422,-3792,8,192,-4662,23,-343,-150,143
423,-3795,3,186,-4666,23,-345,-153,140
424,-3792,3,186,-4664,23,-346,-148,141
425,-3786,4,180,-4663,23,-352,-151,142
426,-3794,0,185,-4660,23,-352,-158,138
427,-3790,1,180,-4661,23,-350,-152,139
428,-3791,-5,184,-4666,23,-346,-154,136
429,-3785,-7,196,-4669,23,-353,-155,133
430,-3788,-7,189,-4666,23,-347,-153,136
431,-3785,-12,189,-4664,23,-342,-158,144
432,-3790,-5,192,-4667,23,-347,-165,148
433,-3791,-6,203,-4665,23,-344,-152,142
434,-3788,-3,197,-4664,23,-350,-155,140
435,-3784,-10,194,-4663,23,-349,-154,139
436,-3781,0,186,-4666,23,-344,-151,142
437,-3785,-1,192,-4669,23,-351,-149,141
438,-3791,4,183,-4668,23,-352,-153,135
439,-3785,-2,193,-4666,23,-350,-154,137
440,-3785,-3,190,-4665,23,-348,-157,141
441,-3788,-3,178,-4662,23,-348,-149,140
442,-3793,-4,186,-4662,23,-344,-160,138
443,-3784,1,192,-4666,23,-345,-155,135
444,-3789,-4,197,-4667,23,-346,-159,137
445,-3789,-4,197,-4659,23,-347,-153,138
446,-3786,1,179,-4661,23,-342,-151,141
447,-3787,-1,180,-4662,23,-341,-147,144
448,-3792,-4,185,-4664,23,-345,-148,142
449,-3783,-2,181,-4658,23,-346,-155,145
450,-3792,-2,178,-4658,23,-339,-155,149
451,-3794,-4,184,-4658,23,-346,-151,146
452,-3798,-5,181,-4657,23,-345,-161,150
453,-3801,-5,169,-4666,23,-347,-158,133
454,-3791,-16,184,-4671,23,-350,-157,137
455,-3798,-7,184,-4672,23,-352,-156,137
456,-3791,6,176,-4662,23,-352,-157,143
457,-3785,1,177,-4660,23,-344,-159,140
458,-3787,-4,180,-4660,23,-345,-153,141
459,-3793,0,183,-4664,23,-345,-148,141
460,-3789,-7,196,-4662,23,-348,-155,136
461,-3793,-4,191,-4666,23,-349,-151,138
462,-3791,-4,189,-4666,23,-347,-148,140
463,-3794,-4,193,-4667,23,-346,-156,137
464,-3785,-1,189,-4667,23,-343,-161,146
465,-3785,-4,187,-4663,23,-345,-160,140
466,-3786,-5,186,-4661,23,-348,-154,137
467,-3782,-6,186,-4666,23,-346,-150,139
468,-3786,-1,184,-4663,23,-346,-146,135
469,-3793,-1,184,-4663,23,-346,-151,138
470,-3796,-2,187,-4660,23,-347,-150,138
471,-3795,-5,190,-4659,23,-349,-149,135
472,-3786,-14,187,-4664,23,-350,-148,136
473,-3780,-15,185,-4660,23,-343,-149,140
474,-3786,-3,195,-4657,23,-345,-148,140
475,-3789,-2,196,-4665,23,-343,-150,134
476,-3794,-7,194,-4660,23,-343,-159,138
477,-3787,-1,187,-4658,23,-349,-152,139
478,-3790,-2,188,-4655,23,-352,-156,144
479,-3793,-8,185,-4653,23,-349,-153,148
480,-3789,-6,180,-4663,23,-352,-153,137
481,-3784,-7,192,-4665,23,-345,-148,142
482,-3786,-6,189,-4667,23,-344,-150,144
483,-3786,-9,179,-4659,23,-344,-152,138
484,-3785,-6,181,-4665,23,-344,-150,138
485,-3784,-4,192,-4662,23,-345,-157,137
486,-3782,-6,190,-4658,23,-349,-156,143
487,-3789,-8,190,-4661,23,-353,-152,137
488,-3791,-8,197,-4663,23,-352,-155,142
489,-3797,-4,184,-4664,23,-359,-158,140
490,-3799,1,185,-4658,23,-349,-151,134
491,-3795,-1,183,-4658,23,-348,-157,142
492,-3791,1,179,-4659,23,-350,-159,143
493,-3790,3,186,-4660,23,-347,-154,140
494,-3786,3,187,-4658,23,-348,-150,144
495,-3787,-1,202,-4660,23,-343,-150,137
496,-3789,-1,195,-4663,23,-342,-151,140
497,-3792,-3,181,-4664,23,-339,-152,142
498,-3789,-5,185,-4662,23,-351,-155,137
499,-3788,-4,185,-4662,23,-358,-156,137
500,-3790,-2,183,-4661,23,-352,-152,141
501,-3787,0,188,-4661,23,-346,-154,140
502,-3787,0,188,-4660,23,-348,-163,137
503,-3792,-1,196,-4662,23,-346,-149,139
504,-3798,-7,178,-4663,23,-353,-155,136
505,-3788,-2,186,-4663,23,-344,-152,147
506,-3784,0,197,-4662,23,-342,-155,137
507,-3793,3,192,-4661,23,-339,-155,136
508,-3783,-8,196,-4662,23,-351,-152,135
509,-3782,-7,185,-4667,23,-346,-153,140
510,-3790,-8,183,-4656,23,-345,-152,136
511,-3790,-3,181,-4657,23,-343,-150,138
512,-3789,2,189,-4659,23,-341,-147,141
513,-3784,-8,193,-4654,23,-349,-154,145
514,-3782,-2,185,-4657,23,-348,-160,140
515,-3785,-6,183,-4665,23,-346,-155,142
516,-3787,-3,179,-4659,23,-345,-149,144
517,-3797,-4,181,-4654,23,-356,-148,141
518,-3789,1,179,-4655,23,-354,-147,137
519,-3787,5,205,-4660,23,-349,-153,144
520,-3785,4,184,-4660,23,-345,-150,138
521,-3781,-2,188,-4663,23,-347,-152,133
522,-3786,-2,181,-4660,23,-351,-158,135
523,-3785,1,192,-4660,23,-351,-149,140
524,-3790,-1,187,-4666,23,-350,-152,140
525,-3785,-1,185,-4662,23,-352,-149,140
526,-3779,0,186,-4665,23,-346,-153,137
527,-3788,0,186,-4662,23,-347,-150,139
528,-3789,0,194,-4663,23,-347,-150,135
529,-3782,-8,187,-4659,23,-348,-149,136
530,-3794,-4,191,-4662,23,-346,-154,134
531,-3789,-4,199,-4656,23,-347,-152,133
532,-3792,-8,177,-4659,23,-346,-156,137
533,-3790,-3,188,-4661,23,-341,-152,141
534,-3790,2,189,-4664,23,-341,-158,146
535,-3789,0,182,-4668,23,-350,-155,146
536,-3786,-6,186,-4664,23,-342,-154,144
537,-3786,-9,181,-4660,23,-345,-151,144
538,-3791,-7,178,-4657,23,-345,-145,141
539,-3786,-4,191,-4658,23,-344,-154,137
540,-3783,-2,185,-4660,23,-347,-154,141
541,-3785,-4,186,-4659,23,-343,-155,143
542,-3785,-4,188,-4655,23,-356,-151,146
543,-3791,2,186,-4655,23,-346,-150,145
544,-3790,-2,175,-4659,23,-342,-148,135
545,-3787,-2,183,-4659,23,-351,-147,141
546,-3788,-6,189,-4654,23,-354,-148,139
547,-3788,-8,193,-4657,23,-351,-145,135
548,-3792,-8,188,-4653,23,-348,-154,139
549,-3787,-6,185,-4659,23,-346,-159,138
550,-3780,-4,185,-4656,23,-350,-153,141
551,-3787,1,198,-4660,23,-347,-147,139
552,-3793,-3,192,-4657,23,-355,-146,144
553,-3788,-2,196,-4658,23,-347,-152,143
554,-3788,-2,183,-4664,23,-350,-145,135
555,-3783,-5,189,-4662,23,-344,-147,143
556,-3787,-10,194,-4663,23,-342,-147,135
557,-3782,-3,194,-4659,23,-338,-153,139
558,-3790,-3,182,-4661,23,-344,-154,140
559,-3792,-8,190,-4660,23,-350,-155,140
560,-3783,-3,175,-4658,23,-348,-156,138
561,-3783,-1,185,-4654,23,-352,-150,141
562,-3777,-1,191,-4656,23,-356,-152,138
563,-3785,7,189,-4658,23,-351,-154,138
564,-3784,3,193,-4660,23,-350,-155,135
565,-3785,-9,197,-4664,23,-355,-147,130
566,-3795,-5,176,-4656,23,-353,-150,133
567,-3784,3,179,-4656,23,-353,-145,138
568,-3788,2,187,-4655,23,-350,-148,139
569,-3792,4,188,-4659,23,-353,-154,137
570,-3790,-7,186,-4660,23,-351,-158,143
571,-3791,-9,187,-4658,23,-348,-145,146
572,-3789,-3,191,-4654,23,-351,-148,149
573,-3791,-9,196,-4652,23,-344,-156,140
574,-3794,-7,194,-4654,23,-341,-154,137
575,-3789,-2,190,-4658,23,-340,-149,136
576,-3791,0,191,-4655,23,-352,-153,137
577,-3794,2,183,-4659,23,-349,-155,139
578,-3795,-2,177,-4661,23,-347,-159,135
579,-3800,-3,187,-4659,23,-345,-149,142
580,-3797,1,176,-4660,23,-342,-151,140
581,-3792,-5,177,-4659,23,-349,-150,137
582,-3790,-5,188,-4659,23,-351,-155,132
583,-3787,-6,174,-4660,23,-340,-149,135
584,-3789,-4,182,-4659,23,-348,-147,144
585,-3785,-3,188,-4663,23,-348,-138,143
586,-3789,6,189,-4657,23,-350,-143,140
587,-3786,-2,191,-4662,23,-347,-159,138
588,-3784,-1,184,-4663,23,-350,-160,138
589,-3786,-4,188,-4667,23,-341,-162,144
590,-3793,2,195,-4667,23,-347,-156,131
591,-3785,-1,189,-4667,23,-352,-154,133
592,-3792,5,182,-4665,23,-351,-157,138
593,-3790,6,182,-4663,23,-347,-156,146
594,-3783,0,187,-4664,23,-345,-157,146
595,-3785,-1,185,-4661,23,-348,-156,141
596,-3792,0,180,-4658,23,-351,-147,138
597,-3788,-15,189,-4660,23,-344,-152,136
598,-3787,-5,179,-4656,23,-345,-151,139
599,-3790,-1,183,-4662,23,-342,-148,142
600,-3790,0,177,-4663,23,-342,-150,140
601,-3788,-1,177,-4669,23,-345,-154,132
602,-3791,-4,191,-4666,23,-344,-148,139
603,-3782,-2,185,-4664,23,-351,-155,138
604,-3785,-2,180,-4666,23,-345,-153,146
605,-3784,-6,190,-4669,23,-343,-151,142
606,-3791,1,180,-4668,23,-349,-148,146
607,-3789,-6,193,-4671,23,-350,-152,148
608,-3791,-6,185,-4666,23,-345,-144,143
609,-3789,5,179,-4663,23,-350,-147,144
610,-3790,-2,179,-4666,23,-352,-154,142
611,-3791,-1,176,-4665,23,-351,-148,140
612,-3794,-6,182,-4665,23,-349,-151,146
613,-3789,1,188,-4658,23,-343,-152,144
614,-3793,-3,184,-4660,23,-346,-157,139
615,-3790,-1,197,-4659,23,-348,-151,137
616,-3793,2,179,-4661,23,-350,-154,142
617,-3795,-2,174,-4670,23,-346,-153,136
618,-3789,4,182,-4662,23,-346,-158,138
619,-3791,2,195,-4663,23,-349,-154,139
620,-3786,4,190,-4662,23,-350,-150,136
621,-3794,-4,191,-4667,23,-346,-147,136
622,-3789,-7,192,-4662,23,-345,-150,136
623,-3789,-7,191,-4670,23,-352,-147,138
624,-3787,-2,184,-4670,23,-350,-146,139
625,-3787,5,192,-4665,23,-354,-154,137
626,-3782,-2,195,-4659,23,-358,-153,138
627,-3790,-6,195,-4663,23,-347,-152,137
628,-3791,-4,186,-4659,23,-348,-155,144
629,-3787,-3,181,-4662,23,-342,-158,142
630,-3785,-9,195,-4661,23,-341,-158,141
631,-3788,-12,191,-4655,23,-340,-154,144
632,-3799,-6,192,-4659,23,-339,-154,136
633,-3795,0,193,-4661,23,-349,-153,139
634,-3792,-4,203,-4661,23,-343,-157,138
635,-3795,-6,190,-4657,23,-350,-158,137
636,-3794,-5,194,-4657,23,-348,-156,140
637,-3793,-7,188,-4655,23,-345,-158,137
638,-3792,-7,187,-4659,23,-358,-147,144
639,-3788,-6,194,-4660,23,-352,-150,139
640,-3787,-3,189,-4663,23,-346,-153,141
641,-3789,-3,191,-4661,23,-348,-152,136
642,-3784,-1,188,-4664,23,-346,-151,141
643,-3792,-6,183,-4666,23,-345,-151,144
644,-3795,0,192,-4665,23,-349,-152,140
645,-3788,0,192,-4662,23,-342,-157,138
646,-3791,-7,191,-4656,23,-347,-153,139
647,-3783,-1,185,-4657,23,-346,-156,139
648,-3783,-4,187,-4659,23,-344,-144,138
649,-3787,1,196,-4660,23,-344,-157,144
650,-3789,-10,187,-4656,23,-351,-152,141
651,-3781,-6,196,-4660,23,-348,-161,138
652,-3783,-1,187,-4661,23,-345,-154,131
653,-3788,-4,179,-4662,23,-351,-152,136
654,-3790,-1,186,-4664,23,-353,-149,137
655,-3784,-4,190,-4662,23,-348,-147,138
656,-3783,1,178,-4660,23,-346,-154,140
657,-3789,-3,178,-4661,23,-344,-150,136
658,-3791,-2,187,-4665,23,-349,-149,136
659,-3792,-10,181,-4660,23,-350,-155,139
660,-3787,-8,182,-4663,23,-349,-145,142
661,-3788,-4,184,-4668,23,-355,-150,150
662,-3790,0,194,-4669,23,-353,-150,144
663,-3783,-6,187,-4658,23,-353,-148,143
664,-3783,-3,191,-4658,23,-344,-148,143
665,-3782,-6,194,-4662,23,-348,-151,141
666,-3787,-9,190,-4662,23,-349,-148,146
667,-3792,0,189,-4660,23,-345,-151,136
668,-3792,-2,185,-4657,23,-342,-154,134
669,-3786,-4,194,-4662,23,-346,-154,133
670,-3790,-6,186,-4662,23,-345,-158,141
671,-3797,-6,196,-4657,23,-348,-154,141
672,-3799,-9,186,-4664,23,-344,-145,137
673,-3797,4,186,-4665,23,-349,-147,138
674,-3785,0,186,-4667,23,-352,-152,140
675,-3792,1,185,-4660,23,-346,-150,142
676,-3792,-1,192,-4663,23,-344,-159,140
677,-3790,-3,190,-4664,23,-342,-154,136
678,-3789,-6,199,-4658,23,-336,-149,141
679,-3791,-4,194,-4660,23,-345,-157,136
680,-3786,-3,193,-4661,23,-343,-152,137
681,-3785,-5,187,-4660,23,-344,-150,141
682,-3787,-10,178,-4663,23,-347,-149,141
683,-3790,1,186,-4663,23,-349,-152,151
684,-3789,-2,188,-4659,23,-343,-150,135
685,-3791,-6,186,-4663,23,-345,-155,142
686,-3787,-9,182,-4667,23,-350,-154,134
687,-3796,-7,183,-4659,23,-346,-159,137
688,-3788,-12,181,-4661,23,-349,-152,140
689,-3790,-11,185,-4664,23,-352,-152,140
690,-3790,-7,191,-4658,23,-347,-159,136
691,-3783,-11,192,-4659,23,-346,-159,141
692,-3780,-5,174,-4665,23,-351,-156,136
693,-3788,-2,176,-4660,23,-348,-155,135
694,-3785,-5,186,-4663,23,-352,-153,141
695,-3785,-6,182,-4663,23,-350,-159,145
696,-3785,-8,186,-4657,23,-345,-149,140
697,-3788,-2,191,-4660,23,-348,-152,152
698,-3783,4,191,-4657,23,-346,-151,151
699,-3794,-3,183,-4660,23,-346,-150,140
700,-3786,0,189,-4657,23,-343,-158,141
701,-3784,-1,178,-4661,23,-351,-154,137
702,-3785,0,184,-4664,23,-348,-150,139
703,-3786,2,184,-4660,23,-344,-152,138
704,-3783,5,187,-4660,23,-347,-143,140
705,-3790,3,186,-4660,23,-339,-151,138
706,-3788,-8,186,-4660,23,-339,-153,142
707,-3784,-7,196,-4659,23,-348,-146,138
708,-3792,-1,190,-4659,23,-345,-151,140
709,-3788,-3,196,-4655,23,-346,-154,143
710,-3785,2,196,-4664,23,-341,-155,138
711,-3788,1,192,-4661,23,-346,-157,144
712,-3787,-3,191,-4664,23,-352,-157,145
713,-3790,-7,190,-4665,23,-350,-160,149
714,-3786,-3,183,-4658,23,-343,-152,137
715,-3787,-7,197,-4658,23,-349,-158,134
716,-3791,-4,184,-4664,23,-347,-154,137
717,-3785,-6,190,-4664,23,-358,-154,141
718,-3787,0,190,-4661,23,-362,-154,136
719,-3791,-5,180,-4666,23,-359,-147,143
720,-3789,1,191,-4663,23,-345,-148,144
721,-3788,6,185,-4661,23,-345,-150,138
722,-3789,1,177,-4661,23,-342,-156,133
723,-3789,-1,178,-4660,23,-348,-162,135
724,-3787,-5,179,-4660,23,-338,-159,136
725,-3785,-8,197,-4663,23,-342,-145,134
726,-3790,-3,189,-4660,23,-348,-153,136
727,-3786,0,188,-4659,23,-347,-156,140
728,-3786,-3,193,-4657,23,-346,-153,146
729,-3785,-5,198,-4658,23,-347,-153,138
730,-3787,-5,186,-4658,23,-346,-162,140
731,-3790,-3,195,-4664,23,-353,-159,143
732,-3787,-10,191,-4663,23,-349,-158,139
733,-3790,-6,189,-4662,23,-347,-156,137
734,-3798,2,189,-4658,23,-355,-157,141
735,-3791,-1,196,-4660,23,-345,-157,143
736,-3783,-8,189,-4664,23,-346,-157,133
737,-3780,-12,192,-4662,23,-345,-147,134
738,-3784,-14,188,-4658,23,-345,-145,140
739,-3795,-7,190,-4663,23,-342,-144,146
740,-3795,-6,195,-4664,23,-344,-160,150
741,-3793,-12,200,-4666,23,-353,-157,144
742,-3793,0,190,-4661,23,-350,-154,139
743,-3788,-4,190,-4660,23,-349,-156,143
744,-3790,-2,189,-4663,23,-351,-160,141
745,-3787,5,182,-4665,23,-347,-165,139
746,-3783,-4,190,-4668,23,-341,-167,136
747,-3792,-1,193,-4664,23,-353,-155,145
748,-3786,3,194,-4660,23,-345,-148,141
749,-3785,-8,191,-4665,23,-345,-148,143
750,-3792,-4,175,-4667,23,-350,-152,142
751,-3798,0,180,-4661,23,-348,-149,137
752,-3796,-3,172,-4665,23,-344,-157,143
753,-3790,9,186,-4662,23,-348,-159,139
754,-3791,5,195,-4662,23,-345,-157,135
755,-3786,-2,188,-4666,23,-346,-155,134
756,-3787,-2,191,-4663,23,-350,-152,134
757,-3790,-8,190,-4663,23,-345,-156,134
758,-3790,-4,182,-4660,23,-340,-150,136
759,-3789,0,178,-4663,23,-346,-153,137
760,-3794,-9,174,-4667,23,-353,-157,139
761,-3795,-8,185,-4662,23,-353,-156,140
762,-3790,-8,187,-4658,23,-355,-148,140
763,-3785,-1,183,-4660,23,-351,-141,137
764,-3790,0,186,-4656,23,-339,-152,147
765,-3789,-5,191,-4659,23,-350,-144,143
766,-3789,-6,188,-4662,23,-351,-151,133
767,-3795,-11,190,-4658,23,-348,-155,139
768,-3785,-6,193,-4662,23,-350,-152,145
769,-3789,-10,203,-4662,23,-350,-142,135
770,-3786,-5,201,-4661,23,-350,-143,140
771,-3783,-3,196,-4657,23,-347,-151,140
772,-3792,-1,189,-4663,23,-347,-152,141
773,-3788,-7,192,-4663,23,-344,-149,136
774,-3791,-5,181,-4660,23,-334,-146,138
775,-3788,-8,193,-4663,23,-352,-150,136
776,-3798,-6,189,-4664,23,-348,-150,139
777,-3786,4,194,-4667,23,-351,-153,139
778,-3784,-5,175,-4664,23,-356,-154,144
779,-3785,-6,180,-4663,23,-352,-155,138
780,-3785,-6,190,-4663,23,-354,-166,137
781,-3786,-8,179,-4661,23,-344,-167,136
782,-3788,-10,178,-4660,23,-344,-152,136
783,-3792,-6,181,-4660,23,-348,-156,140
784,-3789,-5,181,-4659,23,-346,-156,133
785,-3789,-13,195,-4656,23,-349,-149,140
786,-3792,-7,182,-4655,23,-352,-149,138
787,-3786,1,176,-4658,23,-350,-153,136
788,-3785,-6,189,-4659,23,-351,-151,134
789,-3789,-7,187,-4661,23,-347,-150,137
790,-3780,-11,198,-4657,23,-347,-146,138
791,-3783,-9,189,-4658,23,-354,-152,139
792,-3782,-3,185,-4667,23,-348,-159,138
793,-3788,-9,191,-4661,23,-349,-159,132
794,-3777,-11,190,-4664,23,-345,-157,142
795,-3789,-8,190,-4660,23,-348,-153,140
796,-3783,-7,197,-4661,23,-350,-154,141
797,-3785,-8,186,-4657,23,-342,-150,133
798,-3796,-8,178,-4654,23,-349,-151,140
799,-3791,-10,182,-4660,23,-349,-154,144
800,-3793,-11,188,-4657,23,-346,-150,143
801,-3793,-2,180,-4654,23,-351,-152,145
802,-3788,-11,179,-4659,23,-347,-152,146
803,-3787,-9,191,-4660,23,-343,-153,146
804,-3792,-1,187,-4659,23,-347,-159,143
805,-3786,-6,182,-4662,23,-350,-145,139
806,-3782,-5,183,-4664,23,-355,-147,139
807,-3785,-8,178,-4663,23,-350,-151,148
808,-3786,-13,197,-4667,23,-350,-154,136
809,-3791,-9,188,-4659,23,-344,-154,139
810,-3793,-3,197,-4663,23,-354,-148,134
811,-3790,-3,191,-4659,23,-348,-146,131
812,-3786,-1,193,-4665,23,-348,-150,132
813,-3787,-9,193,-4661,23,-350,-152,137
814,-3788,-6,196,-4657,23,-350,-154,140
815,-3790,-3,189,-4656,23,-345,-158,142
816,-3793,-2,183,-4657,23,-348,-162,141
817,-3788,-1,193,-4662,23,-348,-158,144
818,-3792,2,176,-4661,23,-344,-155,140
819,-3792,-3,196,-4665,23,-348,-154,141
820,-3794,-4,203,-4659,23,-354,-156,144
821,-3798,0,192,-4662,23,-349,-152,145
822,-3787,-5,198,-4657,23,-350,-155,137
823,-3789,-3,188,-4660,23,-348,-156,143
824,-3787,-4,189,-4661,23,-345,-157,143
825,-3782,-4,185,-4663,23,-347,-153,138
826,-3782,-1,189,-4657,23,-345,-153,139
827,-3786,1,185,-4658,23,-345,-156,138
828,-3791,-4,194,-4662,23,-355,-160,143
829,-3794,-5,193,-4664,23,-348,-159,140
830,-3788,-4,174,-4661,23,-349,-147,134
831,-3788,-11,174,-4661,23,-350,-146,141
832,-3786,-5,183,-4661,23,-343,-157,145
833,-3790,-6,193,-4658,23,-346,-154,139
834,-3788,-7,189,-4658,23,-342,-153,140
835,-3790,-5,188,-4661,23,-336,-159,139
836,-3790,-6,194,-4660,23,-343,-157,136
837,-3789,0,198,-4659,23,-351,-155,135
838,-3785,-4,189,-4662,23,-347,-156,139
839,-3796,-6,192,-4657,23,-348,-153,135
840,-3792,3,189,-4659,23,-349,-161,136
841,-3798,2,185,-4658,23,-349,-159,138
842,-3790,-6,179,-4656,23,-345,-155,137
843,-3791,-5,190,-4659,23,-351,-156,143
844,-3795,-4,189,-4658,23,-345,-157,135
845,-3791,3,176,-4659,23,-346,-160,135
846,-3789,-2,193,-4659,23,-347,-151,137
847,-3791,2,193,-4662,23,-343,-152,138
848,-3787,-2,192,-4663,23,-345,-151,138
849,-3788,-6,193,-4658,23,-344,-151,140
850,-3788,-10,191,-4658,23,-353,-150,141
851,-3788,-12,192,-4663,23,-347,-160,139
852,-3784,-4,186,-4660,23,-347,-162,135
853,-3787,-6,187,-4661,23,-350,-154,137
854,-3787,-4,206,-4661,23,-351,-159,138
855,-3796,-6,191,-4660,23,-339,-154,132
856,-3790,2,196,-4655,23,-343,-159,135
857,-3791,-3,195,-4657,23,-350,-155,136
858,-3788,-6,180,-4658,23,-340,-158,138
859,-3788,-9,181,-4658,23,-341,-156,136
860,-3784,-4,192,-4662,23,-343,-162,134
861,-3786,-5,189,-4662,23,-350,-161,135
862,-3784,-2,186,-4658,23,-353,-154,138
863,-3782,3,188,-4653,23,-351,-148,139
864,-3785,1,198,-4658,23,-342,-151,141
865,-3780,-8,182,-4655,23,-347,-153,133
866,-3790,-11,181,-4665,23,-344,-148,142
867,-3783,0,188,-4663,23,-346,-153,138
868,-3786,-3,189,-4664,23,-348,-158,142
869,-3790,-9,189,-4659,23,-352,-156,142
870,-3782,0,188,-4659,23,-352,-154,134
871,-3788,-1,183,-4665,23,-349,-154,134
872,-3798,2,187,-4662,23,-351,-154,135
873,-3795,-1,179,-4659,23,-358,-159,141
874,-3786,-1,176,-4658,23,-347,-159,136
875,-3785,-8,184,-4655,23,-350,-151,140
876,-3800,-8,184,-4658,23,-354,-153,147
877,-3790,-8,187,-4655,23,-347,-154,146
878,-3793,-6,186,-4661,23,-350,-145,143
879,-3793,-3,188,-4653,23,-345,-151,143
880,-3782,-2,190,-4659,23,-344,-156,140
881,-3784,1,189,-4662,23,-348,-152,137
882,-3792,-1,189,-4660,23,-348,-153,138
883,-3792,1,191,-4664,23,-346,-153,139
884,-3792,0,189,-4661,23,-347,-149,143
885,-3790,3,187,-4662,23,-344,-147,139
886,-3789,1,186,-4659,23,-348,-145,139
887,-3792,0,193,-4659,23,-346,-154,136
888,-3787,-5,182,-4655,23,-354,-153,135
889,-3784,-10,180,-4658,23,-348,-160,136
890,-3787,-3,183,-4656,23,-352,-154,140
891,-3785,-6,183,-4662,23,-356,-147,142
892,-3787,-3,187,-4660,23,-347,-153,144
893,-3781,1,193,-4656,23,-350,-150,139
894,-3786,-6,181,-4661,23,-341,-145,134
895,-3790,5,180,-4656,23,-342,-154,137
896,-3785,-6,181,-4659,23,-348,-153,139
897,-3795,-2,184,-4664,23,-347,-162,141
898,-3792,-3,190,-4659,23,-346,-152,142
899,-3781,-3,192,-4656,23,-348,-158,143
900,-3785,-6,193,-4659,23,-352,-157,140
901,-3786,-9,186,-4659,23,-347,-160,138
902,-3790,-1,182,-4655,23,-342,-156,138
903,-3788,-3,176,-4662,23,-347,-150,136
904,-3787,-7,187,-4662,23,-347,-151,143
905,-3785,-5,187,-4661,23,-351,-151,143
906,-3791,-3,190,-4655,23,-347,-153,135
907,-3790,1,189,-4654,23,-356,-154,141
908,-3781,-1,183,-4658,23,-348,-158,144
909,-3790,-6,178,-4663,23,-354,-156,139
910,-3785,3,189,-4664,23,-345,-161,143
911,-3790,-10,189,-4665,23,-344,-150,141
912,-3785,-5,189,-4662,23,-349,-152,141
913,-3785,-4,181,-4657,23,-346,-153,134
914,-3787,-6,187,-4656,23,-343,-151,133
915,-3785,-2,193,-4651,23,-349,-148,132
916,-3791,-11,196,-4653,23,-349,-157,135
917,-3793,-7,195,-4653,23,-350,-157,134
918,-3795,-11,186,-4651,23,-347,-155,137
919,-3795,-7,182,-4655,23,-348,-158,146
920,-3789,-7,192,-4660,23,-346,-155,139
921,-3792,-5,190,-4654,23,-350,-154,137
922,-3796,-5,199,-4650,23,-342,-149,137
923,-3787,-7,187,-4659,23,-341,-153,138
924,-3789,-6,191,-4656,23,-350,-156,138
925,-3794,-2,178,-4658,23,-353,-148,137
926,-3789,-8,193,-4657,23,-343,-148,143
927,-3793,-7,197,-4659,23,-342,-151,139
928,-3790,-9,187,-4656,23,-346,-150,142
929,-3787,-5,191,-4659,23,-345,-156,146
930,-3786,-3,188,-4658,23,-354,-159,143
931,-3788,-1,189,-4660,23,-355,-153,141
932,-3792,-11,189,-4659,23,-350,-154,137
933,-3792,-9,192,-4659,23,-354,-157,139
934,-3785,-5,189,-4657,23,-339,-159,135
935,-3780,-5,195,-4659,23,-338,-156,136
936,-3793,0,197,-4657,23,-337,-153,137
937,-3791,-5,192,-4658,23,-340,-158,143
938,-3791,-4,195,-4661,23,-348,-152,144
939,-3790,-5,193,-4656,23,-352,-154,142
940,-3788,-4,195,-4659,23,-349,-161,137
941,-3789,-7,198,-4654,23,-344,-150,139
942,-3792,-9,189,-4655,23,-349,-151,141
943,-3794,-4,189,-4656,23,-348,-150,132
944,-3789,-5,190,-4657,23,-345,-150,136
945,-3798,-8,179,-4658,23,-348,-147,136
946,-3793,-3,194,-4656,23,-350,-153,133
947,-3786,-7,185,-4651,23,-351,-148,134
948,-3790,-7,182,-4656,23,-345,-147,137
949,-3791,-15,188,-4656,23,-351,-149,136
950,-3800,-3,194,-4655,23,-351,-151,135
951,-3794,2,190,-4658,23,-352,-152,140
952,-3790,-3,192,-4659,23,-346,-159,141
953,-3793,-1,188,-4659,23,-344,-154,138
954,-3789,-6,187,-4661,23,-340,-150,132
955,-3779,-5,190,-4664,23,-342,-150,137
956,-3785,-3,188,-4663,23,-346,-155,138
957,-3794,-4,189,-4660,23,-349,-154,130
958,-3790,-2,173,-4660,23,-348,-151,133
959,-3790,-5,177,-4659,23,-346,-148,135
960,-3787,0,196,-4662,23,-342,-150,136
961,-3781,-5,181,-4660,23,-344,-148,142
962,-3783,-4,180,-4661,23,-345,-163,137
963,-3791,-11,185,-4656,23,-348,-154,140
964,-3792,-11,181,-4655,23,-343,-151,145
965,-3790,-3,189,-4657,23,-344,-156,141
966,-3789,-4,182,-4658,23,-352,-151,141
967,-3788,-6,186,-4653,23,-343,-150,142
968,-3791,-5,194,-4657,23,-346,-153,141
969,-3793,-6,191,-4656,23,-350,-155,137
970,-3786,-5,187,-4659,23,-349,-164,133
971,-3789,-5,184,-4665,23,-344,-155,130
972,-3783,-11,186,-4656,23,-348,-151,141
973,-3786,-3,184,-4661,23,-340,-149,141
974,-3790,-9,185,-4660,23,-351,-148,136
975,-3788,-2,179,-4661,23,-347,-145,145
976,-3793,-3,185,-4660,23,-340,-152,142
977,-3792,-6,199,-4660,23,-349,-156,132
978,-3790,-6,197,-4659,23,-347,-153,136
979,-3795,-5,190,-4662,23,-348,-157,139
980,-3789,2,185,-4663,23,-348,-157,137
981,-3789,-7,180,-4660,23,-348,-156,138
982,-3789,4,173,-4657,23,-354,-155,142
983,-3790,0,184,-4655,23,-352,-145,146
984,-3783,-7,182,-4658,23,-343,-151,142
985,-3782,-2,184,-4660,23,-349,-150,147
986,-3786,-8,188,-4650,23,-352,-146,143
987,-3784,-5,189,-4659,23,-354,-143,140
988,-3784,-3,180,-4661,23,-351,-141,140
989,-3791,3,189,-4659,23,-351,-144,145
990,-3789,-7,192,-4657,23,-349,-151,142
991,-3787,-9,197,-4654,23,-349,-144,136
992,-3788,0,183,-4654,23,-355,-151,140
993,-3788,-9,193,-4659,23,-350,-151,143
994,-3792,-3,189,-4659,23,-353,-157,141
995,-3795,-4,198,-4656,23,-353,-157,136
996,-3787,-1,189,-4657,23,-355,-161,139
997,-3787,-3,192,-4654,23,-348,-150,143
998,-3791,-9,200,-4657,23,-345,-152,140
