,acc_X,acc_Y,acc_Z,temp,tempC,gyr_X,gyr_Y,gyr_Z
0,-1894,-1,94,-4645,23,-44,-19,17
1,-1895,-2,92,-4642,23,-43,-19,17
2,-1897,-2,94,-4644,23,-43,-20,17
3,-1894,-2,90,-4643,23,-44,-20,17
4,-1895,-4,93,-4644,23,-44,-20,17
5,-1893,-2,92,-4648,23,-44,-20,17
6,-1896,-2,95,-4645,23,-44,-21,18
7,-1898,-4,95,-4644,23,-44,-20,18
8,-1897,-3,93,-4644,23,-44,-20,17
9,-1897,-2,89,-4646,23,-44,-20,17
10,-1897,-1,93,-4644,23,-44,-20,17
11,-1897,-2,91,-4643,23,-44,-19,17
12,-1899,-2,92,-4640,23,-44,-19,17
13,-1896,-2,94,-4642,23,-44,-19,17
14,-1898,-1,92,-4641,23,-44,-19,17
15,-1896,-1,92,-4639,23,-44,-19,16
16,-1893,-2,93,-4638,23,-44,-19,16
17,-1897,-3,94,-4637,23,-45,-20,17
18,-1895,-2,95,-4638,23,-44,-20,17
19,-1893,-3,96,-4639,23,-44,-19,17
20,-1893,-3,95,-4638,23,-45,-20,17
21,-1895,-3,98,-4642,23,-44,-19,17
22,-1893,-3,97,-4643,23,-44,-19,17
23,-1894,-1,95,-4644,23,-44,-19,17
24,-1896,-1,95,-4645,23,-44,-19,17
25,-1897,1,94,-4646,23,-44,-19,17
26,-1895,1,95,-4646,23,-44,-20,17
27,-1893,-1,94,-4644,23,-43,-20,17
28,-1892,0,94,-4643,23,-43,-19,17
29,-1891,-1,94,-4644,23,-44,-19,17
30,-1894,-3,89,-4645,23,-43,-20,17
31,-1894,0,90,-4646,23,-43,-19,17
32,-1894,-1,93,-4648,23,-44,-20,17
33,-1893,-2,95,-4649,23,-44,-19,17
34,-1895,-2,93,-4647,23,-44,-19,17
35,-1895,-2,92,-4642,23,-44,-20,17
36,-1895,-2,93,-4644,23,-44,-20,17
37,-1896,-3,92,-4644,23,-44,-19,17
38,-1895,-2,91,-4646,23,-43,-19,17
39,-1895,1,90,-4647,23,-44,-19,17
40,-1894,1,92,-4647,23,-44,-19,17
41,-1892,0,96,-4648,23,-44,-19,17
42,-1894,1,97,-4645,23,-44,-20,17
43,-1896,0,95,-4647,23,-44,-19,18
44,-1893,-1,94,-4646,23,-44,-19,18
45,-1894,1,93,-4648,23,-44,-20,17
46,-1893,-1,92,-4644,23,-44,-20,17
47,-1894,0,93,-4644,23,-44,-19,17
48,-1895,0,92,-4645,23,-44,-19,17
49,-1895,-1,93,-4643,23,-44,-20,17
50,-1897,0,92,-4643,23,-44,-20,17
51,-1897,0,95,-4642,23,-44,-19,17
52,-1896,-2,101,-4643,23,-44,-20,17
53,-1896,-1,100,-4644,23,-44,-20,17
54,-1896,-1,99,-4645,23,-44,-19,17
55,-1894,-4,97,-4644,23,-44,-19,17
56,-1891,-4,97,-4642,23,-44,-19,17
57,-1892,-5,98,-4642,23,-44,-19,17
58,-1894,-3,94,-4643,23,-44,-19,17
59,-1893,-1,93,-4641,23,-44,-19,17
60,-1895,-2,95,-4643,23,-44,-19,17
61,-1894,-3,96,-4644,23,-44,-19,17
62,-1892,-1,99,-4643,23,-44,-19,17
63,-1891,-2,98,-4642,23,-43,-19,17
64,-1894,-3,98,-4643,23,-44,-20,17
65,-1894,-3,96,-4640,23,-44,-20,17
66,-1896,-3,92,-4640,23,-44,-19,17
67,-1896,0,91,-4642,23,-44,-20,17
68,-1896,1,93,-4645,23,-45,-20,17
69,-1895,-2,90,-4643,23,-44,-20,17
70,-1894,-1,90,-4642,23,-44,-19,17
71,-1893,0,91,-4643,23,-44,-20,17
72,-1894,-1,94,-4641,23,-44,-20,17
73,-1893,0,98,-4645,23,-43,-20,17
74,-1894,-1,99,-4647,23,-44,-20,17
75,-1895,-1,92,-4644,23,-44,-19,17
76,-1896,-2,91,-4644,23,-44,-19,17
77,-1896,-2,91,-4644,23,-44,-20,17
78,-1894,1,93,-4642,23,-44,-20,17
79,-1894,-1,92,-4644,23,-44,-19,17
80,-1895,-1,93,-4641,23,-44,-19,17
81,-1891,-2,93,-4639,23,-44,-19,17
82,-1891,-3,94,-4638,23,-44,-19,17
83,-1893,-2,97,-4637,23,-44,-19,17
84,-1895,-3,99,-4637,23,-44,-19,17
85,-1895,-2,101,-4638,23,-44,-19,18
86,-1895,-5,96,-4639,23,-44,-19,18
87,-1893,-6,96,-4642,23,-44,-19,17
88,-1893,-3,94,-4643,23,-44,-19,18
89,-1892,-2,93,-4644,23,-43,-20,18
90,-1891,-2,92,-4643,23,-44,-19,17
91,-1892,-1,94,-4645,23,-44,-19,17
92,-1895,-1,94,-4647,23,-44,-19,17
93,-1894,-1,91,-4646,23,-44,-19,17
94,-1894,-1,94,-4644,23,-44,-19,17
95,-1893,-3,94,-4644,23,-44,-19,18
96,-1894,-3,97,-4643,23,-44,-19,17
97,-1894,-2,96,-4640,23,-44,-19,17
98,-1895,-4,97,-4644,23,-44,-20,17
99,-1894,-5,97,-4645,23,-44,-20,18
100,-1895,-2,95,-4641,23,-44,-20,17
101,-1893,-2,94,-4644,23,-44,-20,17
102,-1893,-1,91,-4642,23,-44,-20,17
103,-1896,-1,89,-4640,23,-44,-20,17
104,-1894,-1,91,-4640,23,-44,-20,17
105,-1894,-4,89,-4639,23,-44,-20,17
106,-1895,-3,88,-4641,23,-44,-19,17
107,-1894,-2,92,-4639,23,-44,-19,17
108,-1891,-1,95,-4640,23,-44,-20,17
109,-1894,-2,95,-4642,23,-44,-20,16
110,-1895,-1,98,-4643,23,-44,-20,17
111,-1895,-3,94,-4643,23,-44,-20,17
112,-1894,-1,93,-4641,23,-44,-20,17
113,-1896,1,95,-4642,23,-44,-19,17
114,-1898,1,95,-4640,23,-44,-20,17
115,-1896,-1,97,-4640,23,-44,-20,17
116,-1897,-1,94,-4643,23,-44,-20,17
117,-1898,-2,93,-4645,23,-43,-20,17
118,-1896,-2,92,-4644,23,-44,-19,17
119,-1897,-1,93,-4642,23,-44,-19,17
120,-1898,2,94,-4640,23,-44,-19,17
121,-1897,0,95,-4636,23,-44,-20,17
122,-1897,-1,97,-4641,23,-44,-20,17
123,-1896,-2,98,-4640,23,-44,-20,17
124,-1895,-1,95,-4642,23,-44,-20,17
125,-1894,-1,96,-4640,23,-44,-19,17
126,-1894,-1,95,-4641,23,-44,-20,17
127,-1894,-1,94,-4643,23,-44,-20,16
128,-1895,-2,88,-4641,23,-44,-20,17
129,-1894,-1,87,-4643,23,-44,-20,17
130,-1895,-1,88,-4643,23,-44,-20,17
131,-1894,-2,93,-4642,23,-44,-20,17
132,-1895,0,94,-4641,23,-44,-20,17
133,-1895,1,96,-4639,23,-44,-20,17
134,-1894,0,95,-4640,23,-44,-19,17
135,-1895,-1,94,-4642,23,-45,-20,17
136,-1895,-2,94,-4640,23,-44,-20,17
137,-1895,-2,97,-4638,23,-44,-20,18
138,-1897,-2,98,-4638,23,-44,-20,18
139,-1898,-3,96,-4639,23,-44,-20,17
140,-1896,-2,96,-4643,23,-44,-19,17
141,-1896,0,97,-4641,23,-44,-19,17
142,-1896,-1,92,-4640,23,-44,-19,17
143,-1896,-2,94,-4643,23,-44,-19,17
144,-1895,-2,93,-4644,23,-44,-19,18
145,-1894,-2,91,-4643,23,-44,-19,18
146,-1894,-2,92,-4642,23,-44,-19,18
147,-1894,-1,95,-4642,23,-43,-19,17
148,-1895,-2,97,-4642,23,-44,-19,17
149,-1895,-2,97,-4642,23,-44,-19,17
150,-1894,-2,98,-4640,23,-44,-19,17
151,-1893,-2,95,-4640,23,-43,-19,17
152,-1895,-4,95,-4640,23,-44,-19,17
153,-1895,-4,97,-4642,23,-43,-20,18
154,-1895,-4,95,-4640,23,-44,-19,18
155,-1894,-4,99,-4640,23,-44,-19,17
156,-1894,-3,95,-4642,23,-44,-20,17
157,-1896,-4,98,-4643,23,-44,-19,17
158,-1898,-3,97,-4642,23,-44,-19,17
159,-1897,-4,96,-4643,23,-44,-19,17
160,-1896,-4,95,-4643,23,-43,-19,17
161,-1897,-3,94,-4644,23,-43,-20,17
162,-1897,-3,91,-4645,23,-44,-20,17
163,-1896,-3,93,-4643,23,-44,-20,17
164,-1896,-2,93,-4641,23,-44,-20,17
165,-1896,-2,91,-4643,23,-43,-20,17
166,-1896,-4,91,-4644,23,-44,-20,17
167,-1894,-3,89,-4642,23,-44,-20,17
168,-1896,-2,94,-4640,23,-44,-20,16
169,-1895,-1,95,-4639,23,-43,-20,17
170,-1896,-1,99,-4644,23,-44,-20,17
171,-1895,-4,97,-4645,23,-44,-20,16
172,-1894,-3,96,-4644,23,-44,-19,17
173,-1895,-3,96,-4646,23,-43,-20,17
174,-1895,-3,97,-4640,23,-43,-20,16
175,-1894,-4,95,-4644,23,-44,-20,16
176,-1893,-2,95,-4641,23,-44,-20,17
177,-1894,-3,92,-4642,23,-44,-20,17
178,-1894,-2,92,-4639,23,-44,-20,16
179,-1894,-2,93,-4640,23,-44,-20,17
180,-1893,-1,97,-4639,23,-44,-20,16
181,-1893,-2,97,-4640,23,-44,-19,17
182,-1896,-1,96,-4638,23,-44,-20,17
183,-1895,-1,96,-4638,23,-44,-20,17
184,-1892,0,97,-4643,23,-44,-20,18
185,-1893,0,92,-4642,23,-44,-20,18
186,-1892,-1,90,-4638,23,-43,-19,17
187,-1894,0,95,-4642,23,-44,-20,17
188,-1897,-1,94,-4641,23,-44,-19,17
189,-1895,-2,91,-4641,23,-44,-19,17
190,-1894,-2,90,-4641,23,-44,-19,17
191,-1895,-3,91,-4643,23,-44,-20,17
192,-1893,-3,93,-4645,23,-44,-20,17
193,-1896,-3,93,-4646,23,-43,-20,17
194,-1897,-4,96,-4646,23,-44,-20,17
195,-1896,-1,97,-4644,23,-43,-19,17
196,-1898,-1,94,-4643,23,-43,-19,16
197,-1898,-1,95,-4643,23,-44,-19,17
198,-1897,0,96,-4641,23,-44,-19,17
199,-1896,0,96,-4642,23,-44,-20,17
200,-1898,-1,91,-4638,23,-44,-20,17
201,-1897,-1,94,-4638,23,-44,-20,17
202,-1895,0,92,-4639,23,-44,-20,17
203,-1894,-2,88,-4643,23,-44,-20,17
204,-1895,-4,90,-4639,23,-44,-19,17
205,-1896,-3,86,-4639,23,-44,-20,17
206,-1896,-4,92,-4639,23,-43,-20,17
207,-1894,-4,92,-4639,23,-44,-20,17
208,-1895,-3,94,-4640,23,-44,-19,17
209,-1894,-4,90,-4641,23,-44,-19,17
210,-1892,-6,89,-4638,23,-44,-19,17
211,-1893,-4,90,-4641,23,-44,-20,17
212,-1894,-3,94,-4642,23,-44,-19,17
213,-1895,-3,93,-4642,23,-44,-19,17
214,-1895,-1,93,-4643,23,-43,-19,17
215,-1895,-3,90,-4642,23,-43,-19,16
216,-1892,-4,92,-4641,23,-44,-19,16
217,-1893,-4,93,-4641,23,-44,-19,16
218,-1896,-2,92,-4639,23,-44,-19,16
219,-1896,-3,92,-4639,23,-44,-19,16
220,-1893,-1,93,-4640,23,-44,-20,17
221,-1893,-1,89,-4639,23,-44,-19,17
222,-1894,-1,89,-4641,23,-44,-19,17
223,-1894,1,95,-4645,23,-44,-20,18
224,-1895,3,98,-4645,23,-44,-19,18
225,-1895,2,98,-4642,23,-44,-19,17
226,-1896,0,94,-4642,23,-44,-20,18
227,-1896,-1,96,-4641,23,-43,-20,18
228,-1895,1,95,-4642,23,-43,-19,18
229,-1895,0,93,-4643,23,-43,-20,17
230,-1894,2,93,-4641,23,-44,-20,17
231,-1894,0,91,-4643,23,-44,-20,17
232,-1893,1,94,-4644,23,-44,-20,18
233,-1893,1,93,-4639,23,-44,-20,18
234,-1892,0,96,-4642,23,-44,-19,17
235,-1893,-1,94,-4642,23,-44,-19,17
236,-1894,-2,94,-4640,23,-44,-19,17
237,-1894,-4,94,-4644,23,-44,-19,17
238,-1895,-4,94,-4645,23,-44,-19,17
239,-1894,-2,93,-4642,23,-44,-19,16
240,-1895,-2,94,-4641,23,-44,-20,17
241,-1896,-1,92,-4644,23,-44,-19,16
242,-1900,-1,91,-4644,23,-44,-19,16
243,-1899,0,91,-4642,23,-45,-20,17
244,-1896,-1,92,-4646,23,-44,-19,17
245,-1895,-1,96,-4645,23,-44,-20,17
246,-1894,1,97,-4643,23,-44,-20,17
247,-1894,0,95,-4640,23,-44,-20,17
248,-1894,0,93,-4642,23,-44,-19,17
249,-1893,-2,90,-4641,23,-44,-19,17
250,-1893,-2,91,-4642,23,-44,-19,17
251,-1895,-2,92,-4641,23,-44,-19,17
252,-1892,1,93,-4643,23,-44,-19,17
253,-1892,1,93,-4640,23,-44,-19,17
254,-1892,-1,93,-4642,23,-45,-19,17
255,-1894,-2,94,-4644,23,-44,-19,17
256,-1894,-1,93,-4642,23,-44,-20,17
257,-1895,0,98,-4638,23,-44,-20,17
258,-1894,1,96,-4640,23,-44,-20,17
259,-1895,-3,93,-4636,23,-44,-20,16
260,-1895,-5,97,-4636,23,-44,-20,17
261,-1895,-4,97,-4638,23,-44,-19,17
262,-1895,-5,94,-4640,23,-44,-20,17
263,-1894,-4,92,-4641,23,-44,-20,17
264,-1896,-3,92,-4640,23,-45,-20,17
265,-1894,-3,91,-4639,23,-45,-20,17
266,-1892,-2,89,-4640,23,-44,-20,17
267,-1896,-1,92,-4638,23,-44,-19,17
268,-1896,-2,92,-4641,23,-44,-20,17
269,-1894,-2,93,-4640,23,-44,-19,17
270,-1892,-3,95,-4642,23,-45,-20,17
271,-1893,-3,93,-4640,23,-44,-19,17
272,-1893,-4,90,-4641,23,-44,-19,17
273,-1894,-4,91,-4641,23,-45,-20,18
274,-1894,-3,88,-4641,23,-44,-20,18
275,-1893,-2,89,-4639,23,-44,-20,17
276,-1894,-2,93,-4637,23,-44,-19,17
277,-1894,-2,96,-4641,23,-44,-19,17
278,-1895,-3,94,-4640,23,-44,-20,17
279,-1893,-1,96,-4640,23,-44,-20,17
280,-1896,0,96,-4643,23,-44,-19,17
281,-1898,-1,94,-4643,23,-44,-20,17
282,-1896,-3,91,-4640,23,-44,-20,16
283,-1896,-3,92,-4641,23,-44,-19,17
284,-1892,-5,94,-4641,23,-44,-19,16
285,-1893,-1,96,-4641,23,-45,-19,17
286,-1896,-2,91,-4641,23,-44,-20,16
287,-1895,-4,92,-4638,23,-44,-20,17
288,-1896,-5,91,-4639,23,-43,-20,17
289,-1895,-3,94,-4638,23,-43,-19,16
290,-1894,-2,95,-4639,23,-43,-19,17
291,-1894,-4,96,-4640,23,-43,-20,17
292,-1894,-3,97,-4643,23,-44,-19,17
293,-1894,-1,95,-4642,23,-44,-19,17
294,-1895,-2,96,-4642,23,-44,-19,17
295,-1896,0,95,-4640,23,-45,-19,17
296,-1897,-1,93,-4641,23,-44,-19,17
297,-1898,-3,98,-4639,23,-44,-19,18
298,-1896,-3,96,-4637,23,-44,-19,18
299,-1897,-4,94,-4638,23,-44,-19,18
300,-1894,-3,91,-4638,23,-44,-19,17
301,-1894,0,92,-4641,23,-44,-20,17
302,-1895,1,95,-4641,23,-45,-20,17
303,-1894,1,98,-4643,23,-44,-20,17
304,-1897,-1,97,-4643,23,-44,-20,17
305,-1894,-2,96,-4640,23,-44,-20,17
306,-1893,-3,94,-4640,23,-45,-20,17
307,-1894,-3,91,-4640,23,-44,-20,17
308,-1893,-3,95,-4641,23,-44,-20,18
309,-1895,-2,96,-4637,23,-44,-20,18
310,-1896,-2,97,-4638,23,-44,-19,17
311,-1895,-1,96,-4638,23,-44,-19,17
312,-1893,-1,95,-4639,23,-44,-19,17
313,-1895,-2,95,-4640,23,-44,-19,17
314,-1894,-2,93,-4641,23,-44,-20,17
315,-1894,-4,93,-4644,23,-44,-19,17
316,-1895,-1,91,-4641,23,-44,-19,17
317,-1894,-3,93,-4642,23,-44,-19,17
318,-1897,-3,93,-4643,23,-44,-20,17
319,-1896,-1,96,-4643,23,-44,-19,17
320,-1894,-2,93,-4641,23,-44,-20,17
321,-1896,-2,93,-4641,23,-44,-20,17
322,-1896,-2,93,-4641,23,-44,-20,18
323,-1896,-3,94,-4642,23,-45,-20,17
324,-1896,-3,93,-4642,23,-44,-20,17
325,-1897,-4,98,-4641,23,-44,-20,17
326,-1897,-1,96,-4639,23,-45,-19,17
327,-1896,-2,94,-4637,23,-45,-19,18
328,-1894,-4,96,-4637,23,-44,-20,17
329,-1895,-2,92,-4643,23,-44,-20,17
330,-1895,-2,93,-4642,23,-44,-20,17
331,-1895,-1,94,-4639,23,-44,-20,17
332,-1891,-1,94,-4639,23,-44,-20,17
333,-1891,0,92,-4639,23,-44,-19,17
334,-1893,-2,93,-4641,23,-44,-19,17
335,-1895,-4,90,-4641,23,-44,-20,17
336,-1895,-5,93,-4642,23,-44,-20,17
337,-1896,-4,94,-4642,23,-44,-20,17
338,-1896,-3,93,-4643,23,-45,-19,17
339,-1897,-4,92,-4642,23,-45,-20,16
340,-1897,-5,94,-4639,23,-44,-19,16
341,-1897,-4,93,-4638,23,-44,-20,17
342,-1896,-3,95,-4640,23,-44,-19,17
343,-1896,-3,95,-4638,23,-44,-19,17
344,-1895,-4,95,-4638,23,-44,-20,17
345,-1894,-4,93,-4643,23,-44,-20,17
346,-1893,-6,96,-4641,23,-45,-19,17
347,-1895,-5,95,-4642,23,-45,-19,17
348,-1895,-2,94,-4644,23,-44,-19,17
349,-1894,-1,92,-4639,23,-44,-19,17
350,-1896,-3,91,-4637,23,-44,-19,17
351,-1894,-3,95,-4637,23,-44,-19,17
352,-1894,-2,94,-4638,23,-44,-19,17
353,-1894,-1,95,-4636,23,-44,-19,17
354,-1895,-2,94,-4638,23,-44,-19,17
355,-1898,-2,94,-4640,23,-45,-19,17
356,-1895,-1,95,-4643,23,-44,-20,17
357,-1896,-1,92,-4639,23,-44,-20,18
358,-1898,-1,91,-4638,23,-44,-20,17
359,-1897,2,89,-4636,23,-44,-20,17
360,-1895,1,92,-4639,23,-44,-19,17
361,-1896,-1,92,-4639,23,-44,-19,18
362,-1895,-3,93,-4640,23,-44,-20,17
363,-1893,-2,93,-4642,23,-44,-19,17
364,-1894,-2,92,-4640,23,-44,-19,17
365,-1894,-1,90,-4637,23,-44,-19,16
366,-1893,0,93,-4637,23,-44,-19,16
367,-1893,1,95,-4637,23,-44,-19,16
368,-1893,0,94,-4637,23,-44,-19,17
369,-1894,0,90,-4639,23,-44,-20,17
370,-1895,-1,92,-4638,23,-44,-20,17
371,-1895,-1,95,-4637,23,-44,-19,17
372,-1895,-1,92,-4637,23,-44,-19,17
373,-1894,0,92,-4635,23,-44,-20,17
374,-1895,1,93,-4634,23,-43,-20,17
375,-1896,-1,96,-4634,23,-43,-20,17
376,-1894,-3,94,-4636,23,-44,-20,17
377,-1896,-3,94,-4636,23,-44,-19,17
378,-1897,-1,91,-4635,23,-44,-19,17
379,-1895,-3,92,-4636,23,-44,-19,17
380,-1893,-3,91,-4636,23,-44,-20,17
381,-1893,-1,92,-4635,23,-44,-19,17
382,-1893,-3,87,-4634,23,-44,-20,17
383,-1895,-4,91,-4635,23,-43,-19,17
384,-1893,-4,94,-4635,23,-44,-18,17
385,-1893,-2,96,-4633,23,-43,-19,17
386,-1893,0,95,-4633,23,-44,-19,16
387,-1893,2,96,-4633,23,-44,-19,16
388,-1894,1,96,-4633,23,-44,-19,16
389,-1896,-1,94,-4634,23,-44,-19,16
390,-1895,-4,92,-4638,23,-44,-19,16
391,-1895,-2,90,-4636,23,-44,-20,17
392,-1892,1,94,-4639,23,-44,-20,17
393,-1895,2,93,-4636,23,-44,-20,16
394,-1897,2,92,-4638,23,-43,-20,16
395,-1896,2,91,-4638,23,-43,-19,17
396,-1897,1,92,-4634,23,-44,-20,17
397,-1897,-2,95,-4637,23,-44,-20,17
398,-1895,-1,92,-4637,23,-44,-19,17
399,-1895,-1,94,-4638,23,-44,-20,17
400,-1896,0,93,-4639,23,-44,-19,17
401,-1896,-2,96,-4640,23,-44,-20,18
402,-1895,-2,93,-4638,23,-44,-20,18
403,-1894,-2,92,-4640,23,-44,-20,17
404,-1895,-3,91,-4637,23,-44,-20,17
405,-1895,-3,91,-4640,23,-45,-20,17
406,-1893,-4,91,-4638,23,-45,-20,17
407,-1889,-3,90,-4638,23,-45,-20,17
408,-1891,-2,91,-4638,23,-44,-20,17
409,-1894,-3,91,-4640,23,-44,-20,17
410,-1894,-3,92,-4639,23,-44,-20,17
411,-1894,-4,90,-4636,23,-44,-20,18
412,-1894,-3,90,-4637,23,-44,-20,18
413,-1896,-3,96,-4637,23,-45,-19,18
414,-1896,-2,95,-4641,23,-45,-19,18
415,-1895,-3,94,-4639,23,-44,-19,17
416,-1895,-2,94,-4638,23,-44,-20,17
417,-1894,-1,94,-4638,23,-44,-20,18
418,-1896,-1,93,-4637,23,-45,-20,17
419,-1894,-3,93,-4637,23,-45,-20,17
420,-1895,-2,92,-4639,23,-44,-20,17
421,-1896,-2,92,-4639,23,-44,-19,17
422,-1896,0,90,-4637,23,-44,-19,17
423,-1894,-2,91,-4636,23,-44,-19,18
424,-1894,-4,91,-4635,23,-44,-19,18
425,-1893,-4,89,-4634,23,-44,-19,17
426,-1894,-3,90,-4632,23,-44,-19,17
427,-1894,-3,90,-4638,23,-44,-20,18
428,-1897,-3,93,-4640,23,-44,-19,18
429,-1897,-3,92,-4637,23,-44,-19,17
430,-1895,-3,93,-4636,23,-44,-20,17
431,-1895,-1,94,-4635,23,-44,-20,17
432,-1897,-2,94,-4634,23,-44,-20,17
433,-1897,-1,91,-4635,23,-44,-20,17
434,-1896,-1,90,-4634,23,-44,-20,17
435,-1894,-2,89,-4637,23,-44,-20,17
436,-1894,-1,92,-4635,23,-44,-20,17
437,-1896,0,93,-4637,23,-44,-20,17
438,-1896,-3,93,-4633,23,-44,-20,17
439,-1894,-2,91,-4636,23,-44,-20,17
440,-1894,-3,91,-4640,23,-44,-19,17
441,-1896,-4,94,-4641,23,-44,-19,17
442,-1895,-3,94,-4636,23,-44,-20,17
443,-1896,-5,99,-4635,23,-43,-20,17
444,-1896,-4,99,-4636,23,-44,-20,18
445,-1898,-4,98,-4636,23,-44,-20,17
446,-1896,-2,92,-4638,23,-45,-20,17
447,-1893,-2,93,-4638,23,-44,-20,17
448,-1894,-4,94,-4637,23,-44,-20,17
449,-1895,-1,91,-4639,23,-45,-20,17
450,-1894,1,89,-4638,23,-45,-20,17
451,-1896,1,90,-4634,23,-44,-20,17
452,-1894,-1,88,-4639,23,-44,-20,17
453,-1895,1,88,-4637,23,-44,-20,17
454,-1896,2,87,-4636,23,-44,-19,17
455,-1896,3,89,-4635,23,-44,-19,16
456,-1897,1,91,-4632,23,-44,-20,17
457,-1896,1,91,-4636,23,-44,-19,17
458,-1895,1,90,-4640,23,-44,-19,17
459,-1895,0,93,-4642,23,-44,-20,17
460,-1895,1,95,-4641,23,-44,-20,16
461,-1893,1,95,-4636,23,-44,-20,17
462,-1893,1,94,-4637,23,-44,-20,16
463,-1894,0,94,-4639,23,-44,-20,17
464,-1895,-3,95,-4641,23,-44,-19,17
465,-1896,-1,95,-4641,23,-44,-20,17
466,-1896,-2,94,-4639,23,-44,-19,17
467,-1895,-4,96,-4638,23,-44,-19,18
468,-1894,-4,93,-4637,23,-44,-19,18
469,-1894,-2,95,-4638,23,-44,-19,18
470,-1894,-1,96,-4636,23,-44,-19,18
471,-1893,-1,96,-4637,23,-44,-19,17
472,-1894,0,94,-4632,23,-44,-19,18
473,-1894,-1,94,-4634,23,-44,-20,17
474,-1891,-4,90,-4634,23,-44,-20,17
475,-1891,-2,92,-4636,23,-44,-20,17
476,-1891,-2,94,-4637,23,-44,-19,17
477,-1893,-1,97,-4637,23,-44,-20,17
478,-1895,-1,96,-4637,23,-44,-19,17
479,-1895,-1,92,-4637,23,-44,-19,17
480,-1894,0,91,-4634,23,-44,-19,17
481,-1895,-2,92,-4632,23,-44,-19,17
482,-1895,-2,92,-4631,23,-44,-19,17
483,-1895,-3,94,-4633,23,-44,-19,17
484,-1896,-3,95,-4635,23,-44,-19,17
485,-1896,-2,97,-4634,23,-44,-20,17
486,-1895,-1,93,-4638,23,-44,-20,17
487,-1898,-1,92,-4639,23,-44,-20,17
488,-1897,-2,87,-4641,23,-44,-19,17
489,-1896,-2,89,-4637,23,-43,-20,17
490,-1896,-1,93,-4634,23,-43,-19,17
491,-1896,1,93,-4634,23,-43,-20,17
492,-1893,0,94,-4631,23,-44,-20,17
493,-1893,-2,94,-4637,23,-44,-19,17
494,-1893,-3,90,-4637,23,-44,-19,17
495,-1893,-3,91,-4637,23,-44,-20,17
496,-1895,-4,94,-4636,23,-44,-19,17
497,-1896,-4,95,-4638,23,-44,-19,17
498,-1895,-3,97,-4636,23,-43,-19,17
499,-1894,-2,100,-4640,23,-43,-19,17
500,-1895,0,99,-4642,23,-43,-20,17
501,-1894,-1,99,-4639,23,-44,-20,17
502,-1894,-1,98,-4636,23,-44,-19,17
503,-1895,-2,97,-4636,23,-44,-19,17
504,-1895,-3,95,-4636,23,-44,-20,17
505,-1895,-5,98,-4636,23,-44,-19,17
506,-1894,-4,97,-4634,23,-44,-19,17
507,-1896,-2,93,-4635,23,-45,-20,16
508,-1894,-3,93,-4634,23,-44,-20,17
509,-1896,-2,95,-4633,23,-44,-20,17
510,-1897,-4,96,-4635,23,-45,-20,17
511,-1896,-3,92,-4635,23,-44,-19,17
512,-1895,-3,89,-4636,23,-44,-20,17
513,-1895,-3,90,-4636,23,-44,-19,17
514,-1896,-2,87,-4636,23,-45,-20,17
515,-1896,-2,93,-4637,23,-44,-19,17
516,-1894,-1,93,-4639,23,-44,-19,16
517,-1893,-1,92,-4636,23,-44,-19,17
518,-1896,-1,91,-4637,23,-44,-19,17
519,-1893,-2,92,-4639,23,-44,-19,17
520,-1893,-1,94,-4637,23,-44,-19,18
521,-1892,-2,94,-4636,23,-44,-19,18
522,-1893,-3,93,-4634,23,-44,-20,18
523,-1893,0,92,-4635,23,-44,-19,17
524,-1894,-2,91,-4639,23,-44,-19,17
525,-1893,-1,93,-4636,23,-44,-19,17
526,-1892,-2,94,-4636,23,-44,-19,17
527,-1893,-3,93,-4634,23,-44,-19,17
528,-1892,1,94,-4637,23,-44,-19,17
529,-1894,2,95,-4637,23,-44,-19,18
530,-1895,0,96,-4636,23,-44,-19,18
531,-1896,1,93,-4637,23,-43,-19,18
532,-1894,0,96,-4635,23,-45,-19,17
533,-1894,-1,95,-4637,23,-44,-19,17
534,-1893,-2,92,-4638,23,-44,-19,17
535,-1895,-1,93,-4636,23,-44,-19,17
536,-1897,-2,92,-4637,23,-44,-20,17
537,-1895,-3,94,-4638,23,-44,-20,17
538,-1896,-3,94,-4638,23,-44,-19,17
539,-1895,-2,91,-4637,23,-44,-19,17
540,-1895,-1,90,-4635,23,-44,-20,17
541,-1895,-2,91,-4632,23,-44,-20,17
542,-1896,-1,96,-4635,23,-44,-20,17
543,-1895,-2,95,-4636,23,-44,-20,17
544,-1893,-1,94,-4635,23,-44,-20,17
545,-1894,-1,96,-4638,23,-44,-19,17
546,-1894,-4,93,-4637,23,-45,-19,17
547,-1896,-1,96,-4639,23,-44,-19,17
548,-1896,0,92,-4643,23,-44,-19,17
549,-1896,-2,91,-4639,23,-44,-19,17
550,-1897,-1,88,-4638,23,-44,-20,17
551,-1894,-1,89,-4640,23,-44,-19,17
552,-1895,-1,93,-4638,23,-44,-19,17
553,-1893,0,92,-4637,23,-45,-20,18
554,-1897,0,90,-4637,23,-44,-20,17
555,-1896,-3,91,-4634,23,-45,-20,17
556,-1896,-1,91,-4636,23,-44,-20,17
557,-1896,-3,91,-4638,23,-44,-20,17
558,-1896,-4,92,-4640,23,-44,-20,17
559,-1895,-5,93,-4639,23,-44,-20,17
560,-1895,-4,92,-4639,23,-44,-20,17
561,-1893,-3,93,-4637,23,-44,-20,17
562,-1893,-4,92,-4634,23,-44,-20,17
563,-1897,-3,90,-4634,23,-44,-20,17
564,-1897,-3,89,-4637,23,-44,-20,17
565,-1896,-4,92,-4637,23,-44,-20,17
566,-1896,-3,95,-4637,23,-44,-19,17
567,-1896,-2,92,-4637,23,-45,-20,16
568,-1895,-4,92,-4636,23,-45,-19,17
569,-1895,-3,91,-4637,23,-44,-19,17
570,-1895,-1,91,-4634,23,-44,-20,17
571,-1892,-2,92,-4633,23,-44,-20,16
572,-1893,-4,90,-4636,23,-44,-20,17
573,-1895,-3,91,-4635,23,-44,-19,17
574,-1895,-1,90,-4636,23,-44,-19,17
575,-1894,-4,91,-4637,23,-44,-19,17
576,-1895,-3,93,-4635,23,-44,-19,17
577,-1895,-3,92,-4636,23,-44,-20,17
578,-1896,-4,96,-4634,23,-45,-19,17
579,-1897,-4,94,-4636,23,-44,-19,17
580,-1895,-3,93,-4635,23,-44,-19,17
581,-1895,-5,92,-4638,23,-44,-19,17
582,-1896,-4,92,-4636,23,-44,-19,17
583,-1895,-6,90,-4636,23,-44,-19,17
584,-1898,-5,93,-4636,23,-44,-20,16
585,-1896,-3,94,-4637,23,-44,-19,17
586,-1897,-1,90,-4636,23,-44,-20,17
587,-1896,-1,91,-4641,23,-44,-19,17
588,-1896,-1,88,-4637,23,-44,-20,17
589,-1896,-2,91,-4639,23,-44,-20,17
590,-1896,-1,88,-4637,23,-44,-20,17
591,-1894,-2,89,-4637,23,-44,-19,17
592,-1895,-1,91,-4637,23,-45,-20,17
593,-1897,-3,91,-4637,23,-44,-20,17
594,-1895,-5,91,-4640,23,-44,-19,17
595,-1893,-4,94,-4639,23,-44,-19,17
596,-1895,-2,94,-4640,23,-44,-20,17
597,-1896,-2,95,-4641,23,-44,-19,17
598,-1895,-3,94,-4636,23,-44,-19,17
599,-1894,-2,97,-4635,23,-44,-20,17
600,-1894,-2,96,-4637,23,-44,-20,17
601,-1894,-1,96,-4638,23,-44,-19,17
602,-1897,-1,96,-4637,23,-44,-20,17
603,-1897,0,96,-4636,23,-44,-19,17
604,-1896,0,92,-4636,23,-44,-20,17
605,-1895,0,94,-4636,23,-44,-20,17
606,-1895,-2,93,-4635,23,-44,-20,17
607,-1896,-1,94,-4637,23,-45,-20,17
608,-1895,-3,96,-4635,23,-44,-20,17
609,-1896,-5,95,-4634,23,-44,-20,17
610,-1896,-4,94,-4632,23,-44,-20,17
611,-1896,-2,95,-4635,23,-44,-20,17
612,-1895,-2,96,-4635,23,-44,-19,17
613,-1893,-3,96,-4638,23,-44,-19,17
614,-1894,-2,97,-4638,23,-44,-19,17
615,-1893,0,97,-4636,23,-44,-19,17
616,-1893,0,97,-4636,23,-44,-19,17
617,-1892,-1,96,-4636,23,-44,-20,17
618,-1892,0,97,-4636,23,-45,-19,17
619,-1895,-3,95,-4637,23,-44,-19,17
620,-1893,-1,97,-4633,23,-43,-19,17
621,-1895,-1,97,-4634,23,-43,-20,17
622,-1895,-1,95,-4635,23,-43,-20,16
623,-1895,-1,95,-4633,23,-43,-20,16
624,-1896,-2,93,-4634,23,-44,-19,17
625,-1898,-1,93,-4636,23,-44,-20,17
626,-1895,-2,94,-4636,23,-44,-19,17
627,-1895,-1,94,-4634,23,-43,-20,17
628,-1897,-3,94,-4633,23,-44,-19,17
629,-1897,-2,92,-4637,23,-44,-19,17
630,-1899,-3,89,-4634,23,-44,-19,17
631,-1897,-2,92,-4635,23,-44,-19,17
632,-1895,-2,94,-4640,23,-44,-19,17
633,-1896,-2,95,-4637,23,-44,-20,17
634,-1895,-3,96,-4637,23,-44,-20,17
635,-1896,1,93,-4636,23,-44,-19,17
636,-1896,1,96,-4635,23,-44,-19,17
637,-1895,-3,92,-4638,23,-44,-19,17
638,-1895,-4,92,-4634,23,-44,-19,17
639,-1895,-3,92,-4634,23,-44,-20,17
640,-1897,-1,95,-4633,23,-44,-20,17
641,-1897,1,94,-4634,23,-44,-19,17
642,-1897,2,92,-4637,23,-44,-19,16
643,-1897,0,93,-4637,23,-44,-19,17
644,-1897,0,91,-4634,23,-44,-19,17
645,-1898,1,91,-4632,23,-44,-20,17
646,-1899,0,91,-4633,23,-44,-20,17
647,-1897,-1,94,-4632,23,-45,-20,17
648,-1895,-1,90,-4633,23,-44,-20,17
649,-1894,0,92,-4634,23,-44,-20,17
650,-1893,-2,95,-4633,23,-44,-20,17
651,-1897,-3,95,-4635,23,-44,-20,17
652,-1897,-3,93,-4634,23,-44,-19,17
653,-1895,-2,95,-4635,23,-44,-19,17
654,-1898,-1,94,-4637,23,-44,-19,17
655,-1900,0,92,-4636,23,-44,-19,17
656,-1898,-2,89,-4633,23,-44,-19,17
657,-1899,-2,92,-4632,23,-44,-19,17
658,-1896,-3,92,-4635,23,-44,-19,16
659,-1895,-3,93,-4636,23,-44,-19,17
660,-1894,-1,95,-4634,23,-44,-20,16
661,-1893,-1,95,-4636,23,-44,-20,17
662,-1894,1,93,-4637,23,-44,-20,17
663,-1895,1,92,-4636,23,-44,-20,17
664,-1893,0,91,-4637,23,-44,-20,16
665,-1892,-1,93,-4637,23,-44,-20,16
666,-1895,-2,94,-4635,23,-44,-20,17
667,-1896,-1,95,-4636,23,-44,-20,17
668,-1896,-3,95,-4637,23,-44,-20,17
669,-1898,-3,96,-4636,23,-44,-20,17
670,-1897,-4,97,-4637,23,-44,-20,17
671,-1897,-4,95,-4636,23,-43,-20,16
672,-1897,-1,93,-4636,23,-44,-19,17
673,-1898,0,92,-4634,23,-44,-19,17
674,-1898,-1,93,-4635,23,-44,-20,17
675,-1898,-4,91,-4635,23,-44,-20,17
676,-1895,-2,92,-4635,23,-44,-20,17
677,-1895,-2,92,-4635,23,-44,-20,17
678,-1895,-3,89,-4630,23,-44,-19,17
679,-1897,-3,90,-4631,23,-44,-19,16
680,-1896,-3,91,-4631,23,-44,-19,17
681,-1897,-4,92,-4633,23,-44,-20,17
682,-1896,-3,95,-4634,23,-44,-20,17
683,-1897,-2,96,-4634,23,-44,-20,17
684,-1897,-2,94,-4636,23,-44,-20,17
685,-1895,-3,94,-4636,23,-44,-20,17
686,-1895,-4,96,-4637,23,-44,-19,16
687,-1894,-1,95,-4635,23,-45,-19,17
688,-1894,-1,94,-4634,23,-45,-18,17
689,-1894,0,93,-4635,23,-44,-19,17
690,-1894,1,95,-4636,23,-44,-20,18
691,-1895,-1,95,-4636,23,-44,-20,18
692,-1894,-2,92,-4636,23,-44,-20,17
693,-1894,-3,94,-4638,23,-44,-20,17
694,-1894,-2,92,-4638,23,-44,-20,17
695,-1893,-2,91,-4638,23,-44,-19,17
696,-1894,-1,91,-4638,23,-44,-20,17
697,-1894,2,90,-4637,23,-44,-20,17
698,-1895,0,92,-4637,23,-44,-20,17
699,-1894,-3,90,-4636,23,-44,-19,16
700,-1895,-1,91,-4638,23,-45,-20,16
701,-1897,-3,92,-4637,23,-45,-19,17
702,-1894,-3,96,-4637,23,-45,-19,17
703,-1893,-2,94,-4637,23,-45,-19,17
704,-1894,-1,94,-4635,23,-44,-19,17
705,-1894,1,91,-4634,23,-44,-19,17
706,-1894,1,91,-4633,23,-44,-19,16
707,-1894,-1,89,-4634,23,-44,-19,17
708,-1894,-1,90,-4634,23,-44,-20,17
709,-1895,1,89,-4632,23,-44,-19,17
710,-1893,-1,92,-4636,23,-44,-19,17
711,-1895,-2,94,-4635,23,-44,-19,17
712,-1897,-3,93,-4635,23,-44,-19,17
713,-1896,-2,95,-4636,23,-44,-20,18
714,-1895,-1,94,-4637,23,-43,-19,18
715,-1898,-1,97,-4638,23,-44,-19,18
716,-1896,-2,96,-4640,23,-44,-19,18
717,-1894,-2,95,-4640,23,-44,-20,17
718,-1895,-2,93,-4639,23,-44,-20,18
719,-1895,-4,94,-4637,23,-44,-20,17
720,-1895,-2,92,-4636,23,-44,-19,17
721,-1897,0,94,-4637,23,-44,-19,18
722,-1897,-2,92,-4637,23,-44,-20,17
723,-1895,-2,91,-4636,23,-44,-19,17
724,-1892,-2,95,-4637,23,-44,-20,17
725,-1894,-2,94,-4639,23,-44,-20,17
726,-1894,0,94,-4639,23,-44,-20,17
727,-1895,0,94,-4636,23,-44,-20,17
728,-1896,-2,95,-4635,23,-44,-20,17
729,-1895,-1,99,-4636,23,-44,-20,17
730,-1894,-1,97,-4636,23,-43,-20,17
731,-1891,0,95,-4637,23,-43,-20,17
732,-1893,-3,95,-4636,23,-43,-19,17
733,-1894,-2,98,-4633,23,-43,-20,17
734,-1894,-1,95,-4630,23,-43,-20,18
735,-1897,-2,92,-4634,23,-44,-20,17
736,-1896,-1,90,-4633,23,-44,-20,17
737,-1895,-3,91,-4638,23,-44,-20,17
738,-1894,-3,92,-4637,23,-44,-20,17
739,-1893,-2,89,-4635,23,-44,-20,17
740,-1894,-4,89,-4635,23,-44,-20,18
741,-1895,-1,90,-4636,23,-44,-19,17
742,-1896,-2,93,-4636,23,-44,-20,17
743,-1895,0,93,-4635,23,-44,-20,17
744,-1894,-2,97,-4633,23,-44,-19,17
745,-1895,-1,98,-4631,23,-44,-19,17
746,-1895,0,93,-4630,23,-44,-20,17
747,-1895,-1,90,-4633,23,-44,-20,17
748,-1895,-2,92,-4636,23,-44,-20,17
749,-1895,-1,92,-4635,23,-44,-19,17
750,-1895,-3,92,-4635,23,-44,-19,17
751,-1893,-1,94,-4637,23,-44,-19,17
752,-1896,-1,95,-4639,23,-44,-19,17
753,-1894,-3,93,-4641,23,-44,-19,18
754,-1894,0,91,-4642,23,-44,-20,17
755,-1897,1,93,-4637,23,-44,-20,17
756,-1897,0,92,-4634,23,-44,-20,17
757,-1894,-2,93,-4637,23,-44,-21,17
758,-1894,-2,93,-4639,23,-44,-20,17
759,-1896,-4,91,-4637,23,-44,-20,17
760,-1898,-3,93,-4639,23,-44,-20,17
761,-1895,-3,92,-4637,23,-44,-20,17
762,-1892,-3,93,-4639,23,-44,-19,18
763,-1892,-3,92,-4638,23,-44,-19,18
764,-1897,-2,93,-4637,23,-44,-19,17
765,-1893,-1,91,-4639,23,-44,-19,17
766,-1895,-3,90,-4638,23,-44,-19,17
767,-1895,-1,95,-4638,23,-44,-19,17
768,-1894,-1,95,-4635,23,-44,-19,17
769,-1895,-1,96,-4636,23,-44,-20,17
770,-1895,-2,96,-4640,23,-44,-20,17
771,-1893,-2,92,-4637,23,-44,-19,17
772,-1893,-4,93,-4636,23,-44,-19,17
773,-1892,-4,94,-4635,23,-44,-19,17
774,-1893,-1,92,-4633,23,-43,-20,17
775,-1893,-2,90,-4637,23,-44,-20,17
776,-1893,-1,88,-4637,23,-44,-20,18
777,-1894,-1,92,-4640,23,-44,-20,17
778,-1895,-2,95,-4640,23,-44,-20,17
779,-1894,-4,93,-4639,23,-44,-20,17
780,-1893,-4,92,-4636,23,-44,-19,17
781,-1894,-2,92,-4636,23,-44,-19,17
782,-1896,-2,94,-4636,23,-43,-19,17
783,-1896,-2,93,-4633,23,-43,-20,17
784,-1898,-2,93,-4633,23,-44,-20,17
785,-1896,-4,91,-4635,23,-44,-20,17
786,-1895,-2,92,-4635,23,-44,-19,16
787,-1894,-3,91,-4633,23,-44,-19,17
788,-1894,-2,92,-4634,23,-44,-20,17
789,-1894,-3,94,-4635,23,-44,-20,17
790,-1892,-4,93,-4638,23,-44,-19,18
791,-1891,-3,95,-4636,23,-44,-19,17
792,-1893,-3,96,-4635,23,-45,-19,17
793,-1895,-3,96,-4636,23,-44,-19,17
794,-1894,-3,95,-4638,23,-44,-19,17
795,-1895,-2,94,-4636,23,-44,-19,17
796,-1898,0,99,-4635,23,-44,-19,17
797,-1897,0,100,-4635,23,-44,-19,17
798,-1896,-2,98,-4637,23,-44,-19,17
799,-1894,-2,95,-4636,23,-44,-20,17
800,-1894,-2,92,-4638,23,-44,-20,17
801,-1896,1,93,-4637,23,-44,-20,17
802,-1893,2,91,-4634,23,-44,-19,17
803,-1891,2,92,-4630,23,-44,-19,17
804,-1895,-1,94,-4631,23,-44,-20,17
805,-1894,-2,93,-4634,23,-44,-19,17
806,-1894,-2,95,-4634,23,-45,-20,17
807,-1892,0,96,-4634,23,-44,-20,17
808,-1893,-2,99,-4635,23,-44,-20,17
809,-1895,-2,98,-4638,23,-44,-21,17
810,-1896,-3,101,-4636,23,-44,-20,17
811,-1896,-1,100,-4638,23,-44,-20,17
812,-1894,-2,98,-4639,23,-44,-20,17
813,-1894,0,95,-4637,23,-44,-20,17
814,-1894,1,93,-4633,23,-43,-20,17
815,-1893,-1,93,-4635,23,-43,-19,17
816,-1896,-2,97,-4636,23,-44,-19,17
817,-1897,-3,94,-4637,23,-44,-19,17
818,-1896,-3,93,-4636,23,-44,-19,17
819,-1895,-2,95,-4636,23,-44,-19,17
820,-1894,-2,93,-4635,23,-44,-19,17
821,-1894,-1,93,-4635,23,-44,-19,17
822,-1896,-2,94,-4634,23,-44,-19,17
823,-1893,-2,94,-4636,23,-44,-19,17
824,-1896,-2,90,-4635,23,-44,-19,17
825,-1898,-2,90,-4635,23,-44,-19,17
826,-1895,-2,89,-4636,23,-44,-19,17
827,-1895,-4,91,-4634,23,-44,-20,17
828,-1893,-4,93,-4634,23,-44,-20,17
829,-1892,-4,91,-4632,23,-44,-19,17
830,-1894,-4,91,-4633,23,-44,-20,17
831,-1894,-2,93,-4631,23,-44,-20,17
832,-1895,1,94,-4633,23,-44,-20,17
833,-1892,1,92,-4635,23,-44,-20,17
834,-1892,0,93,-4635,23,-44,-20,16
835,-1893,-2,91,-4634,23,-44,-19,17
836,-1895,-2,93,-4631,23,-44,-19,17
837,-1895,-2,95,-4630,23,-44,-19,17
838,-1894,-3,92,-4632,23,-44,-19,17
839,-1893,0,92,-4634,23,-44,-20,18
840,-1894,-2,94,-4632,23,-43,-20,17
841,-1893,-2,97,-4635,23,-43,-20,17
842,-1894,-2,99,-4635,23,-44,-20,17
843,-1893,-4,94,-4633,23,-44,-20,17
844,-1894,-5,93,-4634,23,-44,-19,17
845,-1896,-2,94,-4633,23,-45,-20,17
846,-1894,-2,92,-4636,23,-45,-20,17
847,-1894,-1,91,-4639,23,-44,-20,17
848,-1892,-1,91,-4638,23,-44,-19,17
849,-1894,-2,91,-4636,23,-44,-20,17
850,-1895,1,93,-4635,23,-44,-20,17
851,-1896,0,93,-4635,23,-44,-20,17
852,-1895,-1,92,-4636,23,-43,-20,17
853,-1895,-1,91,-4634,23,-44,-20,17
854,-1894,0,92,-4632,23,-44,-20,17
855,-1895,2,93,-4637,23,-44,-20,17
856,-1896,-1,93,-4637,23,-45,-20,17
857,-1895,1,92,-4633,23,-45,-20,17
858,-1894,0,92,-4634,23,-44,-20,16
859,-1892,-2,93,-4635,23,-44,-20,17
860,-1891,-3,94,-4637,23,-44,-19,17
861,-1892,-2,91,-4636,23,-44,-19,17
862,-1893,-3,92,-4637,23,-44,-19,18
863,-1891,-2,91,-4636,23,-44,-19,17
864,-1894,-1,92,-4635,23,-44,-19,17
865,-1896,-2,94,-4634,23,-44,-20,17
866,-1898,-3,93,-4636,23,-44,-20,17
867,-1895,-4,95,-4639,23,-44,-20,17
868,-1898,-4,93,-4636,23,-44,-19,18
869,-1895,0,93,-4637,23,-44,-19,17
870,-1894,-2,93,-4636,23,-45,-20,17
871,-1892,-1,94,-4635,23,-44,-20,17
872,-1894,-1,93,-4633,23,-44,-20,17
873,-1894,-2,91,-4632,23,-43,-20,17
874,-1895,-3,96,-4630,23,-43,-20,17
875,-1895,-3,93,-4633,23,-44,-20,17
876,-1896,-3,95,-4635,23,-44,-20,17
877,-1896,0,96,-4633,23,-44,-20,17
878,-1894,-1,95,-4634,23,-44,-20,17
879,-1895,-2,96,-4633,23,-44,-20,17
880,-1896,-2,93,-4629,23,-44,-20,17
881,-1895,-4,94,-4632,23,-44,-19,17
882,-1896,-2,96,-4634,23,-44,-19,16
883,-1897,-1,93,-4634,23,-44,-19,17
884,-1897,0,88,-4635,23,-44,-19,17
885,-1897,1,87,-4634,23,-44,-19,17
886,-1896,1,91,-4633,23,-44,-19,16
887,-1895,0,95,-4633,23,-44,-19,16
888,-1894,1,92,-4630,23,-44,-19,17
889,-1893,-1,94,-4632,23,-44,-19,17
890,-1895,0,94,-4634,23,-44,-20,17
891,-1895,-2,92,-4636,23,-43,-20,17
892,-1894,-1,94,-4635,23,-43,-20,18
893,-1893,-2,92,-4637,23,-44,-19,17
894,-1893,-3,92,-4632,23,-44,-19,17
895,-1893,-3,94,-4632,23,-44,-20,17
896,-1893,-4,91,-4631,23,-44,-19,17
897,-1895,-4,93,-4631,23,-44,-20,18
898,-1894,-1,96,-4632,23,-44,-20,17
899,-1896,0,92,-4635,23,-44,-19,17
900,-1897,1,91,-4635,23,-44,-20,17
901,-1894,0,94,-4635,23,-44,-19,17
902,-1893,-1,92,-4635,23,-45,-19,17
903,-1892,-1,92,-4635,23,-45,-19,17
904,-1894,-4,90,-4636,23,-44,-19,17
905,-1895,-3,94,-4634,23,-44,-20,17
906,-1894,0,96,-4632,23,-43,-20,17
907,-1896,-2,97,-4632,23,-44,-20,17
908,-1896,-3,97,-4631,23,-44,-20,16
909,-1899,0,96,-4634,23,-44,-19,16
910,-1900,0,97,-4634,23,-44,-19,17
911,-1899,-2,99,-4633,23,-43,-19,17
912,-1897,-2,96,-4631,23,-43,-19,17
913,-1896,-1,96,-4632,23,-44,-19,16
914,-1897,-5,92,-4629,23,-44,-19,16
915,-1894,-5,95,-4632,23,-44,-19,17
916,-1894,-4,95,-4633,23,-44,-19,17
917,-1896,-3,93,-4634,23,-44,-19,17
918,-1896,-2,94,-4632,23,-44,-19,17
919,-1894,-2,93,-4632,23,-44,-19,17
920,-1895,0,93,-4631,23,-44,-20,17
921,-1894,-1,92,-4631,23,-45,-20,17
922,-1894,0,94,-4630,23,-45,-19,17
923,-1892,0,92,-4631,23,-44,-19,17
924,-1894,0,92,-4633,23,-44,-20,17
925,-1895,-1,95,-4633,23,-44,-19,17
926,-1895,-2,93,-4635,23,-44,-20,17
927,-1895,-2,93,-4631,23,-43,-20,17
928,-1897,-5,94,-4630,23,-43,-20,17
929,-1894,-6,92,-4633,23,-44,-20,17
930,-1896,-4,94,-4629,23,-44,-19,17
931,-1895,-4,96,-4629,23,-44,-19,17
932,-1896,-3,96,-4633,23,-43,-19,17
933,-1895,-2,92,-4635,23,-44,-19,17
934,-1897,-1,94,-4635,23,-44,-20,17
935,-1896,0,91,-4635,23,-44,-19,17
936,-1897,-2,94,-4635,23,-44,-19,17
937,-1898,-4,93,-4632,23,-44,-20,17
938,-1897,-2,91,-4630,23,-44,-20,17
939,-1896,-1,94,-4630,23,-44,-20,17
940,-1896,-2,92,-4633,23,-44,-19,17
941,-1898,-1,92,-4635,23,-44,-20,17
942,-1899,-3,91,-4632,23,-44,-20,17
943,-1896,-2,91,-4634,23,-44,-20,16
944,-1896,-2,91,-4635,23,-45,-20,16
945,-1896,-2,92,-4635,23,-44,-20,17
946,-1898,-1,92,-4634,23,-44,-20,17
947,-1898,-2,93,-4634,23,-44,-20,17
948,-1897,-4,95,-4633,23,-44,-19,17
949,-1898,-2,93,-4630,23,-45,-19,17
950,-1896,-1,94,-4631,23,-44,-19,18
951,-1897,-2,92,-4632,23,-44,-19,17
952,-1898,-4,92,-4627,23,-44,-20,17
953,-1895,-2,96,-4629,23,-44,-20,17
954,-1895,-2,96,-4631,23,-44,-20,17
955,-1896,0,95,-4632,23,-44,-20,17
956,-1897,0,96,-4634,23,-44,-20,17
957,-1896,-2,96,-4632,23,-44,-20,17
958,-1895,-4,96,-4629,23,-44,-20,16
959,-1893,-4,97,-4629,23,-44,-20,17
960,-1893,-5,96,-4631,23,-44,-20,17
961,-1896,-5,94,-4632,23,-44,-20,17
962,-1895,-3,95,-4631,23,-44,-20,17
963,-1892,-2,96,-4633,23,-43,-20,17
964,-1893,-4,94,-4634,23,-43,-20,17
965,-1893,-6,93,-4631,23,-43,-19,18
966,-1894,-6,93,-4634,23,-43,-19,17
967,-1895,-3,93,-4635,23,-43,-19,17
968,-1895,-3,93,-4635,23,-43,-19,17
969,-1895,-2,94,-4632,23,-43,-19,17
970,-1896,-3,94,-4633,23,-43,-19,17
971,-1897,-2,92,-4628,23,-43,-19,18
972,-1898,-4,91,-4628,23,-44,-20,17
973,-1898,-3,96,-4628,23,-43,-20,17
974,-1893,0,97,-4628,23,-44,-20,17
975,-1893,-1,96,-4631,23,-43,-20,17
976,-1895,-2,93,-4633,23,-44,-20,17
977,-1896,-3,93,-4633,23,-44,-20,17
978,-1896,-2,92,-4629,23,-44,-20,17
979,-1898,-4,93,-4631,23,-44,-20,17
980,-1898,-4,92,-4627,23,-44,-20,17
981,-1896,-4,93,-4626,23,-44,-20,17
982,-1893,-3,93,-4626,23,-44,-20,17
983,-1895,-4,94,-4626,23,-44,-20,17
984,-1895,-2,94,-4629,23,-44,-20,17
985,-1894,-2,93,-4625,23,-44,-19,17
986,-1892,2,95,-4625,23,-44,-19,17
987,-1893,-1,95,-4627,23,-43,-19,17
988,-1892,-4,91,-4626,23,-43,-20,17
989,-1894,-5,91,-4630,23,-43,-20,18
990,-1896,-2,92,-4629,23,-43,-19,18
991,-1896,-3,94,-4629,23,-44,-20,17
992,-1894,-4,94,-4629,23,-44,-19,17
993,-1895,-4,94,-4629,23,-44,-19,17
994,-1895,-2,96,-4627,23,-44,-20,17
995,-1896,-2,97,-4631,23,-44,-20,17
996,-1894,-2,97,-4630,23,-44,-20,17
997,-1895,-3,97,-4630,23,-44,-19,17
998,-1893,-3,92,-4631,23,-44,-19,17
