,acc_X,acc_Y,acc_Z,temp,tempC,gyr_X,gyr_Y,gyr_Z
0,-7581,-5,379,-4690,23,-44,-20,17
1,-7597,-13,366,-4690,23,-45,-20,18
2,-7573,-6,380,-4690,23,-45,-20,17
3,-7583,-4,370,-4694,23,-44,-19,17
4,-7591,3,385,-4690,23,-44,-19,18
5,-7581,0,389,-4694,23,-44,-18,18
6,-7574,-6,398,-4691,23,-44,-20,17
7,-7582,-16,386,-4694,23,-43,-20,17
8,-7589,-1,387,-4693,23,-43,-19,17
9,-7580,-5,394,-4694,23,-43,-19,18
10,-7568,-13,374,-4691,23,-44,-19,18
11,-7576,-16,385,-4690,23,-44,-18,17
12,-7581,-12,390,-4689,23,-44,-18,17
13,-7566,-6,359,-4689,23,-44,-20,17
14,-7569,-10,364,-4692,23,-44,-20,16
15,-7575,-15,378,-4693,23,-44,-20,16
16,-7588,-1,377,-4692,23,-43,-20,17
17,-7585,-1,386,-4688,23,-44,-20,17
18,-7591,-16,373,-4689,23,-44,-21,17
19,-7580,-15,350,-4692,23,-45,-19,17
20,-7562,4,367,-4693,23,-44,-19,17
21,-7564,-13,375,-4693,23,-44,-19,17
22,-7569,-32,400,-4694,23,-44,-19,17
23,-7567,-4,381,-4688,23,-44,-18,17
24,-7576,-2,371,-4694,23,-43,-19,17
25,-7585,4,383,-4689,23,-44,-19,17
26,-7576,-14,372,-4691,23,-44,-19,16
27,-7556,-6,397,-4689,23,-43,-19,16
28,-7569,-1,365,-4695,23,-44,-19,17
29,-7554,-16,379,-4689,23,-43,-21,17
30,-7562,-12,363,-4692,23,-43,-20,17
31,-7575,-12,377,-4691,23,-44,-19,17
32,-7573,-11,376,-4687,23,-45,-20,17
33,-7579,-12,377,-4686,23,-45,-20,17
34,-7576,-20,357,-4685,23,-44,-19,17
35,-7583,-5,364,-4694,23,-44,-20,17
36,-7579,-13,368,-4692,23,-44,-20,17
37,-7567,2,371,-4690,23,-44,-19,17
38,-7575,-6,365,-4690,23,-44,-19,17
39,-7569,-30,371,-4687,23,-43,-19,18
40,-7575,-10,365,-4684,23,-43,-18,17
41,-7581,2,375,-4684,23,-43,-19,17
42,-7583,-7,370,-4692,23,-44,-18,17
43,-7568,-2,379,-4696,23,-44,-19,17
44,-7563,4,373,-4691,23,-44,-19,16
45,-7579,-7,367,-4691,23,-44,-19,16
46,-7579,-1,367,-4688,23,-44,-19,17
47,-7584,-9,381,-4690,23,-44,-19,16
48,-7590,-1,367,-4688,23,-44,-20,17
49,-7585,-11,354,-4688,23,-44,-20,16
50,-7584,-17,375,-4688,23,-44,-19,17
51,-7575,-1,358,-4682,23,-44,-20,17
52,-7582,-9,381,-4685,23,-43,-19,17
53,-7579,-7,359,-4690,23,-44,-19,18
54,-7580,1,377,-4692,23,-44,-19,18
55,-7586,14,375,-4688,23,-44,-19,17
56,-7571,6,365,-4687,23,-44,-19,17
57,-7591,1,361,-4685,23,-44,-20,16
58,-7570,-7,357,-4682,23,-43,-20,18
59,-7556,-23,370,-4687,23,-44,-19,17
60,-7574,-11,375,-4688,23,-44,-20,17
61,-7579,-21,382,-4690,23,-43,-19,17
62,-7578,-9,389,-4687,23,-44,-19,16
63,-7580,-17,373,-4691,23,-44,-19,17
64,-7581,-16,380,-4689,23,-44,-19,17
65,-7578,-10,367,-4691,23,-44,-19,17
66,-7574,-17,387,-4686,23,-44,-19,16
67,-7572,-5,372,-4684,23,-43,-20,17
68,-7572,-7,372,-4690,23,-43,-20,17
69,-7583,-16,387,-4691,23,-44,-20,17
70,-7572,-13,375,-4691,23,-42,-21,17
71,-7579,7,382,-4690,23,-43,-19,17
72,-7583,-9,365,-4691,23,-44,-20,17
73,-7579,-23,376,-4692,23,-44,-20,17
74,-7600,-13,382,-4688,23,-43,-19,17
75,-7590,-1,384,-4684,23,-44,-19,17
76,-7580,-18,377,-4689,23,-44,-20,17
77,-7589,-9,375,-4688,23,-45,-19,17
78,-7584,-13,374,-4689,23,-44,-19,17
79,-7572,-16,386,-4689,23,-43,-20,17
80,-7567,-8,380,-4690,23,-44,-20,17
81,-7558,-5,366,-4688,23,-43,-19,17
82,-7584,-6,365,-4687,23,-44,-20,17
83,-7592,-11,374,-4691,23,-44,-20,17
84,-7588,-21,380,-4689,23,-44,-19,17
85,-7592,-5,371,-4694,23,-45,-19,18
86,-7604,-14,379,-4691,23,-44,-19,17
87,-7580,-3,384,-4693,23,-43,-20,16
88,-7589,-13,398,-4692,23,-44,-20,17
89,-7580,-13,394,-4690,23,-43,-18,17
90,-7601,-25,362,-4690,23,-44,-19,17
91,-7581,-6,378,-4690,23,-43,-20,16
92,-7575,-6,366,-4690,23,-44,-19,17
93,-7568,-12,388,-4686,23,-44,-19,17
94,-7577,9,388,-4687,23,-44,-20,17
95,-7585,-7,373,-4689,23,-43,-20,17
96,-7577,-10,344,-4691,23,-43,-20,17
97,-7576,-18,366,-4690,23,-44,-19,18
98,-7579,-11,376,-4689,23,-44,-19,18
99,-7590,-4,359,-4688,23,-44,-20,18
100,-7584,-8,385,-4682,23,-44,-20,18
101,-7575,-13,402,-4688,23,-44,-20,18
102,-7577,-29,403,-4686,23,-44,-19,17
103,-7568,-12,400,-4683,23,-44,-20,17
104,-7572,-8,388,-4694,23,-44,-19,18
105,-7583,-9,372,-4682,23,-43,-19,18
106,-7596,-4,381,-4686,23,-43,-20,18
107,-7575,-14,386,-4687,23,-44,-19,17
108,-7576,-5,359,-4684,23,-44,-19,16
109,-7570,-9,374,-4680,23,-45,-20,17
110,-7558,-6,390,-4688,23,-44,-20,17
111,-7586,2,382,-4689,23,-44,-19,17
112,-7586,5,375,-4688,23,-44,-19,18
113,-7595,1,383,-4689,23,-44,-20,17
114,-7588,10,376,-4694,23,-44,-20,17
115,-7583,-5,365,-4691,23,-44,-19,17
116,-7592,-12,373,-4687,23,-43,-20,17
117,-7572,-6,365,-4690,23,-44,-20,17
118,-7572,-12,383,-4689,23,-44,-20,17
119,-7576,-4,359,-4687,23,-45,-20,17
120,-7567,-19,389,-4683,23,-44,-20,18
121,-7579,-21,379,-4685,23,-44,-20,17
122,-7578,-8,373,-4686,23,-44,-20,17
123,-7577,-9,358,-4689,23,-44,-20,17
124,-7587,-5,354,-4682,23,-43,-20,17
125,-7581,3,355,-4684,23,-44,-21,16
126,-7569,-9,362,-4686,23,-43,-20,17
127,-7578,0,371,-4687,23,-43,-19,17
128,-7583,4,373,-4688,23,-44,-19,17
129,-7579,-3,360,-4688,23,-44,-19,16
130,-7572,-7,363,-4687,23,-44,-20,16
131,-7582,-10,333,-4691,23,-43,-20,17
132,-7571,1,357,-4684,23,-44,-20,17
133,-7578,-13,371,-4686,23,-43,-20,17
134,-7567,-5,385,-4687,23,-44,-19,17
135,-7560,-16,379,-4683,23,-45,-19,17
136,-7574,8,376,-4689,23,-44,-19,17
137,-7570,-12,386,-4687,23,-44,-20,16
138,-7572,-19,376,-4682,23,-44,-19,16
139,-7562,0,365,-4686,23,-44,-20,16
140,-7574,-1,368,-4684,23,-43,-20,17
141,-7570,-14,371,-4687,23,-43,-21,18
142,-7578,1,362,-4690,23,-44,-20,17
143,-7570,-10,374,-4689,23,-44,-20,17
144,-7581,5,382,-4689,23,-44,-18,17
145,-7588,10,366,-4691,23,-43,-20,18
146,-7575,3,352,-4688,23,-43,-20,18
147,-7591,3,341,-4688,23,-44,-20,18
148,-7579,12,385,-4685,23,-44,-20,18
149,-7565,2,402,-4686,23,-44,-20,17
150,-7576,2,374,-4687,23,-43,-20,17
151,-7583,7,363,-4691,23,-44,-20,18
152,-7576,-6,364,-4693,23,-44,-20,17
153,-7581,5,370,-4693,23,-44,-20,16
154,-7588,11,376,-4689,23,-44,-19,17
155,-7582,18,368,-4688,23,-44,-20,17
156,-7590,15,393,-4688,23,-43,-20,17
157,-7583,2,387,-4690,23,-44,-21,17
158,-7570,-17,395,-4689,23,-44,-20,16
159,-7570,-13,370,-4688,23,-44,-20,17
160,-7577,-13,377,-4694,23,-44,-21,17
161,-7570,-3,375,-4687,23,-44,-21,16
162,-7578,-7,378,-4687,23,-43,-20,17
163,-7568,-13,369,-4692,23,-43,-20,17
164,-7571,-1,359,-4692,23,-44,-20,17
165,-7562,-6,383,-4693,23,-43,-19,17
166,-7565,4,396,-4690,23,-44,-19,18
167,-7564,-5,364,-4693,23,-44,-20,17
168,-7561,-24,382,-4692,23,-44,-20,17
169,-7580,-17,392,-4688,23,-44,-20,17
170,-7584,-4,392,-4689,23,-45,-21,17
171,-7588,-9,371,-4690,23,-44,-19,17
172,-7575,1,383,-4686,23,-44,-20,17
173,-7587,1,391,-4685,23,-44,-20,17
174,-7579,-16,397,-4685,23,-44,-19,17
175,-7577,-10,393,-4690,23,-44,-19,17
176,-7573,-9,367,-4682,23,-44,-19,17
177,-7574,3,372,-4686,23,-44,-20,17
178,-7591,-4,380,-4690,23,-44,-20,18
179,-7584,0,374,-4690,23,-44,-19,18
180,-7575,18,383,-4688,23,-45,-19,17
181,-7597,3,389,-4686,23,-44,-19,18
182,-7592,6,364,-4687,23,-45,-20,17
183,-7595,6,373,-4680,23,-45,-20,17
184,-7569,13,393,-4684,23,-44,-19,17
185,-7587,0,402,-4692,23,-44,-20,17
186,-7577,0,391,-4689,23,-44,-20,17
187,-7574,-17,389,-4687,23,-44,-20,16
188,-7588,-4,403,-4684,23,-44,-19,17
189,-7585,-1,396,-4687,23,-43,-20,17
190,-7582,-17,387,-4681,23,-43,-19,17
191,-7586,-8,385,-4686,23,-43,-19,16
192,-7577,-11,381,-4694,23,-45,-19,17
193,-7564,-16,365,-4689,23,-44,-19,17
194,-7567,-12,364,-4686,23,-44,-19,17
195,-7573,-9,376,-4692,23,-43,-20,18
196,-7583,-7,382,-4688,23,-43,-20,17
197,-7579,-7,402,-4686,23,-43,-19,18
198,-7577,0,365,-4681,23,-44,-20,18
199,-7572,5,368,-4690,23,-44,-19,17
200,-7573,-4,355,-4685,23,-44,-19,17
201,-7565,-19,369,-4688,23,-44,-21,18
202,-7589,-20,354,-4686,23,-44,-20,17
203,-7566,-10,375,-4686,23,-44,-19,18
204,-7567,-16,371,-4682,23,-45,-20,17
205,-7577,-20,375,-4682,23,-44,-20,17
206,-7575,-30,378,-4686,23,-44,-20,17
207,-7581,-28,359,-4685,23,-45,-19,17
208,-7580,-21,393,-4684,23,-44,-18,17
209,-7570,-17,403,-4683,23,-44,-19,17
210,-7588,-2,366,-4686,23,-44,-19,18
211,-7570,1,381,-4684,23,-44,-19,17
212,-7597,4,382,-4686,23,-43,-21,17
213,-7585,-1,408,-4690,23,-44,-21,17
214,-7588,-1,381,-4687,23,-44,-20,17
215,-7584,-12,386,-4692,23,-44,-19,16
216,-7593,-8,360,-4689,23,-44,-19,17
217,-7570,-7,378,-4684,23,-44,-19,17
218,-7577,-11,385,-4685,23,-44,-19,17
219,-7587,-12,377,-4686,23,-44,-19,17
220,-7579,2,384,-4687,23,-44,-20,16
221,-7576,3,373,-4686,23,-44,-19,16
222,-7572,0,388,-4685,23,-44,-20,17
223,-7580,-7,388,-4690,23,-45,-20,17
224,-7568,-15,389,-4684,23,-44,-20,17
225,-7578,-4,379,-4683,23,-44,-20,17
226,-7583,-8,361,-4685,23,-44,-19,18
227,-7576,-8,395,-4684,23,-44,-19,18
228,-7577,-2,387,-4689,23,-44,-19,17
229,-7575,-3,369,-4683,23,-44,-19,16
230,-7579,-4,381,-4686,23,-44,-20,16
231,-7574,-14,381,-4684,23,-44,-19,16
232,-7581,-15,403,-4688,23,-44,-20,18
233,-7573,-18,384,-4690,23,-44,-20,17
234,-7564,-15,378,-4686,23,-44,-20,18
235,-7573,-4,379,-4680,23,-44,-20,17
236,-7576,2,383,-4684,23,-44,-19,17
237,-7581,-3,368,-4685,23,-44,-19,16
238,-7572,-11,371,-4684,23,-45,-19,16
239,-7563,-9,367,-4683,23,-45,-19,17
240,-7580,-7,389,-4685,23,-45,-20,17
241,-7578,-16,342,-4687,23,-44,-20,17
242,-7581,-19,386,-4687,23,-45,-20,17
243,-7579,-19,381,-4694,23,-44,-20,17
244,-7558,-15,372,-4689,23,-45,-19,17
245,-7583,-11,401,-4694,23,-45,-20,17
246,-7573,-1,391,-4689,23,-44,-20,17
247,-7588,4,364,-4692,23,-44,-20,17
248,-7572,3,351,-4687,23,-44,-19,18
249,-7582,-19,379,-4683,23,-44,-19,18
250,-7588,-12,373,-4681,23,-44,-19,17
251,-7580,-12,366,-4686,23,-44,-20,16
252,-7590,9,355,-4691,23,-44,-20,17
253,-7578,5,365,-4688,23,-43,-19,17
254,-7590,-14,375,-4691,23,-44,-19,18
255,-7586,-23,374,-4688,23,-45,-18,18
256,-7578,-12,363,-4684,23,-44,-19,17
257,-7570,-10,368,-4683,23,-44,-20,17
258,-7567,-10,369,-4686,23,-44,-20,17
259,-7576,-17,383,-4690,23,-44,-20,17
260,-7572,-14,383,-4685,23,-43,-20,17
261,-7582,-26,377,-4683,23,-44,-20,17
262,-7592,-13,366,-4686,23,-44,-20,17
263,-7569,-8,371,-4684,23,-44,-20,17
264,-7575,-11,363,-4686,23,-44,-19,17
265,-7585,-9,377,-4684,23,-44,-19,16
266,-7592,1,370,-4687,23,-43,-19,17
267,-7583,6,367,-4692,23,-44,-19,17
268,-7577,-3,375,-4686,23,-44,-19,17
269,-7569,1,379,-4687,23,-44,-19,17
270,-7574,-1,377,-4684,23,-44,-19,16
271,-7578,0,397,-4689,23,-44,-20,17
272,-7593,-10,393,-4687,23,-43,-19,17
273,-7585,-36,375,-4687,23,-43,-19,17
274,-7585,-16,359,-4689,23,-44,-19,17
275,-7570,2,375,-4687,23,-44,-19,17
276,-7567,-14,391,-4684,23,-44,-19,16
277,-7565,-24,375,-4686,23,-44,-18,17
278,-7572,-10,376,-4690,23,-44,-20,18
279,-7580,-18,361,-4681,23,-44,-19,17
280,-7601,-22,362,-4684,23,-44,-18,17
281,-7595,-18,388,-4685,23,-44,-19,17
282,-7578,2,379,-4684,23,-44,-20,17
283,-7579,-16,375,-4685,23,-44,-20,16
284,-7579,3,383,-4689,23,-44,-19,17
285,-7568,3,377,-4689,23,-44,-19,17
286,-7552,-5,402,-4686,23,-45,-19,18
287,-7570,-2,367,-4686,23,-44,-20,17
288,-7575,-8,346,-4682,23,-44,-19,17
289,-7587,-11,382,-4682,23,-44,-19,16
290,-7579,-3,365,-4684,23,-44,-19,17
291,-7594,-4,378,-4684,23,-44,-20,16
292,-7574,-18,384,-4685,23,-44,-20,17
293,-7577,-10,385,-4686,23,-44,-20,17
294,-7573,-3,379,-4689,23,-44,-21,18
295,-7571,-14,378,-4691,23,-44,-20,17
296,-7582,-8,372,-4685,23,-44,-20,17
297,-7591,-11,399,-4689,23,-44,-20,17
298,-7574,-4,375,-4682,23,-44,-20,17
299,-7570,1,386,-4683,23,-44,-20,17
300,-7582,-14,373,-4680,23,-44,-20,17
301,-7568,-4,391,-4686,23,-45,-19,18
302,-7577,-3,388,-4683,23,-44,-19,17
303,-7597,-2,376,-4682,23,-44,-20,16
304,-7580,-9,360,-4683,23,-43,-20,17
305,-7585,0,374,-4686,23,-43,-20,16
306,-7568,6,368,-4687,23,-43,-20,16
307,-7576,-1,372,-4689,23,-43,-19,16
308,-7573,-14,377,-4687,23,-44,-19,17
309,-7578,-7,382,-4683,23,-44,-19,18
310,-7580,-1,365,-4684,23,-44,-19,17
311,-7564,-12,378,-4682,23,-44,-19,17
312,-7567,-19,371,-4686,23,-43,-19,17
313,-7578,-19,370,-4686,23,-44,-20,17
314,-7583,-17,377,-4686,23,-44,-20,17
315,-7589,-18,354,-4688,23,-45,-20,17
316,-7587,-10,368,-4689,23,-44,-20,17
317,-7570,-5,363,-4684,23,-44,-20,18
318,-7579,1,394,-4682,23,-44,-19,17
319,-7585,4,383,-4689,23,-44,-19,17
320,-7576,-13,387,-4679,23,-43,-20,17
321,-7574,-4,389,-4686,23,-44,-19,16
322,-7591,-18,348,-4689,23,-44,-19,17
323,-7591,0,365,-4689,23,-44,-19,17
324,-7588,7,354,-4687,23,-45,-20,16
325,-7591,6,373,-4685,23,-44,-20,17
326,-7591,-2,362,-4686,23,-44,-20,17
327,-7592,-18,353,-4688,23,-44,-20,17
328,-7566,-22,362,-4682,23,-44,-20,16
329,-7586,-10,366,-4678,23,-44,-20,17
330,-7588,-3,366,-4681,23,-44,-20,17
331,-7581,-11,378,-4683,23,-44,-20,16
332,-7577,2,391,-4686,23,-44,-20,17
333,-7579,-4,378,-4684,23,-44,-20,17
334,-7578,2,390,-4688,23,-44,-19,17
335,-7569,-11,381,-4691,23,-44,-19,17
336,-7592,-4,363,-4683,23,-44,-20,17
337,-7573,-19,374,-4683,23,-45,-21,17
338,-7583,-14,372,-4686,23,-44,-20,17
339,-7588,9,387,-4688,23,-44,-19,17
340,-7580,-12,367,-4687,23,-44,-19,17
341,-7588,-1,373,-4687,23,-44,-20,17
342,-7591,-2,363,-4685,23,-44,-19,17
343,-7583,1,364,-4681,23,-43,-19,17
344,-7585,15,356,-4683,23,-44,-19,17
345,-7579,-7,370,-4684,23,-44,-20,18
346,-7582,-10,386,-4682,23,-44,-20,17
347,-7581,-14,374,-4687,23,-44,-19,17
348,-7578,0,392,-4688,23,-43,-19,17
349,-7576,-2,393,-4685,23,-43,-19,16
350,-7582,-9,365,-4686,23,-44,-19,17
351,-7593,8,364,-4680,23,-44,-20,17
352,-7585,6,374,-4677,23,-45,-20,17
353,-7586,-6,360,-4679,23,-44,-21,17
354,-7589,-9,375,-4685,23,-45,-21,17
355,-7581,3,404,-4684,23,-43,-20,17
356,-7580,0,392,-4685,23,-44,-19,18
357,-7580,3,376,-4685,23,-43,-20,18
358,-7592,1,385,-4683,23,-44,-20,17
359,-7597,7,369,-4682,23,-44,-20,18
360,-7587,1,376,-4681,23,-44,-20,18
361,-7572,-11,379,-4681,23,-44,-20,17
362,-7561,-18,377,-4685,23,-44,-19,17
363,-7570,-7,360,-4679,23,-43,-19,17
364,-7561,-13,381,-4675,23,-43,-20,17
365,-7590,3,374,-4683,23,-44,-19,18
366,-7592,7,367,-4684,23,-44,-19,18
367,-7589,4,358,-4686,23,-44,-19,17
368,-7596,-7,358,-4683,23,-43,-20,17
369,-7579,-22,375,-4683,23,-44,-19,17
370,-7585,-29,394,-4682,23,-44,-19,17
371,-7561,-15,383,-4683,23,-45,-19,17
372,-7571,-2,386,-4681,23,-44,-19,18
373,-7580,-7,380,-4681,23,-44,-18,17
374,-7589,-7,370,-4683,23,-45,-19,18
375,-7588,-4,374,-4680,23,-44,-20,17
376,-7577,-3,369,-4677,23,-44,-20,17
377,-7582,-19,365,-4681,23,-44,-19,17
378,-7567,-3,387,-4682,23,-45,-19,17
379,-7570,0,382,-4683,23,-45,-20,16
380,-7567,-11,366,-4685,23,-43,-19,17
381,-7578,-7,366,-4687,23,-44,-19,17
382,-7578,-9,359,-4683,23,-45,-19,17
383,-7574,-7,364,-4680,23,-44,-20,17
384,-7585,-7,384,-4680,23,-44,-20,18
385,-7570,-10,373,-4680,23,-44,-19,17
386,-7572,-5,366,-4679,23,-45,-19,16
387,-7566,-2,368,-4679,23,-44,-19,16
388,-7588,1,371,-4678,23,-43,-19,17
389,-7579,-8,364,-4679,23,-43,-20,17
390,-7571,-19,356,-4677,23,-43,-20,18
391,-7570,-14,353,-4682,23,-43,-19,17
392,-7573,8,376,-4683,23,-44,-20,17
393,-7571,-5,387,-4684,23,-44,-20,16
394,-7575,-4,354,-4688,23,-44,-20,16
395,-7569,3,385,-4684,23,-44,-20,17
396,-7575,8,389,-4683,23,-43,-19,17
397,-7571,6,370,-4683,23,-43,-19,17
398,-7588,5,353,-4677,23,-43,-19,16
399,-7587,6,367,-4683,23,-44,-20,16
400,-7572,-17,371,-4682,23,-44,-21,16
401,-7576,-12,370,-4685,23,-44,-21,17
402,-7572,-13,392,-4684,23,-44,-19,17
403,-7569,7,386,-4683,23,-43,-20,17
404,-7582,-14,395,-4683,23,-43,-20,17
405,-7564,3,377,-4682,23,-43,-20,18
406,-7557,5,382,-4682,23,-43,-20,17
407,-7565,5,366,-4684,23,-44,-20,17
408,-7569,0,359,-4682,23,-44,-19,17
409,-7570,-16,377,-4685,23,-44,-20,17
410,-7580,-8,377,-4680,23,-44,-19,16
411,-7570,5,383,-4677,23,-43,-19,17
412,-7574,12,377,-4684,23,-44,-19,17
413,-7576,-20,375,-4682,23,-44,-20,17
414,-7579,-17,408,-4679,23,-44,-19,16
415,-7578,-7,392,-4679,23,-43,-19,16
416,-7570,-9,368,-4681,23,-44,-20,17
417,-7590,-7,386,-4679,23,-44,-19,17
418,-7565,-8,366,-4676,23,-43,-20,16
419,-7570,-8,364,-4682,23,-44,-19,17
420,-7564,-18,383,-4678,23,-43,-20,18
421,-7578,-4,398,-4674,23,-44,-20,16
422,-7572,2,373,-4682,23,-44,-20,16
423,-7582,-24,384,-4686,23,-43,-19,17
424,-7584,-12,374,-4678,23,-43,-20,16
425,-7580,-6,377,-4680,23,-44,-20,17
426,-7581,14,369,-4677,23,-43,-19,17
427,-7581,5,370,-4679,23,-43,-19,17
428,-7581,-7,368,-4682,23,-44,-19,17
429,-7579,-19,383,-4679,23,-43,-19,17
430,-7584,-9,389,-4676,23,-44,-19,17
431,-7577,-6,396,-4680,23,-43,-19,17
432,-7574,-13,387,-4687,23,-45,-19,17
433,-7562,-8,381,-4683,23,-44,-19,17
434,-7588,-5,406,-4681,23,-44,-19,18
435,-7594,-2,393,-4679,23,-45,-20,17
436,-7584,-2,382,-4675,23,-44,-20,17
437,-7574,-9,370,-4680,23,-44,-20,17
438,-7572,-2,368,-4685,23,-44,-20,17
439,-7583,-18,381,-4683,23,-44,-19,17
440,-7579,-14,365,-4683,23,-43,-20,17
441,-7575,-6,371,-4683,23,-43,-20,17
442,-7574,-6,365,-4678,23,-43,-20,17
443,-7580,-9,352,-4683,23,-44,-20,18
444,-7574,-8,359,-4685,23,-44,-20,18
445,-7566,-11,368,-4677,23,-43,-19,17
446,-7570,2,369,-4682,23,-44,-20,18
447,-7589,6,387,-4680,23,-44,-19,18
448,-7577,-15,382,-4676,23,-44,-19,17
449,-7585,-11,394,-4684,23,-45,-20,18
450,-7574,-1,382,-4684,23,-44,-19,17
451,-7574,5,393,-4684,23,-44,-19,17
452,-7573,-4,396,-4683,23,-43,-20,17
453,-7581,-20,373,-4681,23,-43,-19,17
454,-7581,-15,388,-4685,23,-44,-18,16
455,-7567,-4,400,-4684,23,-44,-19,17
456,-7576,-4,367,-4683,23,-44,-19,17
457,-7582,-2,379,-4682,23,-44,-19,17
458,-7591,0,381,-4681,23,-44,-19,17
459,-7585,16,388,-4684,23,-44,-20,17
460,-7576,13,385,-4683,23,-44,-19,16
461,-7564,-6,377,-4686,23,-44,-20,17
462,-7564,2,388,-4690,23,-44,-21,17
463,-7567,-10,364,-4688,23,-44,-20,17
464,-7584,-23,365,-4685,23,-43,-19,17
465,-7588,-28,386,-4685,23,-43,-19,17
466,-7570,-15,387,-4681,23,-43,-19,17
467,-7568,1,377,-4684,23,-45,-19,17
468,-7572,-8,384,-4681,23,-44,-20,16
469,-7572,-9,358,-4675,23,-44,-20,17
470,-7581,-11,362,-4681,23,-43,-19,17
471,-7583,-11,358,-4686,23,-44,-19,17
472,-7573,-10,376,-4682,23,-45,-19,18
473,-7570,-2,376,-4680,23,-44,-20,17
474,-7570,-13,379,-4678,23,-43,-19,17
475,-7576,-9,372,-4683,23,-44,-20,17
476,-7566,-7,366,-4682,23,-45,-19,17
477,-7574,0,362,-4686,23,-44,-19,17
478,-7568,-8,352,-4684,23,-43,-20,17
479,-7578,-6,373,-4681,23,-44,-19,17
480,-7581,0,364,-4685,23,-44,-19,17
481,-7580,5,372,-4681,23,-44,-19,17
482,-7582,3,365,-4679,23,-43,-20,17
483,-7583,-6,393,-4680,23,-44,-19,17
484,-7581,-6,395,-4678,23,-44,-20,17
485,-7579,-7,372,-4678,23,-45,-20,17
486,-7592,-5,381,-4681,23,-44,-20,18
487,-7565,-13,374,-4677,23,-44,-19,17
488,-7561,-18,374,-4675,23,-44,-19,17
489,-7569,-10,366,-4674,23,-44,-19,17
490,-7579,-12,371,-4679,23,-44,-20,18
491,-7583,-17,354,-4684,23,-44,-20,17
492,-7569,-18,377,-4680,23,-43,-20,17
493,-7571,-13,380,-4682,23,-44,-19,17
494,-7583,-12,359,-4683,23,-45,-19,17
495,-7578,-12,358,-4681,23,-44,-19,17
496,-7586,-12,353,-4687,23,-44,-20,17
497,-7579,1,361,-4685,23,-43,-20,17
498,-7581,-13,361,-4692,23,-44,-19,16
499,-7579,6,358,-4683,23,-44,-20,17
500,-7583,-5,382,-4682,23,-44,-20,18
501,-7580,6,367,-4684,23,-44,-19,17
502,-7578,-2,388,-4682,23,-44,-19,18
503,-7583,-7,395,-4687,23,-44,-20,17
504,-7580,-8,388,-4685,23,-45,-20,17
505,-7585,-5,365,-4680,23,-45,-20,17
506,-7570,1,361,-4677,23,-44,-19,17
507,-7583,-13,404,-4674,23,-45,-19,17
508,-7585,-23,375,-4678,23,-44,-20,17
509,-7586,-10,378,-4680,23,-44,-21,17
510,-7590,-2,370,-4680,23,-44,-19,17
511,-7572,-3,358,-4683,23,-44,-20,16
512,-7577,-5,381,-4680,23,-45,-20,17
513,-7559,-27,366,-4681,23,-44,-20,17
514,-7567,1,376,-4683,23,-44,-19,17
515,-7571,4,369,-4676,23,-44,-20,17
516,-7577,0,387,-4676,23,-43,-20,17
517,-7575,-3,382,-4677,23,-43,-20,17
518,-7582,3,381,-4674,23,-44,-20,17
519,-7585,-13,381,-4679,23,-44,-20,17
520,-7581,-5,385,-4673,23,-44,-19,16
521,-7585,-9,380,-4678,23,-44,-19,17
522,-7579,-8,372,-4678,23,-44,-18,17
523,-7592,-20,387,-4677,23,-45,-20,17
524,-7592,-8,390,-4680,23,-45,-20,16
525,-7589,-16,366,-4684,23,-45,-19,16
526,-7589,-8,370,-4683,23,-45,-19,17
527,-7593,3,372,-4682,23,-44,-20,16
528,-7583,-5,378,-4684,23,-44,-20,17
529,-7574,-6,394,-4682,23,-44,-20,17
530,-7579,-24,395,-4679,23,-44,-19,16
531,-7584,-27,375,-4680,23,-44,-19,18
532,-7583,-18,359,-4677,23,-44,-20,17
533,-7590,-17,355,-4677,23,-44,-20,16
534,-7583,-17,376,-4676,23,-44,-21,17
535,-7581,2,392,-4678,23,-44,-20,17
536,-7572,-4,363,-4679,23,-44,-19,17
537,-7578,-3,389,-4681,23,-44,-20,16
538,-7573,-5,388,-4677,23,-45,-20,17
539,-7592,-3,372,-4674,23,-44,-19,16
540,-7575,-2,361,-4678,23,-44,-20,17
541,-7579,12,357,-4679,23,-43,-19,17
542,-7571,-12,381,-4676,23,-44,-20,17
543,-7571,-4,404,-4682,23,-45,-20,17
544,-7574,-7,396,-4682,23,-44,-19,17
545,-7571,2,377,-4681,23,-45,-20,17
546,-7584,-14,374,-4677,23,-44,-19,17
547,-7586,-6,383,-4679,23,-44,-19,16
548,-7585,-13,364,-4675,23,-44,-19,17
549,-7581,-10,386,-4679,23,-45,-19,16
550,-7585,-1,400,-4681,23,-45,-19,16
551,-7597,3,377,-4681,23,-44,-20,17
552,-7584,-7,394,-4680,23,-44,-20,17
553,-7579,-12,378,-4681,23,-44,-18,17
554,-7566,-9,379,-4678,23,-44,-18,17
555,-7576,-18,390,-4680,23,-43,-20,17
556,-7584,-19,384,-4675,23,-43,-20,17
557,-7576,4,378,-4677,23,-44,-21,17
558,-7575,-2,372,-4675,23,-43,-20,17
559,-7574,3,386,-4679,23,-43,-19,17
560,-7573,-13,383,-4678,23,-43,-19,16
561,-7569,-12,381,-4673,23,-44,-19,17
562,-7561,-2,394,-4674,23,-44,-19,17
563,-7574,-12,393,-4674,23,-43,-19,17
564,-7573,-10,366,-4674,23,-43,-20,17
565,-7574,-1,363,-4674,23,-44,-20,17
566,-7580,-14,378,-4680,23,-43,-20,17
567,-7581,2,402,-4678,23,-44,-20,17
568,-7568,-6,376,-4671,23,-45,-20,17
569,-7575,-10,372,-4675,23,-43,-19,17
570,-7581,-18,367,-4674,23,-44,-19,16
571,-7574,-8,371,-4667,23,-44,-19,16
572,-7584,-5,370,-4678,23,-44,-19,17
573,-7573,-12,359,-4673,23,-44,-20,17
574,-7572,-8,365,-4673,23,-44,-20,18
575,-7575,-13,355,-4678,23,-44,-19,17
576,-7582,-5,373,-4673,23,-44,-19,17
577,-7588,-22,368,-4672,23,-44,-19,17
578,-7584,-10,372,-4672,23,-44,-19,17
579,-7570,-17,363,-4673,23,-44,-20,17
580,-7567,-12,377,-4677,23,-44,-19,17
581,-7574,-6,371,-4673,23,-45,-20,17
582,-7581,6,377,-4676,23,-45,-21,17
583,-7573,-5,380,-4679,23,-44,-20,17
584,-7580,2,380,-4677,23,-44,-19,17
585,-7586,-16,362,-4673,23,-43,-20,16
586,-7580,-12,386,-4671,23,-44,-20,17
587,-7589,2,358,-4670,23,-44,-20,17
588,-7584,-11,366,-4670,23,-44,-19,17
589,-7578,-15,382,-4674,23,-44,-20,17
590,-7576,-16,385,-4673,23,-43,-20,17
591,-7565,-6,380,-4671,23,-43,-19,18
592,-7556,-8,381,-4670,23,-44,-19,18
593,-7561,4,358,-4676,23,-44,-19,17
594,-7574,-1,374,-4675,23,-43,-20,18
595,-7567,13,384,-4672,23,-44,-21,17
596,-7598,2,394,-4674,23,-45,-20,17
597,-7583,-18,402,-4678,23,-45,-19,17
598,-7572,-19,390,-4675,23,-43,-19,17
599,-7583,-11,366,-4675,23,-43,-20,17
600,-7582,-24,394,-4672,23,-43,-20,17
601,-7584,-21,394,-4670,23,-45,-20,17
602,-7593,-19,383,-4675,23,-45,-20,17
603,-7569,-27,367,-4673,23,-44,-19,17
604,-7569,-20,367,-4674,23,-44,-19,17
605,-7587,-15,379,-4671,23,-44,-20,17
606,-7578,-7,363,-4670,23,-43,-20,18
607,-7580,-17,363,-4666,23,-44,-20,17
608,-7569,-13,392,-4667,23,-43,-20,18
609,-7560,-6,380,-4669,23,-43,-19,17
610,-7578,-3,365,-4666,23,-44,-18,17
611,-7576,2,372,-4663,23,-44,-19,18
612,-7566,6,386,-4669,23,-44,-19,17
613,-7565,11,389,-4675,23,-44,-20,17
614,-7578,9,378,-4670,23,-44,-19,17
615,-7593,0,374,-4675,23,-44,-20,18
616,-7587,-8,367,-4674,23,-44,-19,18
617,-7581,-14,358,-4671,23,-44,-20,17
618,-7571,-7,383,-4670,23,-44,-20,17
619,-7577,-17,400,-4676,23,-44,-20,17
620,-7567,-25,378,-4675,23,-43,-20,16
621,-7566,-5,383,-4681,23,-44,-19,17
622,-7579,-6,376,-4679,23,-44,-19,17
623,-7576,-1,374,-4675,23,-44,-20,17
624,-7583,3,380,-4679,23,-44,-20,17
625,-7590,-9,376,-4680,23,-45,-19,16
626,-7595,5,375,-4676,23,-44,-20,17
627,-7582,-11,388,-4675,23,-44,-21,17
628,-7577,2,381,-4676,23,-43,-20,17
629,-7570,-5,371,-4677,23,-44,-20,16
630,-7589,-6,380,-4675,23,-43,-21,17
631,-7591,-6,389,-4669,23,-44,-20,17
632,-7590,0,390,-4675,23,-44,-19,18
633,-7596,-20,385,-4673,23,-44,-20,18
634,-7594,-15,381,-4675,23,-44,-20,18
635,-7584,-21,372,-4673,23,-43,-20,16
636,-7615,-16,387,-4678,23,-43,-20,17
637,-7604,-10,359,-4673,23,-43,-19,17
638,-7587,-22,386,-4673,23,-44,-20,17
639,-7584,-20,368,-4670,23,-44,-20,17
640,-7578,-26,383,-4677,23,-44,-20,16
641,-7581,-10,372,-4673,23,-44,-20,16
642,-7584,0,387,-4677,23,-44,-20,17
643,-7577,-10,389,-4676,23,-45,-20,17
644,-7593,-3,389,-4672,23,-45,-20,17
645,-7574,6,386,-4676,23,-44,-20,17
646,-7571,-10,380,-4676,23,-44,-20,17
647,-7557,-9,360,-4675,23,-45,-20,18
648,-7572,-4,382,-4673,23,-44,-20,17
649,-7565,-1,369,-4673,23,-44,-19,17
650,-7582,4,385,-4669,23,-43,-20,17
651,-7584,6,372,-4679,23,-44,-20,18
652,-7577,-6,379,-4675,23,-43,-20,17
653,-7576,-12,401,-4674,23,-43,-19,18
654,-7572,-4,382,-4676,23,-44,-19,17
655,-7592,-13,390,-4678,23,-43,-19,18
656,-7588,-13,370,-4677,23,-43,-20,17
657,-7581,-7,378,-4678,23,-43,-20,17
658,-7588,-9,382,-4679,23,-43,-19,17
659,-7575,9,376,-4675,23,-43,-20,17
660,-7575,18,368,-4671,23,-43,-19,17
661,-7581,16,386,-4682,23,-43,-19,17
662,-7577,9,384,-4676,23,-43,-20,16
663,-7558,7,381,-4675,23,-43,-19,17
664,-7577,2,370,-4683,23,-45,-19,17
665,-7572,-6,366,-4678,23,-44,-19,16
666,-7571,-7,368,-4673,23,-44,-19,17
667,-7575,-9,360,-4672,23,-45,-19,17
668,-7580,-3,386,-4670,23,-44,-18,17
669,-7583,-3,386,-4668,23,-43,-19,17
670,-7583,9,388,-4675,23,-43,-19,17
671,-7572,1,379,-4679,23,-44,-19,17
672,-7577,-5,360,-4678,23,-44,-19,18
673,-7575,-12,350,-4671,23,-44,-20,17
674,-7580,-15,360,-4671,23,-45,-19,17
675,-7567,-6,383,-4678,23,-44,-19,17
676,-7583,0,383,-4676,23,-44,-19,17
677,-7586,-7,376,-4675,23,-45,-20,16
678,-7572,-7,374,-4674,23,-45,-20,16
679,-7581,-13,366,-4673,23,-45,-20,17
680,-7589,-23,361,-4682,23,-44,-19,17
681,-7575,0,377,-4680,23,-44,-19,18
682,-7568,-2,359,-4687,23,-43,-20,17
683,-7581,-11,371,-4683,23,-44,-19,18
684,-7589,-12,385,-4678,23,-43,-19,17
685,-7583,-3,385,-4680,23,-43,-19,17
686,-7590,-25,377,-4677,23,-45,-18,17
687,-7599,-5,353,-4678,23,-44,-19,17
688,-7581,-3,384,-4676,23,-43,-20,17
689,-7566,-12,371,-4673,23,-44,-19,17
690,-7589,-17,348,-4673,23,-43,-19,17
691,-7589,-6,358,-4673,23,-44,-19,17
692,-7588,-8,369,-4674,23,-44,-20,17
693,-7574,-11,364,-4673,23,-44,-20,17
694,-7567,-2,386,-4673,23,-44,-20,17
695,-7580,3,358,-4676,23,-44,-20,18
696,-7559,-21,356,-4676,23,-45,-20,16
697,-7577,-11,363,-4672,23,-44,-20,17
698,-7583,-3,370,-4677,23,-44,-20,17
699,-7580,-18,376,-4672,23,-44,-19,18
700,-7590,-8,392,-4674,23,-44,-19,18
701,-7591,-2,386,-4670,23,-44,-19,18
702,-7583,8,375,-4671,23,-45,-19,17
703,-7584,8,378,-4672,23,-44,-19,18
704,-7581,1,379,-4669,23,-44,-20,17
705,-7570,3,384,-4672,23,-44,-19,17
706,-7575,0,365,-4674,23,-43,-20,17
707,-7572,7,386,-4671,23,-44,-20,17
708,-7585,0,381,-4669,23,-44,-19,17
709,-7583,-10,373,-4672,23,-44,-20,17
710,-7578,-10,376,-4671,23,-44,-20,17
711,-7589,-20,370,-4672,23,-44,-19,17
712,-7594,-2,383,-4669,23,-45,-19,16
713,-7590,0,379,-4672,23,-44,-19,17
714,-7580,5,382,-4670,23,-43,-21,17
715,-7589,9,395,-4675,23,-44,-20,16
716,-7585,3,388,-4673,23,-43,-20,17
717,-7588,-15,386,-4674,23,-44,-20,18
718,-7574,-8,378,-4668,23,-43,-20,18
719,-7578,12,358,-4674,23,-44,-20,17
720,-7573,3,369,-4677,23,-45,-19,17
721,-7584,4,383,-4676,23,-44,-19,17
722,-7587,-13,383,-4673,23,-43,-20,17
723,-7568,1,374,-4680,23,-44,-20,18
724,-7583,-3,364,-4683,23,-44,-20,18
725,-7571,6,391,-4681,23,-43,-20,18
726,-7575,9,377,-4677,23,-44,-19,17
727,-7586,13,363,-4673,23,-45,-19,17
728,-7593,9,366,-4673,23,-44,-19,16
729,-7598,1,359,-4671,23,-44,-20,17
730,-7588,-15,364,-4673,23,-44,-20,17
731,-7590,1,380,-4675,23,-45,-19,17
732,-7588,-11,377,-4675,23,-44,-20,17
733,-7588,-2,384,-4672,23,-44,-20,17
734,-7589,0,381,-4669,23,-44,-20,16
735,-7580,9,361,-4667,23,-44,-19,17
736,-7592,2,347,-4667,23,-44,-20,17
737,-7584,-5,369,-4672,23,-44,-20,17
738,-7567,-15,375,-4674,23,-44,-20,18
739,-7568,-7,358,-4670,23,-43,-19,18
740,-7593,-26,366,-4669,23,-44,-20,18
741,-7573,-10,374,-4668,23,-44,-19,17
742,-7574,0,369,-4671,23,-44,-19,18
743,-7579,0,363,-4673,23,-43,-20,17
744,-7574,-15,375,-4676,23,-44,-19,18
745,-7572,-24,386,-4675,23,-43,-19,17
746,-7578,5,381,-4679,23,-44,-20,17
747,-7582,-2,369,-4679,23,-44,-19,17
748,-7581,4,368,-4677,23,-44,-20,17
749,-7591,9,379,-4675,23,-44,-20,17
750,-7582,10,381,-4676,23,-44,-19,17
751,-7587,-16,372,-4675,23,-45,-20,17
752,-7574,-13,355,-4674,23,-44,-19,16
753,-7559,-16,358,-4676,23,-44,-19,17
754,-7564,-35,362,-4679,23,-44,-19,17
755,-7578,-14,353,-4675,23,-44,-19,18
756,-7581,-10,377,-4675,23,-44,-20,17
757,-7583,-17,373,-4670,23,-44,-20,18
758,-7588,-12,398,-4673,23,-44,-19,17
759,-7569,-10,389,-4673,23,-44,-19,18
760,-7570,1,377,-4675,23,-44,-19,17
761,-7585,7,393,-4675,23,-45,-19,17
762,-7564,-11,390,-4674,23,-44,-18,17
763,-7578,-7,398,-4669,23,-43,-19,17
764,-7576,-2,369,-4673,23,-43,-19,18
765,-7594,3,367,-4676,23,-44,-20,18
766,-7584,2,380,-4675,23,-43,-19,18
767,-7582,-11,382,-4677,23,-44,-18,18
768,-7596,-16,362,-4676,23,-43,-18,18
769,-7575,-23,390,-4673,23,-44,-19,17
770,-7576,-15,389,-4672,23,-43,-19,17
771,-7580,-3,376,-4673,23,-44,-19,17
772,-7578,6,371,-4677,23,-44,-19,17
773,-7582,-17,374,-4679,23,-44,-20,16
774,-7575,-4,379,-4676,23,-44,-19,17
775,-7576,-1,376,-4672,23,-44,-19,17
776,-7581,-19,383,-4675,23,-44,-19,16
777,-7587,-20,396,-4671,23,-44,-21,16
778,-7582,-23,384,-4671,23,-43,-20,17
779,-7589,-25,360,-4673,23,-44,-20,17
780,-7583,-5,348,-4679,23,-44,-20,16
781,-7577,2,356,-4678,23,-44,-21,17
782,-7577,-9,355,-4678,23,-43,-20,17
783,-7587,11,367,-4673,23,-44,-19,17
784,-7582,-5,372,-4667,23,-44,-19,17
785,-7583,1,372,-4670,23,-44,-20,17
786,-7571,-3,390,-4665,23,-44,-19,18
787,-7563,-5,391,-4674,23,-44,-19,17
788,-7564,-4,382,-4678,23,-44,-19,17
789,-7576,2,398,-4671,23,-44,-20,16
790,-7571,-6,379,-4672,23,-44,-20,17
791,-7579,4,347,-4673,23,-44,-19,17
792,-7564,5,372,-4677,23,-44,-19,17
793,-7581,3,380,-4674,23,-43,-20,17
794,-7569,3,372,-4676,23,-43,-20,17
795,-7572,-8,368,-4676,23,-43,-20,17
796,-7581,-9,369,-4672,23,-44,-20,17
797,-7577,-4,388,-4675,23,-44,-20,17
798,-7576,-3,390,-4682,23,-44,-19,16
799,-7590,-11,351,-4677,23,-44,-19,17
800,-7580,5,373,-4674,23,-44,-20,17
801,-7560,-12,385,-4675,23,-43,-21,17
802,-7580,-10,386,-4677,23,-44,-19,17
803,-7574,-8,392,-4679,23,-43,-19,18
804,-7584,4,386,-4678,23,-44,-19,18
805,-7573,-3,372,-4680,23,-44,-19,17
806,-7578,-6,377,-4679,23,-44,-19,17
807,-7564,-2,385,-4675,23,-44,-19,16
808,-7578,-14,392,-4674,23,-45,-19,17
809,-7589,-11,388,-4673,23,-44,-19,17
810,-7572,-11,374,-4674,23,-44,-20,17
811,-7568,-23,386,-4672,23,-43,-19,17
812,-7563,-16,375,-4675,23,-44,-20,17
813,-7565,-24,401,-4675,23,-44,-19,17
814,-7570,-22,372,-4675,23,-44,-19,17
815,-7590,-19,393,-4672,23,-44,-19,17
816,-7586,-15,380,-4670,23,-44,-19,17
817,-7583,-6,368,-4671,23,-43,-20,17
818,-7578,0,365,-4677,23,-44,-19,18
819,-7584,8,361,-4670,23,-44,-19,17
820,-7591,-3,375,-4670,23,-44,-19,17
821,-7583,-14,377,-4670,23,-44,-19,17
822,-7568,-28,367,-4672,23,-43,-19,17
823,-7573,-16,355,-4673,23,-43,-21,17
824,-7572,-17,390,-4673,23,-44,-19,17
825,-7581,-9,355,-4675,23,-44,-19,17
826,-7580,-1,350,-4675,23,-43,-20,17
827,-7561,0,353,-4671,23,-44,-20,16
828,-7568,-4,363,-4672,23,-44,-20,17
829,-7571,-1,366,-4680,23,-44,-20,18
830,-7564,-21,376,-4676,23,-44,-19,17
831,-7571,-15,372,-4676,23,-44,-19,17
832,-7582,-2,370,-4679,23,-43,-19,17
833,-7573,-8,369,-4678,23,-43,-20,17
834,-7578,-8,362,-4676,23,-44,-18,17
835,-7596,-22,364,-4672,23,-44,-19,16
836,-7574,-8,373,-4677,23,-44,-18,16
837,-7582,-13,366,-4675,23,-44,-19,16
838,-7563,-12,381,-4680,23,-44,-19,16
839,-7567,-7,369,-4676,23,-44,-20,16
840,-7560,-18,377,-4677,23,-44,-19,17
841,-7568,-3,367,-4674,23,-44,-19,17
842,-7570,-18,371,-4678,23,-45,-20,17
843,-7569,-7,384,-4675,23,-44,-20,18
844,-7574,5,365,-4676,23,-44,-21,17
845,-7587,-3,367,-4670,23,-45,-20,17
846,-7581,-2,372,-4677,23,-44,-19,17
847,-7578,-9,397,-4676,23,-44,-18,17
848,-7574,-15,392,-4677,23,-44,-19,17
849,-7575,-6,378,-4679,23,-45,-19,17
850,-7579,-11,360,-4674,23,-45,-19,17
851,-7565,-16,364,-4675,23,-44,-20,16
852,-7575,-13,376,-4673,23,-43,-19,17
853,-7583,-10,369,-4675,23,-44,-20,17
854,-7579,-11,365,-4672,23,-43,-20,17
855,-7571,-14,371,-4670,23,-44,-20,16
856,-7579,-18,371,-4675,23,-44,-20,16
857,-7576,1,368,-4673,23,-44,-19,16
858,-7565,-4,373,-4676,23,-44,-19,17
859,-7579,-19,383,-4669,23,-43,-19,18
860,-7575,-18,372,-4671,23,-44,-19,17
861,-7568,-10,363,-4676,23,-45,-20,17
862,-7577,0,387,-4671,23,-43,-20,18
863,-7575,-16,366,-4681,23,-44,-20,18
864,-7579,7,372,-4680,23,-44,-19,18
865,-7592,-11,368,-4677,23,-45,-20,18
866,-7580,-11,377,-4672,23,-44,-21,17
867,-7575,-7,375,-4674,23,-45,-20,17
868,-7566,-6,377,-4675,23,-44,-20,17
869,-7583,-9,380,-4675,23,-44,-20,17
870,-7571,-6,355,-4673,23,-45,-19,18
871,-7572,6,370,-4671,23,-44,-19,18
872,-7593,-10,386,-4673,23,-44,-20,17
873,-7591,-16,375,-4672,23,-43,-20,17
874,-7595,-3,374,-4673,23,-43,-20,17
875,-7575,-4,382,-4667,23,-44,-19,18
876,-7559,-18,377,-4667,23,-43,-19,18
877,-7564,-18,390,-4673,23,-44,-20,18
878,-7568,-15,393,-4669,23,-44,-20,17
879,-7575,-13,395,-4668,23,-44,-20,17
880,-7579,-20,389,-4670,23,-44,-19,17
881,-7587,-10,380,-4678,23,-45,-19,17
882,-7593,-1,376,-4676,23,-44,-19,17
883,-7591,3,381,-4673,23,-44,-19,17
884,-7586,5,378,-4674,23,-44,-20,18
885,-7574,-7,383,-4674,23,-44,-19,18
886,-7577,13,389,-4672,23,-44,-20,18
887,-7571,-2,376,-4667,23,-44,-19,18
888,-7577,-10,378,-4665,23,-44,-19,17
889,-7571,-14,369,-4674,23,-43,-20,18
890,-7581,-11,359,-4673,23,-44,-20,18
891,-7554,-22,386,-4676,23,-44,-20,17
892,-7572,2,372,-4678,23,-44,-19,17
893,-7574,-3,359,-4676,23,-44,-19,17
894,-7570,-5,365,-4676,23,-44,-21,17
895,-7573,5,375,-4671,23,-43,-20,17
896,-7591,-14,381,-4667,23,-44,-20,17
897,-7558,-10,369,-4671,23,-43,-19,17
898,-7569,0,394,-4677,23,-43,-19,17
899,-7581,-6,376,-4676,23,-44,-20,17
900,-7580,-9,368,-4667,23,-44,-19,18
901,-7562,-6,343,-4670,23,-43,-20,17
902,-7569,-7,364,-4666,23,-43,-20,18
903,-7577,-18,373,-4666,23,-44,-20,16
904,-7586,-14,360,-4673,23,-45,-21,16
905,-7569,-13,353,-4675,23,-44,-20,17
906,-7578,-2,367,-4676,23,-43,-20,17
907,-7585,-4,370,-4678,23,-43,-20,17
908,-7580,0,384,-4673,23,-44,-19,17
909,-7582,12,397,-4671,23,-43,-19,18
910,-7581,-16,376,-4674,23,-44,-19,17
911,-7571,-5,363,-4671,23,-45,-19,18
912,-7569,-18,369,-4673,23,-44,-20,18
913,-7569,-13,377,-4671,23,-44,-20,17
914,-7577,-13,381,-4669,23,-44,-20,17
915,-7578,-15,376,-4674,23,-44,-19,17
916,-7561,-9,374,-4669,23,-43,-19,17
917,-7555,1,376,-4668,23,-43,-19,17
918,-7558,-5,382,-4673,23,-44,-19,17
919,-7568,-24,366,-4671,23,-45,-19,18
920,-7563,-11,356,-4678,23,-43,-19,17
921,-7575,-3,356,-4674,23,-44,-19,17
922,-7575,-17,389,-4672,23,-44,-20,18
923,-7562,-22,361,-4673,23,-44,-20,17
924,-7567,-19,373,-4668,23,-42,-19,17
925,-7580,-13,379,-4668,23,-44,-19,16
926,-7587,0,394,-4675,23,-44,-20,17
927,-7578,-4,383,-4676,23,-44,-19,16
928,-7583,-4,380,-4666,23,-44,-19,17
929,-7584,-4,382,-4671,23,-44,-20,17
930,-7581,-8,374,-4668,23,-45,-20,17
931,-7586,-16,375,-4671,23,-45,-19,17
932,-7603,-12,379,-4672,23,-44,-20,17
933,-7580,-13,386,-4670,23,-43,-20,16
934,-7575,-15,396,-4672,23,-44,-20,17
935,-7582,-19,382,-4670,23,-44,-20,17
936,-7563,-18,378,-4674,23,-44,-19,17
937,-7583,2,389,-4679,23,-44,-18,17
938,-7568,-10,384,-4679,23,-43,-19,16
939,-7558,-12,401,-4674,23,-43,-20,17
940,-7549,-25,383,-4667,23,-44,-20,17
941,-7583,-15,372,-4666,23,-44,-20,17
942,-7574,-6,403,-4671,23,-44,-20,17
943,-7570,-14,393,-4669,23,-44,-20,18
944,-7557,-20,394,-4671,23,-43,-20,18
945,-7581,-13,394,-4674,23,-44,-19,17
946,-7574,6,366,-4672,23,-43,-19,17
947,-7581,1,365,-4671,23,-44,-19,18
948,-7578,1,377,-4677,23,-44,-19,17
949,-7585,-8,371,-4675,23,-44,-18,17
950,-7574,-8,375,-4677,23,-44,-19,17
951,-7569,-12,365,-4675,23,-44,-19,17
952,-7563,-14,388,-4674,23,-43,-20,17
953,-7573,-20,381,-4672,23,-44,-20,17
954,-7583,10,367,-4677,23,-44,-20,17
955,-7583,8,370,-4674,23,-44,-20,17
956,-7593,-7,370,-4671,23,-45,-21,17
957,-7588,-10,368,-4677,23,-44,-21,16
958,-7587,-14,369,-4677,23,-44,-20,17
959,-7570,-18,381,-4672,23,-44,-20,17
960,-7580,-11,366,-4669,23,-43,-19,17
961,-7580,-18,385,-4671,23,-43,-20,17
962,-7571,-18,375,-4671,23,-43,-19,17
963,-7578,-4,354,-4676,23,-44,-20,17
964,-7590,1,348,-4675,23,-44,-19,18
965,-7571,-6,371,-4669,23,-43,-21,17
966,-7587,-21,376,-4670,23,-44,-21,17
967,-7571,-12,382,-4671,23,-44,-20,17
968,-7563,-14,392,-4674,23,-43,-19,17
969,-7579,-5,372,-4675,23,-43,-20,17
970,-7577,-12,366,-4673,23,-44,-19,16
971,-7574,-18,376,-4671,23,-43,-20,17
972,-7576,-14,389,-4674,23,-43,-19,18
973,-7573,-8,384,-4677,23,-45,-19,18
974,-7575,-12,355,-4679,23,-45,-19,17
975,-7582,-6,401,-4676,23,-44,-20,17
976,-7586,-8,368,-4672,23,-44,-19,17
977,-7579,-5,391,-4670,23,-44,-20,16
978,-7576,-4,390,-4676,23,-43,-20,17
979,-7589,4,384,-4677,23,-43,-19,17
980,-7581,-1,408,-4673,23,-43,-19,17
981,-7583,-11,375,-4669,23,-43,-19,17
982,-7591,-9,354,-4672,23,-44,-19,17
983,-7572,-5,372,-4669,23,-44,-20,17
984,-7575,-3,378,-4670,23,-44,-20,17
985,-7565,1,404,-4675,23,-44,-21,17
986,-7572,5,385,-4673,23,-44,-20,16
987,-7574,-1,375,-4668,23,-44,-19,16
988,-7565,-2,379,-4669,23,-44,-20,18
989,-7572,-7,385,-4675,23,-44,-19,17
990,-7564,-6,376,-4671,23,-44,-19,17
991,-7577,1,384,-4667,23,-44,-20,18
992,-7571,9,364,-4667,23,-44,-20,17
993,-7576,-2,375,-4665,23,-44,-20,17
994,-7592,-3,384,-4671,23,-44,-20,18
995,-7574,-7,374,-4677,23,-44,-19,18
996,-7586,-8,400,-4674,23,-44,-19,17
997,-7574,5,377,-4672,23,-44,-20,17
998,-7583,7,387,-4669,23,-45,-20,17
