,acc_X,acc_Y,acc_Z,temp,tempC,gyr_X,gyr_Y,gyr_Z
0,-7573,-12,386,-4717,23,-341,-146,146
1,-7581,-48,351,-4715,23,-348,-162,140
2,-7573,-4,404,-4714,23,-356,-163,137
3,-7580,-6,384,-4717,23,-358,-159,136
4,-7567,-2,375,-4716,23,-355,-160,142
5,-7579,3,376,-4721,23,-341,-145,141
6,-7586,6,348,-4718,23,-352,-148,143
7,-7561,-39,394,-4717,23,-342,-154,146
8,-7580,-21,388,-4717,23,-350,-149,134
9,-7580,-18,367,-4718,23,-353,-147,130
10,-7599,-15,369,-4716,23,-346,-152,140
11,-7575,3,360,-4711,23,-354,-145,147
12,-7578,12,396,-4712,23,-352,-152,151
13,-7555,21,377,-4718,23,-345,-142,144
14,-7579,10,341,-4713,23,-348,-145,138
15,-7574,-13,395,-4712,23,-350,-151,140
16,-7548,-1,388,-4719,23,-340,-157,135
17,-7567,-11,385,-4722,23,-352,-149,138
18,-7591,-2,355,-4714,23,-353,-153,142
19,-7579,3,357,-4714,23,-343,-153,141
20,-7571,-6,381,-4712,23,-354,-150,134
21,-7576,3,394,-4711,23,-337,-144,134
22,-7560,-5,378,-4714,23,-354,-149,143
23,-7583,-8,363,-4711,23,-351,-148,134
24,-7580,-2,343,-4706,23,-349,-153,145
25,-7594,-13,358,-4712,23,-334,-154,146
26,-7581,-8,350,-4712,23,-359,-165,137
27,-7574,-9,365,-4712,23,-348,-163,137
28,-7577,0,357,-4713,23,-340,-158,138
29,-7569,5,394,-4719,23,-347,-152,138
30,-7579,-14,345,-4713,23,-350,-145,133
31,-7590,-16,360,-4709,23,-351,-158,139
32,-7582,-9,360,-4714,23,-351,-154,134
33,-7605,7,351,-4718,23,-344,-149,144
34,-7570,-15,367,-4711,23,-365,-152,149
35,-7575,8,374,-4717,23,-348,-153,142
36,-7583,10,403,-4708,23,-354,-152,136
37,-7589,2,380,-4715,23,-352,-157,137
38,-7566,-11,352,-4705,23,-347,-157,141
39,-7587,0,375,-4711,23,-341,-141,135
40,-7590,14,370,-4710,23,-342,-143,133
41,-7574,-9,375,-4710,23,-341,-145,133
42,-7581,-15,386,-4706,23,-348,-154,139
43,-7587,-15,377,-4707,23,-348,-153,144
44,-7578,-25,346,-4712,23,-353,-163,139
45,-7576,-9,364,-4704,23,-346,-146,140
46,-7594,-7,401,-4709,23,-340,-150,135
47,-7564,3,363,-4709,23,-338,-161,123
48,-7595,-10,378,-4709,23,-352,-150,146
49,-7559,-6,345,-4721,23,-357,-159,143
50,-7597,2,401,-4716,23,-347,-157,147
51,-7563,-4,359,-4706,23,-352,-157,136
52,-7572,2,392,-4713,23,-348,-150,136
53,-7563,-5,354,-4713,23,-351,-154,146
54,-7580,1,365,-4703,23,-355,-159,141
55,-7565,-15,351,-4706,23,-355,-149,144
56,-7575,2,343,-4714,23,-350,-153,135
57,-7552,-10,361,-4709,23,-349,-148,138
58,-7574,6,376,-4713,23,-360,-159,132
59,-7557,-13,350,-4716,23,-353,-154,136
60,-7594,-6,367,-4715,23,-347,-152,130
61,-7602,-6,352,-4705,23,-345,-159,142
62,-7561,-6,358,-4708,23,-342,-156,139
63,-7586,-22,393,-4713,23,-353,-144,143
64,-7574,-3,365,-4706,23,-351,-150,132
65,-7561,0,395,-4705,23,-336,-150,142
66,-7559,14,363,-4705,23,-352,-150,136
67,-7576,-20,376,-4709,23,-343,-156,140
68,-7572,-10,379,-4715,23,-349,-155,130
69,-7575,9,364,-4717,23,-342,-163,138
70,-7574,-19,335,-4716,23,-342,-155,142
71,-7572,-10,374,-4715,23,-338,-148,138
72,-7583,0,399,-4718,23,-344,-140,148
73,-7583,3,399,-4717,23,-352,-153,141
74,-7586,-5,382,-4708,23,-360,-165,137
75,-7595,1,393,-4708,23,-340,-157,134
76,-7569,-10,377,-4712,23,-346,-152,137
77,-7575,6,392,-4714,23,-336,-156,140
78,-7588,-9,392,-4716,23,-347,-149,139
79,-7558,10,364,-4713,23,-338,-144,140
80,-7581,-19,394,-4720,23,-343,-157,149
81,-7562,-12,377,-4728,23,-359,-147,142
82,-7578,-5,381,-4713,23,-352,-146,135
83,-7569,-15,380,-4715,23,-343,-143,148
84,-7586,-11,379,-4715,23,-346,-152,139
85,-7577,23,389,-4711,23,-354,-147,148
86,-7576,-17,370,-4713,23,-349,-163,140
87,-7561,-4,401,-4713,23,-337,-147,141
88,-7579,-7,396,-4715,23,-349,-152,143
89,-7579,2,382,-4719,23,-354,-144,142
90,-7570,-18,413,-4716,23,-342,-153,143
91,-7584,8,392,-4713,23,-345,-153,141
92,-7603,-11,353,-4709,23,-340,-160,142
93,-7580,17,402,-4712,23,-351,-149,140
94,-7581,-9,403,-4709,23,-344,-152,138
95,-7582,7,378,-4709,23,-355,-166,139
96,-7592,-15,376,-4713,23,-335,-164,138
97,-7585,6,352,-4717,23,-348,-157,135
98,-7601,9,369,-4709,23,-339,-149,130
99,-7596,6,343,-4710,23,-342,-155,135
100,-7555,-9,404,-4716,23,-343,-152,136
101,-7581,-7,373,-4707,23,-350,-152,141
102,-7586,-2,343,-4709,23,-355,-157,140
103,-7575,1,395,-4710,23,-339,-150,139
104,-7584,-23,394,-4704,23,-341,-161,139
105,-7586,-14,369,-4704,23,-348,-162,140
106,-7566,-6,371,-4710,23,-350,-160,141
107,-7575,-14,361,-4711,23,-352,-156,143
108,-7565,-20,394,-4707,23,-345,-150,134
109,-7568,-3,374,-4711,23,-347,-153,150
110,-7567,30,365,-4707,23,-345,-152,140
111,-7578,-4,365,-4712,23,-344,-148,143
112,-7564,-5,362,-4714,23,-345,-158,143
113,-7549,-15,380,-4708,23,-351,-148,132
114,-7574,2,367,-4712,23,-342,-152,135
115,-7589,10,374,-4717,23,-348,-150,136
116,-7576,-13,413,-4712,23,-341,-152,140
117,-7572,9,371,-4714,23,-336,-146,144
118,-7597,7,384,-4718,23,-340,-148,146
119,-7587,-4,397,-4710,23,-347,-149,140
120,-7601,-7,394,-4710,23,-347,-151,146
121,-7595,-3,346,-4707,23,-342,-167,147
122,-7541,-17,384,-4705,23,-336,-161,145
123,-7569,3,372,-4712,23,-348,-156,146
124,-7548,0,374,-4712,23,-351,-150,140
125,-7562,-3,386,-4707,23,-340,-151,132
126,-7554,-15,403,-4704,23,-362,-157,129
127,-7572,-1,341,-4717,23,-345,-149,141
128,-7574,-6,383,-4712,23,-347,-156,137
129,-7555,-5,397,-4722,23,-353,-141,140
130,-7563,-9,327,-4704,23,-356,-155,133
131,-7605,-18,375,-4704,23,-345,-145,137
132,-7584,-11,371,-4714,23,-351,-143,138
133,-7568,-28,357,-4707,23,-348,-147,139
134,-7581,-25,375,-4716,23,-353,-148,141
135,-7587,-11,415,-4710,23,-354,-156,137
136,-7562,3,391,-4716,23,-352,-157,138
137,-7567,-15,407,-4712,23,-350,-147,146
138,-7580,-9,406,-4710,23,-356,-145,146
139,-7579,-8,397,-4708,23,-350,-164,143
140,-7572,0,389,-4705,23,-350,-154,132
141,-7590,-12,385,-4706,23,-349,-153,138
142,-7586,2,371,-4712,23,-351,-149,140
143,-7570,-7,410,-4714,23,-351,-156,142
144,-7566,-9,386,-4711,23,-359,-156,144
145,-7588,1,369,-4715,23,-348,-147,137
146,-7570,-20,375,-4716,23,-343,-157,131
147,-7580,-21,358,-4717,23,-344,-149,135
148,-7579,3,375,-4708,23,-354,-159,134
149,-7583,23,374,-4715,23,-346,-160,140
150,-7595,-2,376,-4716,23,-347,-159,143
151,-7569,-10,348,-4705,23,-359,-150,141
152,-7580,3,353,-4709,23,-351,-143,133
153,-7573,-5,379,-4717,23,-343,-158,143
154,-7580,-5,375,-4707,23,-343,-156,142
155,-7575,-10,392,-4716,23,-347,-150,141
156,-7593,-27,361,-4716,23,-353,-159,134
157,-7591,-8,420,-4712,23,-336,-153,134
158,-7567,-9,386,-4707,23,-347,-149,141
159,-7581,12,408,-4714,23,-338,-150,139
160,-7573,14,364,-4717,23,-338,-143,139
161,-7571,-24,382,-4704,23,-355,-151,146
162,-7580,0,388,-4700,23,-353,-155,138
163,-7583,-10,380,-4716,23,-349,-157,142
164,-7571,11,356,-4709,23,-351,-142,139
165,-7572,-11,368,-4712,23,-345,-152,138
166,-7578,18,372,-4716,23,-350,-156,143
167,-7591,10,364,-4708,23,-347,-160,148
168,-7566,-16,402,-4708,23,-340,-155,150
169,-7600,4,367,-4707,23,-346,-151,141
170,-7597,-9,389,-4715,23,-364,-148,142
171,-7567,1,387,-4714,23,-355,-158,146
172,-7572,5,381,-4717,23,-356,-154,138
173,-7584,-17,422,-4709,23,-355,-156,139
174,-7577,-16,355,-4712,23,-340,-168,139
175,-7566,2,391,-4712,23,-346,-161,135
176,-7586,-17,329,-4713,23,-344,-157,135
177,-7583,-3,392,-4715,23,-352,-153,143
178,-7572,-13,387,-4713,23,-341,-150,135
179,-7579,-15,373,-4716,23,-353,-149,132
180,-7593,-10,392,-4714,23,-353,-150,139
181,-7587,-13,426,-4711,23,-341,-162,141
182,-7560,-8,412,-4710,23,-342,-156,137
183,-7584,-20,390,-4709,23,-354,-157,143
184,-7566,-12,404,-4713,23,-349,-154,136
185,-7576,-19,394,-4711,23,-351,-157,137
186,-7577,-11,378,-4716,23,-349,-151,138
187,-7592,-8,374,-4705,23,-343,-161,136
188,-7573,23,397,-4706,23,-352,-156,139
189,-7566,17,388,-4709,23,-345,-147,135
190,-7601,-25,399,-4707,23,-348,-157,146
191,-7581,-21,371,-4710,23,-355,-142,143
192,-7573,-5,347,-4719,23,-345,-144,131
193,-7583,-24,380,-4726,23,-344,-156,140
194,-7540,-6,373,-4711,23,-351,-148,147
195,-7592,18,382,-4719,23,-336,-161,137
196,-7574,15,392,-4714,23,-346,-163,132
197,-7570,3,387,-4708,23,-347,-160,143
198,-7589,1,363,-4706,23,-353,-146,141
199,-7576,18,410,-4717,23,-353,-158,138
200,-7588,2,360,-4715,23,-347,-159,130
201,-7590,13,351,-4712,23,-351,-156,144
202,-7572,-8,403,-4712,23,-338,-160,137
203,-7588,7,393,-4718,23,-346,-169,144
204,-7577,-15,388,-4706,23,-340,-165,142
205,-7581,10,382,-4716,23,-344,-154,132
206,-7543,-21,327,-4711,23,-345,-147,140
207,-7560,-24,353,-4709,23,-347,-153,137
208,-7566,4,338,-4714,23,-348,-157,143
209,-7580,-11,365,-4713,23,-351,-147,137
210,-7589,27,382,-4713,23,-349,-145,149
211,-7589,-6,375,-4721,23,-350,-159,147
212,-7585,-16,382,-4713,23,-344,-152,142
213,-7574,4,390,-4712,23,-342,-155,133
214,-7582,-9,396,-4707,23,-344,-154,144
215,-7566,-22,395,-4706,23,-337,-151,139
216,-7560,0,371,-4718,23,-351,-147,133
217,-7568,-9,384,-4713,23,-346,-155,143
218,-7577,-3,334,-4707,23,-358,-151,134
219,-7559,-15,351,-4709,23,-335,-149,138
220,-7602,-14,376,-4717,23,-338,-157,140
221,-7570,-5,411,-4715,23,-342,-149,141
222,-7565,8,402,-4710,23,-350,-155,148
223,-7576,-12,382,-4714,23,-340,-159,138
224,-7565,-26,381,-4717,23,-349,-155,144
225,-7596,-11,402,-4711,23,-348,-155,144
226,-7586,4,363,-4712,23,-339,-145,139
227,-7569,9,341,-4713,23,-346,-146,144
228,-7558,-29,397,-4709,23,-344,-141,136
229,-7560,-4,373,-4709,23,-347,-163,142
230,-7558,-9,348,-4716,23,-349,-149,141
231,-7585,-29,334,-4716,23,-342,-150,145
232,-7548,-5,371,-4709,23,-348,-152,146
233,-7589,-23,349,-4715,23,-350,-144,134
234,-7580,-41,348,-4708,23,-349,-161,135
235,-7554,-4,367,-4707,23,-338,-153,135
236,-7568,-7,372,-4716,23,-354,-145,148
237,-7554,-7,367,-4715,23,-355,-154,140
238,-7576,1,400,-4705,23,-345,-156,145
239,-7595,-12,355,-4709,23,-348,-161,140
240,-7590,0,388,-4712,23,-348,-157,136
241,-7572,-21,373,-4706,23,-354,-151,134
242,-7586,-3,366,-4704,23,-357,-148,136
243,-7563,-16,357,-4715,23,-355,-143,136
244,-7577,7,372,-4711,23,-346,-154,142
245,-7578,9,376,-4706,23,-350,-151,133
246,-7584,-3,377,-4707,23,-350,-168,141
247,-7588,6,393,-4720,23,-351,-149,134
248,-7585,-16,356,-4709,23,-341,-158,145
249,-7570,17,365,-4710,23,-347,-156,140
250,-7586,15,343,-4712,23,-355,-151,138
251,-7591,-13,375,-4709,23,-348,-150,136
252,-7572,-11,362,-4715,23,-359,-146,138
253,-7567,-16,377,-4712,23,-345,-148,138
254,-7585,-14,376,-4715,23,-350,-153,145
255,-7577,11,382,-4708,23,-345,-154,137
256,-7561,0,382,-4706,23,-351,-151,132
257,-7552,7,371,-4709,23,-349,-151,131
258,-7568,-19,362,-4707,23,-346,-157,139
259,-7580,-17,386,-4709,23,-340,-145,137
260,-7580,0,347,-4713,23,-355,-156,138
261,-7571,-26,350,-4709,23,-350,-154,142
262,-7564,3,368,-4707,23,-349,-155,144
263,-7560,9,383,-4716,23,-342,-153,143
264,-7583,-11,361,-4706,23,-352,-155,145
265,-7571,-1,375,-4704,23,-353,-158,133
266,-7578,-6,365,-4698,23,-352,-153,150
267,-7589,-26,375,-4710,23,-345,-152,143
268,-7594,-3,377,-4713,23,-343,-159,141
269,-7583,-18,358,-4714,23,-354,-153,138
270,-7574,-19,392,-4713,23,-341,-151,133
271,-7594,-7,364,-4712,23,-342,-157,138
272,-7573,-7,365,-4704,23,-344,-163,143
273,-7583,-9,381,-4703,23,-350,-154,138
274,-7579,-4,370,-4705,23,-345,-161,136
275,-7586,-14,373,-4713,23,-356,-163,135
276,-7575,-5,350,-4708,23,-345,-158,144
277,-7607,1,379,-4712,23,-350,-140,141
278,-7578,6,378,-4708,23,-347,-152,130
279,-7558,-3,362,-4706,23,-343,-148,133
280,-7562,0,389,-4714,23,-355,-154,138
281,-7563,-2,369,-4703,23,-352,-155,142
282,-7574,-19,368,-4711,23,-347,-160,137
283,-7563,-19,395,-4711,23,-351,-155,143
284,-7568,-13,386,-4711,23,-355,-153,138
285,-7575,-36,367,-4713,23,-344,-154,151
286,-7562,-12,366,-4707,23,-338,-153,136
287,-7608,-38,384,-4709,23,-342,-168,147
288,-7570,-17,411,-4707,23,-341,-153,144
289,-7579,-10,401,-4712,23,-350,-154,137
290,-7553,-25,378,-4706,23,-347,-149,129
291,-7588,-9,382,-4714,23,-350,-158,141
292,-7570,-4,360,-4708,23,-356,-159,143
293,-7574,4,369,-4709,23,-349,-145,143
294,-7574,-34,374,-4706,23,-345,-147,143
295,-7576,-9,367,-4705,23,-350,-151,144
296,-7582,11,374,-4707,23,-348,-140,155
297,-7582,18,379,-4706,23,-352,-156,142
298,-7559,-7,354,-4696,23,-354,-147,136
299,-7559,11,344,-4699,23,-357,-153,145
300,-7567,-11,335,-4709,23,-346,-153,137
301,-7588,-10,350,-4704,23,-345,-153,146
302,-7575,-15,389,-4710,23,-342,-160,140
303,-7575,6,402,-4707,23,-345,-150,140
304,-7564,-5,325,-4714,23,-347,-157,139
305,-7562,-21,381,-4708,23,-345,-150,144
306,-7579,-7,374,-4710,23,-350,-149,140
307,-7577,-14,345,-4715,23,-359,-154,149
308,-7590,-23,388,-4704,23,-356,-156,138
309,-7564,0,396,-4711,23,-344,-146,144
310,-7573,-11,396,-4704,23,-343,-156,140
311,-7568,-12,378,-4711,23,-346,-161,144
312,-7575,-27,411,-4696,23,-348,-158,137
313,-7577,-19,391,-4705,23,-341,-159,137
314,-7572,-9,362,-4710,23,-341,-167,136
315,-7602,-5,387,-4704,23,-354,-152,140
316,-7602,5,348,-4708,23,-352,-148,129
317,-7582,-14,379,-4706,23,-345,-147,134
318,-7573,-15,362,-4708,23,-343,-154,144
319,-7582,31,377,-4710,23,-341,-148,144
320,-7606,-21,362,-4718,23,-352,-150,141
321,-7580,-16,394,-4708,23,-354,-154,145
322,-7568,-21,382,-4712,23,-356,-150,137
323,-7588,-9,373,-4707,23,-350,-155,148
324,-7599,6,380,-4707,23,-348,-155,147
325,-7591,-5,385,-4712,23,-341,-158,139
326,-7572,-14,401,-4709,23,-348,-154,140
327,-7572,-12,365,-4705,23,-348,-159,144
328,-7582,-27,351,-4719,23,-346,-158,145
329,-7575,-35,359,-4715,23,-346,-149,138
330,-7595,-15,392,-4716,23,-349,-154,134
331,-7594,-12,379,-4710,23,-344,-154,132
332,-7567,-6,374,-4715,23,-343,-156,138
333,-7576,1,380,-4708,23,-349,-148,138
334,-7585,6,424,-4704,23,-351,-150,135
335,-7583,20,385,-4710,23,-342,-153,144
336,-7571,-12,353,-4706,23,-343,-149,134
337,-7552,-7,360,-4709,23,-346,-150,140
338,-7574,-2,345,-4713,23,-355,-150,135
339,-7576,1,361,-4714,23,-353,-155,131
340,-7574,-4,371,-4714,23,-346,-150,134
341,-7580,-15,384,-4705,23,-350,-152,136
342,-7587,-15,343,-4703,23,-352,-155,143
343,-7580,-6,367,-4703,23,-345,-155,130
344,-7581,-6,361,-4710,23,-351,-153,136
345,-7593,-10,355,-4707,23,-348,-155,141
346,-7571,-15,392,-4708,23,-345,-158,143
347,-7560,-12,354,-4706,23,-346,-148,142
348,-7584,-6,385,-4704,23,-345,-166,142
349,-7575,-11,380,-4712,23,-346,-163,133
350,-7603,20,368,-4710,23,-344,-160,137
351,-7579,-6,378,-4709,23,-341,-159,147
352,-7596,-5,397,-4703,23,-352,-158,143
353,-7574,-15,360,-4707,23,-342,-162,144
354,-7566,-6,350,-4708,23,-351,-147,135
355,-7579,-3,379,-4701,23,-341,-148,141
356,-7598,-16,349,-4703,23,-343,-150,146
357,-7595,-27,341,-4704,23,-345,-152,139
358,-7558,2,364,-4706,23,-349,-145,139
359,-7575,-11,362,-4713,23,-351,-164,140
360,-7580,-8,374,-4699,23,-347,-158,142
361,-7563,-14,381,-4702,23,-347,-158,135
362,-7583,-5,374,-4708,23,-348,-158,138
363,-7593,26,383,-4711,23,-354,-147,127
364,-7566,11,393,-4707,23,-347,-156,147
365,-7560,-2,359,-4703,23,-333,-152,142
366,-7562,13,383,-4707,23,-338,-165,141
367,-7574,6,403,-4708,23,-335,-146,139
368,-7576,-16,314,-4701,23,-348,-161,138
369,-7575,-17,362,-4709,23,-348,-152,137
370,-7563,6,359,-4704,23,-350,-156,138
371,-7583,-5,375,-4705,23,-342,-149,146
372,-7558,-9,332,-4707,23,-342,-149,142
373,-7583,-7,369,-4710,23,-347,-144,137
374,-7565,8,377,-4709,23,-344,-154,139
375,-7578,-2,354,-4705,23,-347,-161,137
376,-7568,-16,359,-4708,23,-350,-161,141
377,-7582,-6,405,-4710,23,-346,-153,140
378,-7595,-8,399,-4702,23,-343,-163,140
379,-7583,-3,380,-4708,23,-348,-166,135
380,-7583,-33,378,-4705,23,-353,-158,138
381,-7576,-4,404,-4702,23,-352,-153,142
382,-7579,-1,367,-4712,23,-337,-161,145
383,-7576,1,392,-4703,23,-339,-158,138
384,-7584,12,371,-4711,23,-349,-155,138
385,-7585,5,383,-4703,23,-349,-152,142
386,-7575,-14,377,-4701,23,-346,-151,147
387,-7570,-7,377,-4707,23,-348,-145,140
388,-7575,-2,367,-4709,23,-350,-155,141
389,-7574,-17,383,-4707,23,-345,-156,135
390,-7583,3,375,-4709,23,-355,-150,131
391,-7587,4,367,-4707,23,-347,-157,133
392,-7598,0,376,-4704,23,-353,-147,141
393,-7584,-9,328,-4711,23,-340,-147,143
394,-7577,-27,410,-4711,23,-334,-149,146
395,-7581,-10,353,-4716,23,-351,-147,133
396,-7575,3,387,-4711,23,-352,-168,143
397,-7550,-1,353,-4703,23,-352,-154,149
398,-7559,-4,392,-4707,23,-339,-148,137
399,-7588,-7,374,-4708,23,-350,-152,150
400,-7572,0,403,-4712,23,-349,-151,138
401,-7591,-10,401,-4704,23,-344,-148,141
402,-7593,-18,384,-4706,23,-343,-149,136
403,-7571,11,354,-4701,23,-339,-157,139
404,-7566,18,386,-4717,23,-348,-150,143
405,-7579,-5,392,-4716,23,-348,-151,143
406,-7565,-4,383,-4709,23,-342,-160,129
407,-7580,19,382,-4705,23,-337,-162,133
408,-7571,-14,400,-4708,23,-345,-161,136
409,-7582,17,358,-4705,23,-353,-155,137
410,-7593,-23,376,-4705,23,-348,-151,143
411,-7574,-16,375,-4702,23,-347,-154,145
412,-7578,-9,366,-4707,23,-351,-157,145
413,-7575,-9,374,-4705,23,-344,-138,139
414,-7561,-20,423,-4708,23,-343,-144,144
415,-7578,-12,391,-4705,23,-345,-160,141
416,-7563,-20,365,-4706,23,-341,-164,136
417,-7563,1,362,-4700,23,-346,-149,140
418,-7599,-10,365,-4704,23,-338,-148,142
419,-7585,-4,355,-4706,23,-339,-158,138
420,-7582,-8,377,-4701,23,-345,-157,137
421,-7574,-19,391,-4703,23,-355,-142,134
422,-7566,-10,383,-4704,23,-357,-143,144
423,-7569,6,387,-4703,23,-344,-158,140
424,-7590,15,391,-4710,23,-355,-145,133
425,-7583,-12,375,-4714,23,-355,-157,137
426,-7583,-6,370,-4708,23,-337,-161,139
427,-7586,-20,373,-4715,23,-337,-158,143
428,-7573,-19,379,-4703,23,-361,-158,124
429,-7585,-4,358,-4706,23,-347,-150,143
430,-7572,11,412,-4707,23,-344,-158,145
431,-7582,-16,367,-4707,23,-338,-150,137
432,-7585,-13,379,-4708,23,-339,-148,134
433,-7588,9,389,-4717,23,-345,-155,142
434,-7564,0,351,-4710,23,-347,-146,141
435,-7568,2,378,-4705,23,-356,-147,142
436,-7587,-14,363,-4708,23,-355,-167,143
437,-7591,-6,377,-4704,23,-352,-149,137
438,-7590,-9,358,-4711,23,-346,-156,141
439,-7564,-9,381,-4707,23,-340,-162,143
440,-7587,-14,349,-4705,23,-337,-158,141
441,-7576,-21,376,-4706,23,-351,-160,138
442,-7572,-18,387,-4715,23,-344,-158,135
443,-7561,-17,406,-4714,23,-334,-144,141
444,-7562,1,393,-4706,23,-339,-154,148
445,-7559,21,373,-4705,23,-351,-168,135
446,-7588,-2,364,-4710,23,-347,-154,135
447,-7600,22,364,-4709,23,-350,-161,137
448,-7586,11,357,-4702,23,-346,-154,145
449,-7574,-8,375,-4709,23,-349,-152,142
450,-7600,-23,389,-4707,23,-344,-150,144
451,-7600,10,341,-4708,23,-344,-151,139
452,-7580,-15,393,-4702,23,-336,-156,140
453,-7559,-17,362,-4703,23,-341,-163,140
454,-7567,-16,384,-4698,23,-350,-151,135
455,-7586,-7,385,-4702,23,-342,-155,141
456,-7601,-2,352,-4707,23,-346,-138,137
457,-7602,2,380,-4708,23,-343,-154,138
458,-7568,-6,386,-4707,23,-354,-151,138
459,-7570,-2,364,-4708,23,-357,-155,134
460,-7573,4,369,-4703,23,-344,-148,145
461,-7597,-15,396,-4705,23,-334,-151,137
462,-7575,-2,335,-4704,23,-348,-151,142
463,-7585,-32,362,-4709,23,-339,-147,138
464,-7602,-18,352,-4706,23,-343,-150,140
465,-7579,0,342,-4708,23,-350,-156,135
466,-7592,-4,364,-4706,23,-342,-150,138
467,-7592,-1,371,-4707,23,-341,-151,144
468,-7590,-11,380,-4711,23,-341,-156,146
469,-7584,1,374,-4703,23,-347,-156,136
470,-7595,2,354,-4702,23,-350,-162,133
471,-7575,-7,385,-4709,23,-350,-166,138
472,-7560,-17,416,-4704,23,-350,-165,134
473,-7562,-14,384,-4713,23,-348,-154,135
474,-7561,-6,361,-4711,23,-351,-154,142
475,-7586,5,388,-4710,23,-348,-152,134
476,-7558,2,357,-4710,23,-345,-156,136
477,-7573,-17,376,-4706,23,-340,-149,135
478,-7577,-30,391,-4714,23,-347,-147,143
479,-7583,-9,362,-4712,23,-350,-159,139
480,-7590,6,347,-4699,23,-348,-152,136
481,-7608,10,390,-4702,23,-342,-153,135
482,-7574,-1,365,-4708,23,-353,-145,128
483,-7592,6,387,-4707,23,-344,-141,134
484,-7576,-12,372,-4704,23,-346,-153,148
485,-7579,-12,397,-4704,23,-353,-154,134
486,-7584,1,362,-4697,23,-353,-154,136
487,-7611,-12,386,-4707,23,-346,-143,137
488,-7585,-14,348,-4710,23,-342,-154,145
489,-7566,-2,362,-4710,23,-355,-163,132
490,-7576,-2,350,-4702,23,-343,-152,140
491,-7583,-10,398,-4703,23,-356,-146,133
492,-7586,-2,353,-4700,23,-345,-149,142
493,-7591,11,386,-4709,23,-351,-158,138
494,-7559,3,373,-4704,23,-345,-149,140
495,-7580,6,365,-4703,23,-341,-156,146
496,-7585,1,333,-4699,23,-347,-154,138
497,-7586,-7,357,-4707,23,-349,-167,144
498,-7570,1,357,-4704,23,-343,-154,151
499,-7589,15,368,-4701,23,-349,-150,138
500,-7613,6,368,-4711,23,-346,-155,132
501,-7582,-8,385,-4709,23,-339,-150,142
502,-7581,-20,389,-4704,23,-352,-151,142
503,-7559,-30,392,-4701,23,-348,-141,144
504,-7568,11,371,-4704,23,-346,-150,135
505,-7586,2,405,-4697,23,-350,-149,132
506,-7583,-9,350,-4697,23,-342,-158,134
507,-7565,-7,368,-4705,23,-349,-156,136
508,-7578,7,391,-4707,23,-338,-146,138
509,-7578,-1,377,-4707,23,-342,-145,132
510,-7582,-4,400,-4706,23,-337,-147,145
511,-7571,5,411,-4701,23,-350,-148,149
512,-7583,-6,403,-4700,23,-354,-144,148
513,-7597,14,372,-4705,23,-349,-155,136
514,-7579,1,358,-4702,23,-342,-162,142
515,-7586,-9,343,-4701,23,-342,-149,147
516,-7568,11,375,-4706,23,-346,-147,142
517,-7563,11,384,-4707,23,-337,-157,140
518,-7561,-9,362,-4711,23,-338,-167,142
519,-7580,-6,341,-4700,23,-342,-156,133
520,-7585,-8,373,-4701,23,-343,-152,139
521,-7573,-15,369,-4698,23,-346,-140,145
522,-7586,-16,384,-4696,23,-338,-154,139
523,-7577,-1,381,-4708,23,-348,-153,141
524,-7564,6,369,-4695,23,-349,-157,134
525,-7564,3,366,-4692,23,-350,-159,140
526,-7589,13,355,-4700,23,-346,-151,136
527,-7597,-1,400,-4711,23,-351,-162,146
528,-7583,-11,358,-4706,23,-349,-151,136
529,-7589,-1,389,-4707,23,-340,-149,144
530,-7593,-6,363,-4706,23,-348,-152,140
531,-7576,17,375,-4711,23,-343,-147,138
532,-7605,2,375,-4699,23,-337,-152,137
533,-7579,-1,379,-4707,23,-337,-146,144
534,-7556,-28,353,-4699,23,-350,-165,136
535,-7589,-35,359,-4702,23,-348,-150,139
536,-7577,-22,382,-4707,23,-349,-157,136
537,-7567,-17,414,-4709,23,-351,-165,139
538,-7568,-32,356,-4706,23,-346,-156,134
539,-7571,13,361,-4698,23,-349,-145,145
540,-7576,-5,369,-4700,23,-349,-138,140
541,-7598,-6,357,-4704,23,-352,-146,145
542,-7580,-7,338,-4702,23,-343,-152,135
543,-7566,3,359,-4705,23,-345,-148,142
544,-7578,-30,368,-4714,23,-350,-147,136
545,-7579,-13,378,-4712,23,-359,-152,140
546,-7583,-14,373,-4702,23,-344,-152,140
547,-7590,-15,362,-4703,23,-347,-158,146
548,-7570,0,372,-4703,23,-339,-156,140
549,-7578,-11,379,-4707,23,-348,-159,147
550,-7581,-7,378,-4699,23,-355,-153,142
551,-7585,-8,346,-4708,23,-337,-143,134
552,-7591,-14,368,-4699,23,-348,-152,145
553,-7565,-1,385,-4708,23,-353,-155,146
554,-7559,-22,377,-4705,23,-344,-153,144
555,-7587,-12,397,-4700,23,-343,-155,142
556,-7581,-10,349,-4705,23,-346,-149,136
557,-7564,3,373,-4702,23,-353,-157,143
558,-7584,-2,373,-4701,23,-358,-154,140
559,-7587,-27,367,-4697,23,-348,-158,137
560,-7577,-17,387,-4702,23,-353,-150,135
561,-7587,-6,372,-4707,23,-353,-150,139
562,-7577,-15,376,-4707,23,-338,-156,145
563,-7568,-10,389,-4706,23,-348,-166,132
564,-7583,1,370,-4704,23,-348,-153,137
565,-7582,-15,360,-4705,23,-348,-156,127
566,-7572,2,370,-4700,23,-349,-161,146
567,-7566,-7,357,-4709,23,-358,-150,143
568,-7606,2,398,-4706,23,-341,-138,131
569,-7570,-14,376,-4701,23,-355,-151,137
570,-7587,-29,362,-4702,23,-347,-153,145
571,-7560,3,361,-4703,23,-348,-155,140
572,-7572,6,362,-4702,23,-353,-148,139
573,-7564,-1,380,-4701,23,-358,-147,150
574,-7567,0,365,-4703,23,-357,-149,147
575,-7569,-19,374,-4704,23,-354,-151,137
576,-7565,-1,354,-4705,23,-346,-156,143
577,-7564,-5,352,-4700,23,-351,-154,139
578,-7596,-6,375,-4705,23,-350,-159,144
579,-7566,-10,371,-4705,23,-349,-149,143
580,-7580,-3,408,-4701,23,-339,-153,143
581,-7560,-21,336,-4699,23,-346,-152,133
582,-7566,-20,361,-4708,23,-340,-153,138
583,-7564,-15,391,-4703,23,-350,-158,138
584,-7578,-3,367,-4709,23,-349,-161,146
585,-7575,-16,390,-4696,23,-351,-151,143
586,-7562,-10,350,-4706,23,-356,-142,137
587,-7568,-16,358,-4700,23,-350,-150,128
588,-7595,4,376,-4702,23,-347,-147,134
589,-7581,-8,394,-4703,23,-340,-150,141
590,-7578,-21,345,-4708,23,-351,-157,150
591,-7582,-5,371,-4697,23,-351,-155,136
592,-7595,6,403,-4701,23,-345,-160,139
593,-7559,-24,382,-4696,23,-352,-160,141
594,-7586,-10,342,-4697,23,-348,-164,139
595,-7582,-22,391,-4698,23,-351,-156,139
596,-7584,-26,357,-4700,23,-362,-148,144
597,-7589,-5,347,-4708,23,-345,-151,135
598,-7583,-31,385,-4700,23,-339,-146,140
599,-7579,-23,411,-4696,23,-363,-153,136
600,-7571,-5,355,-4696,23,-342,-145,132
601,-7575,3,390,-4702,23,-331,-152,137
602,-7565,-6,366,-4705,23,-341,-155,125
603,-7541,-1,378,-4707,23,-333,-147,142
604,-7574,-15,368,-4700,23,-345,-155,145
605,-7581,-13,347,-4707,23,-344,-165,133
606,-7574,2,394,-4710,23,-349,-159,140
607,-7583,-6,345,-4703,23,-355,-151,142
608,-7572,-22,372,-4711,23,-350,-151,146
609,-7589,-12,352,-4698,23,-347,-159,132
610,-7588,-10,346,-4707,23,-352,-150,147
611,-7581,4,384,-4706,23,-350,-153,143
612,-7566,-4,366,-4698,23,-349,-154,135
613,-7582,-4,394,-4705,23,-349,-162,133
614,-7583,2,380,-4703,23,-357,-154,142
615,-7557,0,360,-4706,23,-344,-150,137
616,-7582,-6,372,-4703,23,-346,-166,139
617,-7574,-5,343,-4709,23,-348,-145,146
618,-7592,11,351,-4706,23,-345,-155,142
619,-7596,-2,372,-4706,23,-342,-150,140
620,-7552,-24,326,-4709,23,-350,-160,152
621,-7565,2,360,-4698,23,-345,-160,149
622,-7563,6,384,-4700,23,-344,-155,142
623,-7565,-22,380,-4709,23,-344,-141,147
624,-7547,-10,347,-4700,23,-358,-151,139
625,-7579,1,364,-4702,23,-352,-146,141
626,-7570,11,372,-4699,23,-344,-147,146
627,-7568,-5,384,-4700,23,-347,-145,149
628,-7575,-10,371,-4702,23,-345,-158,139
629,-7574,-2,380,-4709,23,-346,-155,135
630,-7584,-13,378,-4695,23,-340,-147,138
631,-7612,-5,380,-4697,23,-342,-144,143
632,-7569,-16,385,-4708,23,-350,-156,138
633,-7579,-12,380,-4700,23,-338,-145,145
634,-7563,-8,386,-4693,23,-338,-151,139
635,-7586,4,402,-4698,23,-344,-158,146
636,-7579,5,382,-4706,23,-335,-144,143
637,-7554,-7,356,-4710,23,-343,-140,138
638,-7571,12,359,-4705,23,-344,-143,138
639,-7567,-4,332,-4699,23,-348,-151,139
640,-7577,-6,351,-4698,23,-352,-155,150
641,-7579,16,364,-4696,23,-339,-160,140
642,-7587,-5,361,-4700,23,-354,-150,141
643,-7583,-9,390,-4697,23,-353,-153,141
644,-7589,-21,379,-4701,23,-348,-160,133
645,-7598,-24,389,-4698,23,-355,-153,140
646,-7582,-7,352,-4699,23,-342,-155,161
647,-7588,-1,375,-4695,23,-349,-156,147
648,-7595,-11,340,-4699,23,-348,-151,144
649,-7564,7,387,-4690,23,-359,-153,142
650,-7553,15,379,-4697,23,-350,-155,145
651,-7591,-9,392,-4701,23,-351,-152,139
652,-7578,-15,387,-4709,23,-356,-156,139
653,-7584,-12,393,-4712,23,-341,-160,149
654,-7565,-10,382,-4703,23,-355,-156,136
655,-7579,-2,356,-4700,23,-346,-158,141
656,-7577,-11,353,-4706,23,-347,-149,140
657,-7574,-6,374,-4702,23,-341,-149,130
658,-7588,-3,358,-4697,23,-351,-153,138
659,-7574,0,400,-4695,23,-345,-154,137
660,-7594,-14,353,-4697,23,-342,-151,144
661,-7568,-22,349,-4700,23,-351,-155,135
662,-7565,-5,351,-4698,23,-344,-157,134
663,-7577,-8,395,-4699,23,-357,-155,140
664,-7576,-10,377,-4699,23,-358,-153,150
665,-7566,-26,380,-4697,23,-353,-158,131
666,-7576,0,354,-4702,23,-347,-153,133
667,-7599,10,362,-4698,23,-355,-148,141
668,-7572,-7,391,-4691,23,-346,-153,127
669,-7566,-23,354,-4698,23,-348,-142,139
670,-7563,3,394,-4695,23,-341,-153,133
671,-7571,4,394,-4697,23,-343,-144,142
672,-7586,2,376,-4705,23,-350,-160,142
673,-7599,-5,369,-4705,23,-343,-154,144
674,-7570,-11,383,-4699,23,-354,-149,141
675,-7574,8,355,-4699,23,-356,-148,146
676,-7576,-17,384,-4697,23,-354,-146,143
677,-7561,-7,337,-4699,23,-347,-144,134
678,-7583,12,342,-4703,23,-346,-156,140
679,-7565,-15,396,-4704,23,-339,-150,141
680,-7585,-15,357,-4698,23,-351,-145,133
681,-7591,-17,360,-4706,23,-339,-163,135
682,-7569,-5,397,-4701,23,-342,-152,146
683,-7591,32,362,-4698,23,-354,-153,142
684,-7599,-5,351,-4700,23,-350,-159,142
685,-7573,-1,386,-4706,23,-339,-151,131
686,-7577,-13,408,-4702,23,-335,-156,139
687,-7555,-31,385,-4697,23,-343,-156,132
688,-7586,-36,436,-4700,23,-349,-157,135
689,-7584,-13,358,-4697,23,-343,-145,137
690,-7580,-28,362,-4700,23,-349,-154,141
691,-7593,-5,337,-4705,23,-349,-153,134
692,-7574,2,397,-4692,23,-342,-151,139
693,-7570,17,399,-4699,23,-336,-152,138
694,-7590,0,381,-4700,23,-349,-150,140
695,-7596,-17,356,-4690,23,-344,-153,142
696,-7598,5,356,-4695,23,-352,-168,145
697,-7600,-7,353,-4701,23,-344,-145,143
698,-7583,-25,358,-4697,23,-351,-152,144
699,-7568,14,387,-4698,23,-345,-152,138
700,-7561,-12,366,-4695,23,-352,-152,132
701,-7575,-22,390,-4698,23,-345,-142,141
702,-7595,1,367,-4700,23,-339,-157,138
703,-7591,12,348,-4690,23,-356,-154,138
704,-7586,10,378,-4693,23,-350,-161,140
705,-7567,-12,417,-4705,23,-345,-147,145
706,-7560,-15,354,-4706,23,-355,-147,136
707,-7574,-7,407,-4699,23,-350,-162,136
708,-7583,-13,379,-4697,23,-351,-156,138
709,-7570,-2,377,-4697,23,-344,-146,138
710,-7574,-19,391,-4703,23,-342,-143,141
711,-7586,-9,400,-4706,23,-348,-143,141
712,-7585,-37,390,-4700,23,-359,-149,145
713,-7561,-20,389,-4695,23,-361,-155,135
714,-7594,-13,375,-4692,23,-351,-149,138
715,-7591,-13,375,-4706,23,-349,-160,146
716,-7586,2,332,-4698,23,-351,-156,141
717,-7564,-4,345,-4700,23,-336,-146,147
718,-7574,0,353,-4696,23,-335,-162,138
719,-7571,17,391,-4698,23,-346,-157,142
720,-7583,-20,379,-4700,23,-345,-143,139
721,-7559,-4,384,-4697,23,-346,-159,141
722,-7574,19,409,-4697,23,-357,-159,129
723,-7559,-8,393,-4698,23,-343,-142,135
724,-7577,0,356,-4704,23,-358,-150,136
725,-7579,-16,400,-4689,23,-351,-152,140
726,-7584,-11,392,-4702,23,-344,-151,139
727,-7577,12,402,-4696,23,-346,-153,148
728,-7576,2,403,-4694,23,-341,-153,131
729,-7579,-9,400,-4692,23,-347,-158,139
730,-7574,-14,383,-4699,23,-340,-149,129
731,-7604,-7,409,-4692,23,-350,-152,145
732,-7571,-10,397,-4696,23,-349,-157,140
733,-7599,1,393,-4698,23,-351,-149,138
734,-7582,-10,352,-4692,23,-339,-163,144
735,-7576,-7,364,-4692,23,-348,-151,141
736,-7569,1,409,-4699,23,-351,-159,134
737,-7567,-21,364,-4701,23,-348,-158,127
738,-7584,1,385,-4704,23,-354,-154,134
739,-7591,-4,352,-4698,23,-355,-154,145
740,-7601,-20,406,-4703,23,-345,-153,140
741,-7583,4,369,-4700,23,-349,-158,141
742,-7578,-1,357,-4704,23,-347,-156,143
743,-7586,-7,411,-4710,23,-355,-159,137
744,-7594,-20,352,-4701,23,-356,-167,140
745,-7576,14,365,-4699,23,-343,-148,143
746,-7556,7,386,-4695,23,-348,-155,137
747,-7566,-14,378,-4695,23,-348,-155,136
748,-7598,-10,365,-4692,23,-351,-152,138
749,-7573,-16,362,-4707,23,-344,-153,141
750,-7566,-13,369,-4700,23,-345,-154,139
751,-7580,1,376,-4694,23,-340,-160,142
752,-7579,7,353,-4695,23,-348,-154,140
753,-7597,14,379,-4703,23,-358,-148,145
754,-7587,21,345,-4698,23,-353,-146,135
755,-7586,9,364,-4695,23,-350,-163,144
756,-7575,-14,363,-4694,23,-347,-147,142
757,-7593,4,382,-4698,23,-340,-155,144
758,-7596,-26,352,-4697,23,-343,-152,146
759,-7586,11,401,-4699,23,-345,-147,140
760,-7599,25,379,-4697,23,-350,-149,134
761,-7558,-8,390,-4694,23,-355,-153,143
762,-7552,-5,371,-4698,23,-350,-160,144
763,-7587,11,410,-4699,23,-346,-152,141
764,-7590,-2,379,-4695,23,-347,-148,131
765,-7601,-5,380,-4696,23,-341,-160,142
766,-7582,8,380,-4701,23,-350,-156,142
767,-7568,-5,352,-4701,23,-346,-154,131
768,-7578,-7,369,-4693,23,-354,-156,133
769,-7587,-19,399,-4702,23,-344,-153,142
770,-7571,-17,392,-4694,23,-360,-151,138
771,-7570,1,394,-4703,23,-350,-154,141
772,-7556,-12,390,-4700,23,-353,-158,135
773,-7581,-26,388,-4703,23,-354,-154,140
774,-7581,-25,397,-4694,23,-346,-158,141
775,-7573,-6,375,-4705,23,-341,-154,141
776,-7563,-21,372,-4701,23,-343,-157,141
777,-7599,-12,368,-4703,23,-353,-160,143
778,-7579,-8,376,-4692,23,-358,-145,142
779,-7590,-15,372,-4696,23,-343,-145,139
780,-7553,-7,402,-4688,23,-343,-161,138
781,-7574,-13,383,-4698,23,-352,-163,136
782,-7603,11,362,-4693,23,-352,-158,135
783,-7587,3,359,-4701,23,-345,-147,144
784,-7559,-4,381,-4702,23,-339,-164,149
785,-7590,-16,364,-4705,23,-354,-154,132
786,-7574,0,372,-4687,23,-342,-154,136
787,-7570,-4,383,-4688,23,-340,-159,132
788,-7584,-22,391,-4699,23,-345,-160,143
789,-7580,-4,354,-4699,23,-342,-151,135
790,-7600,-28,366,-4693,23,-355,-150,145
791,-7568,-13,389,-4693,23,-358,-154,135
792,-7581,-27,375,-4698,23,-347,-144,134
793,-7602,-3,364,-4698,23,-341,-155,139
794,-7578,1,389,-4701,23,-354,-153,143
795,-7573,-4,386,-4695,23,-355,-163,135
796,-7569,-8,348,-4695,23,-339,-151,137
797,-7559,-16,389,-4705,23,-358,-146,145
798,-7562,-3,376,-4696,23,-344,-157,142
799,-7582,5,354,-4693,23,-340,-154,135
800,-7586,-5,392,-4699,23,-338,-148,135
801,-7596,0,377,-4698,23,-340,-153,138
802,-7599,13,361,-4700,23,-344,-157,146
803,-7592,-1,376,-4699,23,-350,-161,138
804,-7556,-23,334,-4699,23,-333,-151,135
805,-7573,-17,369,-4698,23,-355,-144,132
806,-7580,-5,384,-4690,23,-341,-156,140
807,-7596,-33,368,-4699,23,-349,-155,135
808,-7573,-4,386,-4695,23,-345,-152,150
809,-7576,-4,396,-4697,23,-344,-153,145
810,-7591,-22,374,-4696,23,-353,-144,151
811,-7587,4,409,-4697,23,-341,-150,147
812,-7566,-7,366,-4695,23,-339,-156,144
813,-7577,-5,387,-4704,23,-347,-154,139
814,-7578,-12,396,-4700,23,-347,-153,138
815,-7576,1,369,-4697,23,-336,-155,145
816,-7574,-11,366,-4701,23,-335,-156,131
817,-7567,-9,402,-4695,23,-354,-148,131
818,-7567,15,376,-4695,23,-352,-140,136
819,-7594,22,374,-4693,23,-344,-145,134
820,-7574,7,397,-4695,23,-358,-149,140
821,-7553,-13,402,-4703,23,-349,-158,143
822,-7575,-8,369,-4710,23,-341,-140,137
823,-7577,6,361,-4702,23,-350,-158,145
824,-7584,14,348,-4696,23,-357,-147,145
825,-7574,-18,357,-4694,23,-355,-154,147
826,-7583,-23,383,-4702,23,-350,-146,143
827,-7565,11,363,-4699,23,-351,-157,140
828,-7582,28,379,-4689,23,-354,-161,139
829,-7560,-6,362,-4693,23,-356,-154,143
830,-7588,-3,377,-4691,23,-351,-154,139
831,-7577,0,367,-4697,23,-346,-153,144
832,-7582,-20,389,-4697,23,-353,-166,138
833,-7582,-13,368,-4699,23,-356,-166,143
834,-7580,-23,357,-4705,23,-348,-157,129
835,-7555,-12,409,-4698,23,-343,-159,132
836,-7552,-29,392,-4694,23,-350,-148,138
837,-7583,-21,353,-4698,23,-354,-157,135
838,-7581,-9,382,-4694,23,-341,-163,139
839,-7585,-6,377,-4701,23,-349,-157,140
840,-7597,3,379,-4693,23,-346,-137,135
841,-7572,0,366,-4695,23,-342,-149,144
842,-7586,-9,382,-4700,23,-352,-154,135
843,-7603,4,361,-4692,23,-352,-155,142
844,-7587,8,373,-4701,23,-338,-144,139
845,-7587,19,379,-4694,23,-341,-152,146
846,-7601,-12,379,-4693,23,-344,-160,145
847,-7565,-2,336,-4702,23,-349,-146,140
848,-7582,-9,377,-4702,23,-346,-149,130
849,-7584,10,394,-4692,23,-348,-155,142
850,-7579,-5,376,-4703,23,-355,-148,135
851,-7554,-7,376,-4695,23,-349,-144,142
852,-7580,-20,359,-4692,23,-352,-146,144
853,-7584,1,348,-4700,23,-344,-153,142
854,-7585,6,345,-4693,23,-343,-146,139
855,-7573,18,356,-4699,23,-339,-148,142
856,-7574,-10,391,-4697,23,-345,-149,132
857,-7584,11,367,-4698,23,-353,-145,133
858,-7575,-17,370,-4702,23,-355,-150,144
859,-7598,-4,373,-4700,23,-339,-143,142
860,-7579,-26,365,-4709,23,-352,-148,143
861,-7591,-11,367,-4706,23,-352,-150,136
862,-7573,-34,379,-4704,23,-348,-161,141
863,-7584,-12,326,-4698,23,-348,-147,138
864,-7588,25,381,-4698,23,-340,-148,137
865,-7586,-10,362,-4694,23,-335,-150,135
866,-7577,-6,357,-4701,23,-346,-150,141
867,-7568,-20,387,-4701,23,-350,-149,147
868,-7561,-12,419,-4692,23,-349,-151,137
869,-7574,-10,362,-4704,23,-351,-156,138
870,-7573,-3,344,-4706,23,-351,-155,143
871,-7579,0,377,-4694,23,-354,-155,136
872,-7593,5,401,-4696,23,-343,-140,144
873,-7591,3,377,-4702,23,-353,-157,145
874,-7566,-4,349,-4698,23,-352,-151,142
875,-7578,-37,375,-4697,23,-349,-150,132
876,-7570,-15,364,-4704,23,-355,-157,142
877,-7559,12,382,-4697,23,-334,-166,144
878,-7605,15,365,-4702,23,-352,-141,134
879,-7575,21,354,-4702,23,-344,-154,135
880,-7589,-8,388,-4698,23,-343,-156,141
881,-7582,21,356,-4699,23,-335,-149,139
882,-7586,-15,372,-4694,23,-348,-151,139
883,-7573,2,395,-4696,23,-348,-150,136
884,-7593,-24,379,-4700,23,-348,-146,146
885,-7569,-9,372,-4695,23,-347,-147,143
886,-7585,-11,340,-4695,23,-353,-151,133
887,-7580,-19,382,-4695,23,-350,-159,138
888,-7568,-20,409,-4696,23,-354,-142,134
889,-7589,-16,375,-4702,23,-347,-160,132
890,-7589,-12,365,-4701,23,-337,-156,133
891,-7590,-6,334,-4690,23,-354,-155,139
892,-7580,-19,355,-4697,23,-352,-147,144
893,-7555,-19,383,-4694,23,-340,-154,143
894,-7573,-8,379,-4703,23,-343,-147,140
895,-7582,14,376,-4702,23,-350,-161,141
896,-7568,-12,355,-4696,23,-345,-152,140
897,-7578,-21,400,-4696,23,-339,-146,141
898,-7597,-2,377,-4699,23,-348,-148,140
899,-7580,-12,380,-4692,23,-340,-149,141
900,-7578,-11,348,-4693,23,-355,-147,126
901,-7575,4,358,-4696,23,-344,-154,141
902,-7600,-3,381,-4698,23,-349,-150,130
903,-7605,7,373,-4699,23,-347,-153,139
904,-7573,-23,355,-4698,23,-340,-146,139
905,-7581,-13,376,-4702,23,-348,-156,138
906,-7574,-13,353,-4700,23,-354,-155,130
907,-7584,-21,374,-4689,23,-350,-145,142
908,-7579,-23,376,-4691,23,-356,-146,140
909,-7597,12,375,-4699,23,-350,-150,131
910,-7595,-19,404,-4704,23,-337,-150,135
911,-7583,-27,415,-4701,23,-340,-147,144
912,-7566,-8,375,-4694,23,-348,-154,147
913,-7575,-21,363,-4696,23,-361,-153,145
914,-7564,-11,383,-4695,23,-342,-154,142
915,-7586,9,406,-4700,23,-350,-141,137
916,-7577,-2,364,-4691,23,-337,-141,143
917,-7576,-17,402,-4705,23,-348,-148,148
918,-7591,-8,392,-4694,23,-354,-148,141
919,-7572,4,370,-4693,23,-346,-144,139
920,-7583,-5,388,-4699,23,-338,-150,139
921,-7571,-33,349,-4698,23,-344,-152,146
922,-7578,0,364,-4692,23,-340,-158,143
923,-7575,-10,418,-4700,23,-335,-152,135
924,-7565,-22,372,-4696,23,-353,-158,134
925,-7562,-13,350,-4693,23,-342,-141,135
926,-7593,-21,358,-4696,23,-341,-153,137
927,-7573,-7,410,-4697,23,-343,-139,143
928,-7581,23,365,-4693,23,-340,-151,142
929,-7577,-12,331,-4702,23,-352,-154,129
930,-7571,4,328,-4697,23,-344,-158,134
931,-7582,-9,343,-4702,23,-355,-153,136
932,-7573,-4,378,-4699,23,-349,-147,136
933,-7583,-21,343,-4697,23,-345,-152,139
934,-7569,-14,383,-4696,23,-351,-143,141
935,-7580,-20,427,-4687,23,-338,-148,139
936,-7596,-14,349,-4702,23,-344,-159,144
937,-7577,10,399,-4699,23,-352,-160,128
938,-7585,-11,344,-4699,23,-353,-151,138
939,-7592,-15,362,-4703,23,-355,-148,138
940,-7584,-2,378,-4701,23,-352,-154,139
941,-7605,-4,384,-4694,23,-345,-141,140
942,-7561,-44,367,-4700,23,-344,-152,134
943,-7551,-21,343,-4693,23,-342,-153,134
944,-7579,2,374,-4689,23,-342,-155,142
945,-7570,6,365,-4699,23,-342,-152,142
946,-7564,4,384,-4700,23,-348,-154,132
947,-7600,23,394,-4708,23,-350,-156,139
948,-7593,-10,407,-4697,23,-347,-147,136
949,-7574,3,398,-4691,23,-347,-154,135
950,-7561,0,386,-4698,23,-345,-146,139
951,-7571,6,349,-4699,23,-345,-154,135
952,-7573,-7,374,-4698,23,-349,-151,145
953,-7568,6,403,-4695,23,-349,-153,139
954,-7560,6,368,-4698,23,-342,-159,135
955,-7542,-11,399,-4691,23,-342,-160,136
956,-7576,-15,379,-4692,23,-347,-156,140
957,-7598,-8,370,-4694,23,-338,-140,135
958,-7567,2,392,-4698,23,-339,-148,144
959,-7578,-23,361,-4700,23,-347,-159,135
960,-7554,-4,375,-4686,23,-345,-153,147
961,-7569,29,387,-4691,23,-336,-155,130
962,-7581,8,360,-4695,23,-343,-159,138
963,-7577,3,361,-4697,23,-342,-163,138
964,-7563,-39,394,-4693,23,-346,-144,147
965,-7576,-15,338,-4697,23,-358,-159,138
966,-7584,3,368,-4693,23,-354,-156,134
967,-7569,-15,362,-4694,23,-350,-155,132
968,-7570,-6,391,-4689,23,-348,-161,148
969,-7591,-11,352,-4693,23,-345,-144,144
970,-7557,0,351,-4697,23,-344,-164,140
971,-7553,8,377,-4694,23,-350,-159,132
972,-7572,-5,356,-4694,23,-354,-144,146
973,-7582,-3,354,-4699,23,-355,-152,144
974,-7568,12,357,-4697,23,-349,-162,146
975,-7562,-6,347,-4693,23,-352,-150,140
976,-7569,-14,384,-4699,23,-353,-148,137
977,-7564,6,383,-4695,23,-348,-153,128
978,-7586,15,378,-4696,23,-352,-159,141
979,-7602,-13,373,-4698,23,-349,-169,135
980,-7596,2,376,-4698,23,-342,-154,138
981,-7582,-6,388,-4703,23,-346,-162,141
982,-7578,11,373,-4692,23,-343,-155,138
983,-7559,19,351,-4698,23,-354,-155,143
984,-7574,-9,397,-4699,23,-350,-151,134
985,-7581,-7,366,-4693,23,-352,-148,129
986,-7563,-10,370,-4700,23,-351,-147,131
987,-7564,-10,357,-4698,23,-351,-149,132
988,-7577,7,350,-4693,23,-342,-157,135
989,-7558,-10,380,-4693,23,-344,-154,141
990,-7561,-9,351,-4698,23,-337,-150,138
991,-7576,1,374,-4705,23,-336,-151,135
992,-7585,23,346,-4709,23,-345,-151,137
993,-7562,-24,380,-4696,23,-350,-156,133
994,-7560,-19,391,-4707,23,-343,-146,142
995,-7576,-5,390,-4702,23,-348,-153,137
996,-7589,-12,390,-4696,23,-334,-147,143
997,-7599,-8,389,-4700,23,-333,-164,144
998,-7569,-9,371,-4702,23,-348,-146,138
