,acc_X,acc_Y,acc_Z,temp,tempC,gyr_X,gyr_Y,gyr_Z
0,-15162,0,734,-4853,22,-44,-19,17
1,-15136,32,806,-4849,22,-44,-20,17
2,-15168,-22,756,-4852,22,-44,-20,17
3,-15194,-44,784,-4849,22,-43,-19,17
4,-15138,-18,818,-4851,22,-44,-19,18
5,-15138,4,772,-4852,22,-43,-20,16
6,-15206,24,726,-4851,22,-42,-20,17
7,-15150,-50,758,-4851,22,-41,-20,17
8,-15102,2,702,-4852,22,-44,-19,17
9,-15156,-16,804,-4843,22,-43,-20,16
10,-15144,-84,806,-4841,22,-43,-20,17
11,-15116,-40,858,-4849,22,-42,-18,16
12,-15156,64,722,-4850,22,-45,-21,17
13,-15136,-30,776,-4850,22,-43,-17,18
14,-15106,-62,820,-4842,22,-43,-20,15
15,-15132,-12,684,-4842,22,-44,-20,16
16,-15092,2,764,-4851,22,-43,-18,17
17,-15178,0,746,-4835,22,-43,-19,15
18,-15090,-42,806,-4838,22,-43,-20,17
19,-15218,-4,682,-4844,22,-44,-19,19
20,-15156,-6,652,-4842,22,-44,-20,16
21,-15166,-10,742,-4846,22,-44,-19,17
22,-15088,-22,814,-4840,22,-42,-20,18
23,-15106,-50,774,-4848,22,-44,-20,17
24,-15126,0,748,-4843,22,-42,-20,16
25,-15162,52,724,-4847,22,-43,-20,16
26,-15120,26,772,-4855,22,-43,-19,17
27,-15152,-22,870,-4836,22,-45,-20,17
28,-15140,-46,714,-4833,22,-44,-21,15
29,-15152,38,744,-4846,22,-44,-20,17
30,-15194,-40,744,-4846,22,-45,-18,17
31,-15196,-54,762,-4837,22,-43,-20,18
32,-15084,18,728,-4843,22,-44,-20,17
33,-15112,-82,736,-4837,22,-43,-19,18
34,-15144,-78,794,-4843,22,-43,-18,18
35,-15172,-66,768,-4822,22,-44,-21,18
36,-15164,-28,718,-4827,22,-42,-18,18
37,-15172,12,816,-4831,22,-44,-20,16
38,-15156,-12,754,-4847,22,-42,-22,18
39,-15164,0,754,-4842,22,-45,-18,16
40,-15168,-38,738,-4831,22,-44,-17,17
41,-15154,40,742,-4829,22,-43,-21,16
42,-15144,26,802,-4831,22,-45,-19,16
43,-15116,6,820,-4838,22,-43,-18,18
44,-15188,-18,778,-4838,22,-44,-20,17
45,-15180,-42,752,-4832,22,-43,-19,17
46,-15104,-38,698,-4823,22,-44,-20,18
47,-15126,-34,734,-4835,22,-43,-19,15
48,-15166,-40,770,-4833,22,-43,-19,16
49,-15136,-18,702,-4832,22,-41,-20,16
50,-15142,-82,696,-4835,22,-43,-20,19
51,-15204,-42,792,-4827,22,-43,-20,17
52,-15068,-76,704,-4833,22,-45,-20,17
53,-15166,64,776,-4835,22,-45,-21,18
54,-15182,-24,742,-4831,22,-43,-18,17
55,-15148,-20,756,-4828,22,-43,-18,17
56,-15124,-18,726,-4830,22,-45,-21,17
57,-15132,32,772,-4832,22,-43,-20,17
58,-15102,-72,778,-4822,22,-44,-18,16
59,-15192,6,724,-4836,22,-42,-19,17
60,-15116,-56,686,-4835,22,-44,-21,18
61,-15146,-40,758,-4816,22,-43,-20,17
62,-15142,16,720,-4838,22,-43,-19,17
63,-15168,-40,672,-4830,22,-43,-18,16
64,-15144,18,762,-4829,22,-43,-20,18
65,-15076,-12,718,-4832,22,-44,-20,16
66,-15168,-6,676,-4822,22,-43,-20,17
67,-15174,-58,720,-4832,22,-43,-19,16
68,-15138,-18,654,-4833,22,-44,-20,16
69,-15140,-14,792,-4830,22,-43,-20,17
70,-15170,4,744,-4827,22,-43,-19,17
71,-15132,-22,762,-4822,22,-44,-19,18
72,-15190,32,750,-4829,22,-42,-22,17
73,-15128,-42,764,-4834,22,-44,-22,17
74,-15200,-34,824,-4830,22,-44,-20,17
75,-15120,-6,770,-4824,22,-45,-20,19
76,-15186,-32,816,-4826,22,-42,-20,18
77,-15132,6,750,-4826,22,-43,-19,18
78,-15130,-6,842,-4823,22,-44,-18,15
79,-15134,26,698,-4821,22,-44,-21,17
80,-15166,-26,720,-4825,22,-43,-18,16
81,-15152,-46,696,-4813,22,-44,-19,17
82,-15110,-30,758,-4819,22,-45,-17,17
83,-15210,-64,756,-4834,22,-44,-18,18
84,-15064,-20,682,-4816,22,-43,-18,17
85,-15122,-4,816,-4834,22,-44,-19,16
86,-15112,-14,736,-4824,22,-44,-20,17
87,-15164,-2,716,-4813,22,-44,-19,18
88,-15188,-8,840,-4811,22,-46,-20,16
89,-15178,16,708,-4815,22,-45,-20,16
90,-15180,-22,680,-4821,22,-42,-19,17
91,-15160,-50,710,-4828,22,-43,-18,17
92,-15130,20,780,-4819,22,-44,-20,16
93,-15156,-16,666,-4829,22,-43,-19,15
94,-15134,-26,766,-4825,22,-44,-20,17
95,-15094,-2,792,-4811,22,-44,-18,16
96,-15188,-64,718,-4819,22,-44,-21,18
97,-15200,-32,772,-4813,22,-43,-20,17
98,-15134,-16,724,-4820,22,-44,-20,17
99,-15144,-8,794,-4819,22,-43,-18,16
100,-15142,4,734,-4812,22,-42,-18,17
101,-15150,-60,720,-4813,22,-44,-19,16
102,-15156,58,724,-4815,22,-43,-18,18
103,-15154,10,662,-4821,22,-44,-21,18
104,-15110,-10,746,-4824,22,-41,-18,16
105,-15182,6,710,-4820,22,-43,-20,16
106,-15152,38,688,-4806,22,-44,-19,15
107,-15142,-20,780,-4811,22,-44,-19,15
108,-15160,-36,760,-4818,22,-43,-19,17
109,-15142,-22,686,-4812,22,-43,-21,16
110,-15212,-44,778,-4815,22,-43,-20,15
111,-15100,2,716,-4821,22,-45,-19,17
112,-15180,6,714,-4813,22,-43,-20,16
113,-15144,36,750,-4820,22,-43,-20,17
114,-15116,-36,662,-4818,22,-44,-20,17
115,-15150,-40,788,-4813,22,-44,-20,16
116,-15104,-10,748,-4808,22,-44,-20,17
117,-15126,-52,816,-4815,22,-43,-20,16
118,-15158,14,730,-4812,22,-41,-19,17
119,-15218,32,768,-4814,22,-45,-19,17
120,-15094,-6,794,-4815,22,-43,-19,15
121,-15164,44,674,-4809,22,-44,-20,17
122,-15172,4,734,-4815,22,-43,-19,17
123,-15170,-12,680,-4823,22,-44,-19,17
124,-15120,20,770,-4808,22,-44,-20,17
125,-15154,8,712,-4821,22,-43,-19,15
126,-15136,-18,760,-4811,22,-44,-19,17
127,-15202,4,742,-4812,22,-43,-18,16
128,-15174,12,716,-4814,22,-44,-21,16
129,-15158,-22,696,-4813,22,-46,-20,17
130,-15102,-76,702,-4808,22,-43,-20,17
131,-15100,-16,810,-4805,22,-43,-20,16
132,-15120,-28,662,-4809,22,-44,-20,15
133,-15152,-80,626,-4815,22,-43,-19,17
134,-15172,-34,622,-4818,22,-44,-21,16
135,-15128,-64,746,-4791,22,-45,-20,16
136,-15170,-50,732,-4814,22,-44,-19,17
137,-15158,-58,730,-4810,22,-44,-20,17
138,-15158,-8,808,-4807,22,-43,-20,15
139,-15134,-24,782,-4801,22,-44,-20,16
140,-15182,-92,762,-4822,22,-42,-18,17
141,-15152,-16,718,-4799,22,-43,-20,18
142,-15174,-72,670,-4801,22,-43,-19,16
143,-15140,20,632,-4809,22,-43,-21,17
144,-15126,-18,770,-4808,22,-44,-20,17
145,-15162,-28,704,-4797,22,-43,-20,16
146,-15082,-52,736,-4808,22,-43,-20,16
147,-15182,24,728,-4810,22,-42,-20,18
148,-15136,12,666,-4803,22,-43,-19,16
149,-15166,28,754,-4802,22,-42,-20,18
150,-15112,4,742,-4792,22,-43,-19,17
151,-15152,42,698,-4802,22,-45,-18,16
152,-15148,-2,770,-4807,22,-43,-19,17
153,-15152,56,762,-4800,22,-42,-18,17
154,-15172,12,676,-4808,22,-42,-19,17
155,-15156,-28,746,-4802,22,-42,-19,18
156,-15122,-26,682,-4800,22,-44,-20,17
157,-15132,-28,850,-4804,22,-43,-20,15
158,-15180,-16,746,-4788,22,-43,-20,18
159,-15144,-10,800,-4807,22,-44,-20,16
160,-15148,14,712,-4806,22,-43,-20,18
161,-15136,-28,754,-4793,22,-42,-21,19
162,-15174,-38,776,-4816,22,-42,-22,17
163,-15148,-14,758,-4812,22,-43,-19,18
164,-15146,-40,744,-4804,22,-43,-19,18
165,-15146,-68,804,-4812,22,-43,-19,16
166,-15138,-32,762,-4810,22,-43,-18,15
167,-15160,-20,748,-4804,22,-42,-21,18
168,-15154,22,706,-4805,22,-44,-20,17
169,-15136,16,780,-4800,22,-44,-21,17
170,-15156,32,812,-4798,22,-42,-20,17
171,-15202,44,772,-4809,22,-43,-19,16
172,-15158,34,788,-4809,22,-43,-18,17
173,-15162,8,840,-4803,22,-45,-19,18
174,-15084,22,676,-4797,22,-45,-19,16
175,-15160,-28,662,-4807,22,-44,-19,16
176,-15148,-28,740,-4801,22,-44,-18,17
177,-15140,48,714,-4803,22,-42,-20,17
178,-15162,-24,692,-4800,22,-43,-19,17
179,-15108,-52,754,-4808,22,-44,-20,17
180,-15142,-16,762,-4807,22,-43,-19,16
181,-15126,58,738,-4800,22,-43,-19,17
182,-15144,-20,816,-4793,22,-43,-19,15
183,-15168,-22,784,-4808,22,-44,-20,17
184,-15124,20,686,-4810,22,-41,-20,17
185,-15108,-2,782,-4801,22,-44,-19,18
186,-15138,-22,764,-4797,22,-44,-19,17
187,-15148,18,776,-4805,22,-44,-20,16
188,-15158,-2,798,-4805,22,-44,-19,17
189,-15108,-14,832,-4797,22,-44,-18,17
190,-15204,10,722,-4796,22,-43,-21,16
191,-15146,8,720,-4794,22,-43,-19,17
192,-15176,-20,752,-4802,22,-44,-19,16
193,-15154,4,700,-4808,22,-43,-19,16
194,-15096,-40,754,-4811,22,-42,-19,17
195,-15118,-2,682,-4804,22,-43,-20,16
196,-15234,14,808,-4799,22,-43,-21,16
197,-15176,32,788,-4803,22,-44,-19,17
198,-15172,6,684,-4802,22,-42,-19,16
199,-15146,-40,754,-4801,22,-44,-20,16
200,-15200,-32,680,-4797,22,-43,-19,16
201,-15136,-14,694,-4783,22,-44,-20,17
202,-15188,24,752,-4800,22,-43,-19,17
203,-15160,-26,726,-4798,22,-44,-19,18
204,-15118,-48,808,-4787,22,-44,-21,18
205,-15128,40,774,-4801,22,-44,-20,17
206,-15150,-14,728,-4796,22,-44,-21,16
207,-15112,-40,786,-4798,22,-44,-21,17
208,-15124,-2,852,-4788,22,-43,-19,15
209,-15176,-44,760,-4803,22,-45,-18,18
210,-15096,18,862,-4795,22,-43,-19,16
211,-15190,-2,732,-4801,22,-42,-19,16
212,-15060,-28,684,-4797,22,-44,-18,17
213,-15182,30,746,-4785,22,-44,-21,17
214,-15170,8,702,-4792,22,-44,-19,16
215,-15158,-18,688,-4807,22,-43,-18,17
216,-15150,-24,788,-4799,22,-42,-19,15
217,-15148,-32,710,-4801,22,-43,-19,17
218,-15248,-20,828,-4803,22,-44,-20,17
219,-15136,-16,750,-4800,22,-43,-20,18
220,-15122,78,768,-4783,22,-41,-20,16
221,-15188,-36,800,-4789,22,-44,-20,16
222,-15106,20,784,-4798,22,-41,-21,18
223,-15154,-60,800,-4794,22,-44,-20,18
224,-15172,-18,736,-4790,22,-44,-19,16
225,-15176,-18,828,-4791,22,-44,-19,16
226,-15156,-22,652,-4798,22,-45,-18,18
227,-15202,-40,768,-4794,22,-44,-18,16
228,-15138,-100,730,-4799,22,-44,-19,16
229,-15148,-58,660,-4785,22,-44,-18,17
230,-15126,12,760,-4803,22,-44,-20,18
231,-15166,-40,644,-4797,22,-42,-20,16
232,-15166,-46,720,-4805,22,-43,-19,18
233,-15164,-40,604,-4795,22,-43,-22,16
234,-15154,-2,808,-4798,22,-42,-21,17
235,-15140,24,786,-4806,22,-43,-20,17
236,-15168,-32,790,-4800,22,-42,-19,16
237,-15160,28,690,-4805,22,-43,-19,16
238,-15144,-2,780,-4800,22,-44,-17,16
239,-15126,-22,698,-4814,22,-44,-18,18
240,-15178,-14,686,-4804,22,-42,-21,18
241,-15228,-58,744,-4785,22,-45,-18,18
242,-15194,66,752,-4794,22,-45,-20,17
243,-15166,16,806,-4795,22,-43,-19,16
244,-15218,-26,832,-4797,22,-44,-21,19
245,-15168,-24,794,-4790,22,-46,-21,16
246,-15178,-6,736,-4791,22,-43,-18,18
247,-15072,-22,792,-4794,22,-42,-19,17
248,-15168,-16,746,-4798,22,-43,-20,17
249,-15158,12,746,-4794,22,-44,-19,17
250,-15130,-18,722,-4790,22,-42,-17,18
251,-15168,6,764,-4791,22,-44,-20,16
252,-15196,20,788,-4789,22,-44,-19,16
253,-15148,10,706,-4804,22,-44,-19,17
254,-15076,-12,800,-4787,22,-43,-19,16
255,-15150,46,690,-4785,22,-43,-20,17
256,-15130,-22,726,-4796,22,-44,-21,16
257,-15122,-4,676,-4784,22,-43,-19,17
258,-15160,0,832,-4782,22,-43,-20,17
259,-15190,22,750,-4796,22,-44,-20,17
260,-15228,-20,786,-4786,22,-43,-21,16
261,-15144,4,784,-4791,22,-42,-20,17
262,-15146,36,862,-4790,22,-40,-19,16
263,-15178,-4,662,-4796,22,-44,-19,16
264,-15106,2,756,-4798,22,-44,-18,15
265,-15156,0,762,-4791,22,-43,-20,18
266,-15212,10,778,-4789,22,-44,-19,16
267,-15144,-22,712,-4796,22,-44,-18,19
268,-15210,2,738,-4792,22,-42,-19,15
269,-15158,-38,730,-4794,22,-42,-20,16
270,-15200,-38,690,-4796,22,-44,-19,17
271,-15138,-12,762,-4797,22,-45,-17,17
272,-15156,24,828,-4795,22,-44,-22,18
273,-15118,30,818,-4785,22,-42,-19,16
274,-15184,-76,762,-4794,22,-45,-18,16
275,-15096,-34,696,-4791,22,-44,-20,17
276,-15114,40,852,-4799,22,-44,-21,17
277,-15140,30,678,-4786,22,-42,-18,16
278,-15198,16,786,-4793,22,-44,-19,16
279,-15204,8,730,-4796,22,-43,-20,16
280,-15194,-32,826,-4786,22,-44,-19,17
281,-15242,0,698,-4792,22,-44,-22,16
282,-15172,-62,738,-4783,22,-44,-20,16
283,-15180,-72,664,-4782,22,-43,-20,18
284,-15144,20,706,-4784,22,-38,-20,17
285,-15158,-28,732,-4797,22,-44,-17,18
286,-15166,-22,818,-4803,22,-46,-19,16
287,-15148,22,782,-4794,22,-43,-20,17
288,-15202,-46,744,-4791,22,-44,-19,17
289,-15108,10,736,-4791,22,-44,-19,18
290,-15174,-40,674,-4799,22,-44,-19,18
291,-15166,-22,714,-4792,22,-44,-21,17
292,-15168,-56,654,-4785,22,-44,-20,17
293,-15148,-44,710,-4795,22,-43,-18,17
294,-15096,-12,766,-4788,22,-44,-20,17
295,-15184,-28,768,-4791,22,-43,-20,15
296,-15138,-70,640,-4793,22,-44,-19,18
297,-15120,-38,786,-4790,22,-44,-20,15
298,-15124,-18,754,-4779,22,-43,-19,17
299,-15138,-56,702,-4792,22,-42,-19,16
300,-15184,50,848,-4788,22,-45,-23,18
301,-15156,-76,750,-4785,22,-43,-20,16
302,-15106,-26,708,-4788,22,-43,-20,16
303,-15148,-24,696,-4786,22,-44,-19,17
304,-15120,-64,818,-4795,22,-43,-20,17
305,-15208,-62,758,-4790,22,-43,-20,17
306,-15174,-14,902,-4800,22,-43,-18,19
307,-15158,64,720,-4784,22,-44,-19,15
308,-15194,16,722,-4800,22,-44,-19,15
309,-15214,-32,736,-4787,22,-42,-21,17
310,-15202,34,704,-4787,22,-46,-21,18
311,-15222,-12,732,-4795,22,-45,-21,18
312,-15144,-14,784,-4794,22,-43,-18,16
313,-15158,10,694,-4788,22,-44,-21,17
314,-15146,-26,752,-4789,22,-44,-20,16
315,-15158,-34,732,-4795,22,-43,-19,16
316,-15122,18,762,-4798,22,-45,-19,17
317,-15136,-30,742,-4789,22,-41,-21,17
318,-15136,0,898,-4788,22,-44,-21,18
319,-15144,-32,794,-4793,22,-42,-19,18
320,-15142,-2,702,-4780,22,-44,-21,17
321,-15176,-4,754,-4792,22,-44,-19,15
322,-15144,18,742,-4779,22,-45,-20,16
323,-15188,24,792,-4785,22,-45,-17,16
324,-15156,16,760,-4784,22,-43,-20,17
325,-15132,-8,834,-4791,22,-43,-20,18
326,-15192,-10,750,-4786,22,-43,-21,16
327,-15158,-64,780,-4786,22,-42,-21,17
328,-15176,-32,722,-4785,22,-43,-20,16
329,-15172,-88,812,-4790,22,-43,-21,17
330,-15226,-4,704,-4794,22,-46,-21,15
331,-15166,-40,730,-4792,22,-43,-20,17
332,-15158,4,702,-4786,22,-43,-20,17
333,-15166,-38,718,-4789,22,-44,-19,17
334,-15128,-44,784,-4793,22,-44,-20,18
335,-15084,28,734,-4793,22,-43,-19,16
336,-15126,-4,800,-4791,22,-44,-19,17
337,-15144,-34,782,-4771,22,-45,-20,17
338,-15180,24,706,-4789,22,-43,-20,17
339,-15168,-62,752,-4781,22,-44,-17,16
340,-15208,18,746,-4787,22,-42,-20,18
341,-15108,-38,734,-4780,22,-43,-18,17
342,-15194,-24,644,-4773,22,-44,-21,18
343,-15144,-12,756,-4792,22,-44,-19,18
344,-15162,-12,728,-4780,22,-44,-19,17
345,-15116,18,768,-4793,22,-44,-19,17
346,-15116,-40,804,-4790,22,-44,-19,17
347,-15114,8,726,-4782,22,-44,-20,17
348,-15138,-58,712,-4786,22,-42,-21,16
349,-15172,36,772,-4793,22,-42,-18,17
350,-15134,28,752,-4792,22,-45,-21,16
351,-15100,2,776,-4780,22,-44,-19,16
352,-15126,-36,824,-4785,22,-44,-19,17
353,-15168,0,736,-4778,22,-43,-21,15
354,-15250,38,674,-4788,22,-44,-18,16
355,-15166,10,744,-4785,22,-44,-18,18
356,-15140,-72,738,-4790,22,-45,-19,17
357,-15168,12,650,-4785,22,-44,-19,15
358,-15168,-42,822,-4795,22,-45,-17,16
359,-15230,20,756,-4779,22,-43,-20,17
360,-15170,-28,692,-4773,22,-45,-20,17
361,-15160,14,736,-4793,22,-46,-19,17
362,-15150,-36,762,-4772,22,-45,-19,18
363,-15190,-32,788,-4784,22,-43,-21,17
364,-15106,-16,778,-4782,22,-44,-19,16
365,-15134,-26,792,-4781,22,-44,-19,15
366,-15168,-4,770,-4782,22,-42,-20,16
367,-15134,12,660,-4766,22,-45,-20,16
368,-15116,8,668,-4786,22,-45,-21,18
369,-15136,-72,792,-4779,22,-45,-20,16
370,-15146,-56,806,-4772,22,-42,-20,16
371,-15164,-14,800,-4786,22,-43,-18,17
372,-15166,-40,746,-4781,22,-46,-20,18
373,-15150,-30,782,-4782,22,-44,-18,17
374,-15168,-14,672,-4778,22,-45,-19,18
375,-15130,-16,792,-4794,22,-44,-18,19
376,-15084,-20,724,-4783,22,-44,-19,18
377,-15182,-18,684,-4771,22,-43,-19,17
378,-15098,-6,742,-4780,22,-42,-19,17
379,-15164,-4,700,-4793,22,-45,-18,18
380,-15150,-16,780,-4777,22,-44,-19,15
381,-15114,-20,688,-4788,22,-44,-20,18
382,-15150,10,756,-4775,22,-44,-20,16
383,-15180,0,816,-4777,22,-44,-19,17
384,-15206,6,732,-4780,22,-44,-21,17
385,-15150,-8,732,-4790,22,-44,-19,16
386,-15190,-8,748,-4788,22,-43,-18,17
387,-15194,-42,714,-4778,22,-43,-20,18
388,-15146,-30,720,-4767,22,-43,-19,16
389,-15144,20,698,-4774,22,-42,-21,18
390,-15192,24,714,-4782,22,-44,-19,18
391,-15174,-30,760,-4775,22,-43,-20,15
392,-15188,-60,760,-4780,22,-45,-20,16
393,-15110,-38,774,-4783,22,-43,-20,17
394,-15146,-58,694,-4772,22,-43,-19,16
395,-15178,-8,736,-4770,22,-44,-19,18
396,-15088,-62,718,-4776,22,-44,-20,17
397,-15134,30,710,-4783,22,-44,-19,18
398,-15142,-72,722,-4779,22,-44,-19,16
399,-15142,20,720,-4784,22,-43,-22,16
400,-15162,8,748,-4782,22,-43,-19,15
401,-15136,22,734,-4769,22,-46,-18,17
402,-15152,-28,806,-4777,22,-46,-20,18
403,-15126,4,724,-4781,22,-45,-20,16
404,-15136,-64,820,-4777,22,-43,-19,18
405,-15166,6,780,-4777,22,-44,-19,17
406,-15170,20,786,-4780,22,-44,-19,15
407,-15184,-28,686,-4785,22,-44,-19,17
408,-15132,32,796,-4775,22,-45,-19,16
409,-15194,-62,684,-4791,22,-42,-18,17
410,-15162,-16,780,-4787,22,-44,-20,17
411,-15156,-48,792,-4775,22,-44,-20,15
412,-15226,16,700,-4791,22,-44,-19,19
413,-15144,-40,728,-4771,22,-43,-18,17
414,-15088,-22,718,-4773,22,-43,-21,17
415,-15162,-54,766,-4775,22,-43,-21,16
416,-15158,-16,684,-4785,22,-43,-19,18
417,-15064,12,772,-4787,22,-44,-21,17
418,-15132,-44,836,-4769,22,-42,-19,17
419,-15148,-32,718,-4774,22,-44,-19,17
420,-15162,-22,786,-4781,22,-42,-19,15
421,-15160,20,814,-4790,22,-42,-19,17
422,-15186,24,674,-4773,22,-45,-19,18
423,-15166,-20,746,-4783,22,-43,-20,17
424,-15128,0,860,-4780,22,-43,-21,16
425,-15150,2,728,-4783,22,-43,-20,18
426,-15200,-12,718,-4789,22,-43,-20,17
427,-15104,-18,782,-4783,22,-43,-20,16
428,-15136,-46,726,-4780,22,-43,-20,15
429,-15170,-24,800,-4777,22,-44,-21,17
430,-15214,-88,700,-4769,22,-44,-21,17
431,-15192,-26,690,-4764,22,-44,-19,17
432,-15116,32,820,-4773,22,-43,-17,16
433,-15142,34,718,-4785,22,-42,-18,17
434,-15122,-14,822,-4779,22,-45,-20,16
435,-15186,-56,656,-4776,22,-43,-17,18
436,-15122,-16,772,-4786,22,-45,-20,17
437,-15116,-22,780,-4776,22,-44,-19,17
438,-15152,-34,694,-4773,22,-43,-18,17
439,-15156,-6,732,-4779,22,-45,-19,16
440,-15098,-12,614,-4780,22,-44,-21,18
441,-15092,-48,890,-4779,22,-43,-18,16
442,-15168,6,800,-4770,22,-42,-18,17
443,-15198,-32,678,-4778,22,-44,-20,17
444,-15168,-72,864,-4774,22,-44,-19,17
445,-15196,-34,616,-4766,22,-44,-19,18
446,-15174,-34,736,-4776,22,-44,-20,17
447,-15130,-32,802,-4768,22,-44,-21,16
448,-15152,-20,716,-4770,22,-44,-20,16
449,-15152,-32,736,-4774,22,-44,-20,16
450,-15146,-12,760,-4778,22,-43,-20,17
451,-15154,-44,742,-4772,22,-43,-21,16
452,-15192,-8,736,-4774,22,-43,-21,16
453,-15124,-2,786,-4772,22,-43,-20,17
454,-15116,-60,722,-4770,22,-44,-21,17
455,-15158,16,796,-4781,22,-42,-19,18
456,-15186,-80,696,-4774,22,-44,-21,16
457,-15144,-2,742,-4768,22,-43,-21,16
458,-15190,-56,668,-4781,22,-45,-19,17
459,-15194,-8,726,-4782,22,-45,-19,17
460,-15138,-24,780,-4781,22,-44,-18,16
461,-15154,-32,738,-4785,22,-45,-20,17
462,-15140,-32,820,-4777,22,-43,-20,18
463,-15150,-32,744,-4773,22,-42,-20,17
464,-15196,-42,836,-4778,22,-44,-20,16
465,-15192,-36,750,-4771,22,-45,-19,18
466,-15134,0,806,-4773,22,-43,-21,17
467,-15136,48,756,-4770,22,-42,-19,16
468,-15150,-12,742,-4777,22,-44,-18,16
469,-15190,-4,772,-4773,22,-46,-20,17
470,-15186,24,682,-4770,22,-44,-19,17
471,-15154,-42,752,-4778,22,-45,-18,17
472,-15158,2,766,-4774,22,-45,-21,17
473,-15098,-52,744,-4762,22,-43,-18,16
474,-15110,-64,768,-4782,22,-45,-20,17
475,-15184,6,706,-4774,22,-43,-20,17
476,-15120,-70,756,-4768,22,-43,-19,17
477,-15202,-16,728,-4769,22,-43,-19,17
478,-15174,-14,794,-4779,22,-44,-18,16
479,-15136,-38,810,-4773,22,-43,-20,16
480,-15140,-20,776,-4777,22,-45,-20,15
481,-15168,-64,766,-4776,22,-44,-18,16
482,-15090,-54,764,-4776,22,-44,-18,17
483,-15098,-12,728,-4766,22,-44,-19,16
484,-15058,24,730,-4778,22,-43,-20,16
485,-15092,-58,774,-4765,22,-43,-21,16
486,-15110,-2,700,-4771,22,-45,-18,17
487,-15100,0,734,-4775,22,-47,-19,16
488,-15162,40,720,-4778,22,-45,-19,17
489,-15102,92,740,-4775,22,-44,-20,17
490,-15128,48,704,-4776,22,-43,-18,17
491,-15082,-16,758,-4775,22,-45,-21,17
492,-15128,36,750,-4780,22,-42,-19,16
493,-15102,-34,714,-4775,22,-46,-22,16
494,-15176,4,786,-4773,22,-45,-20,17
495,-15176,24,752,-4775,22,-44,-18,17
496,-15150,-38,744,-4768,22,-44,-20,17
497,-15196,20,708,-4766,22,-43,-18,16
498,-15144,8,708,-4769,22,-43,-22,17
499,-15098,-48,724,-4773,22,-44,-19,17
500,-15146,-40,694,-4763,22,-45,-20,17
501,-15174,22,652,-4770,22,-44,-20,18
502,-15164,4,842,-4764,22,-44,-19,19
503,-15204,-2,816,-4768,22,-45,-19,17
504,-15184,-80,724,-4781,22,-44,-19,17
505,-15160,-68,672,-4777,22,-43,-19,16
506,-15158,-30,654,-4782,22,-44,-21,18
507,-15166,-26,668,-4769,22,-44,-19,16
508,-15182,10,696,-4770,22,-43,-19,17
509,-15128,-50,778,-4773,22,-43,-20,16
510,-15188,-28,782,-4779,22,-43,-21,18
511,-15168,44,744,-4770,22,-43,-20,17
512,-15172,-4,782,-4774,22,-45,-22,16
513,-15158,-26,750,-4768,22,-43,-21,16
514,-15174,-46,780,-4764,22,-43,-20,18
515,-15154,-68,724,-4777,22,-45,-20,18
516,-15144,-6,802,-4764,22,-45,-17,15
517,-15184,-86,660,-4776,22,-44,-21,17
518,-15102,-8,796,-4768,22,-46,-18,18
519,-15146,36,742,-4774,22,-42,-20,17
520,-15126,22,676,-4773,22,-43,-19,16
521,-15160,-22,800,-4768,22,-44,-19,17
522,-15160,-52,776,-4774,22,-44,-19,17
523,-15168,-36,762,-4776,22,-43,-19,17
524,-15132,-44,820,-4778,22,-45,-19,17
525,-15120,-34,710,-4762,22,-46,-18,17
526,-15152,18,764,-4775,22,-44,-19,16
527,-15148,24,688,-4769,22,-44,-19,15
528,-15158,70,680,-4772,22,-43,-18,18
529,-15148,-58,690,-4772,22,-44,-20,16
530,-15160,62,750,-4779,22,-44,-18,17
531,-15194,30,798,-4785,22,-41,-20,17
532,-15166,12,802,-4777,22,-43,-18,16
533,-15132,-82,584,-4769,22,-43,-19,16
534,-15148,10,866,-4770,22,-42,-20,18
535,-15122,18,678,-4768,22,-43,-18,17
536,-15140,2,770,-4760,22,-46,-19,17
537,-15124,-34,718,-4766,22,-44,-20,17
538,-15108,-64,788,-4768,22,-44,-19,19
539,-15152,6,698,-4762,22,-44,-18,17
540,-15136,-48,790,-4774,22,-44,-20,16
541,-15118,-70,716,-4775,22,-43,-20,18
542,-15162,-32,688,-4771,22,-44,-21,17
543,-15108,-12,690,-4783,22,-44,-18,17
544,-15196,22,756,-4779,22,-44,-19,17
545,-15194,16,698,-4778,22,-43,-20,15
546,-15190,-50,732,-4774,22,-45,-19,17
547,-15170,-14,722,-4768,22,-43,-18,16
548,-15110,-28,750,-4772,22,-42,-19,17
549,-15152,8,750,-4772,22,-42,-20,16
550,-15132,-18,742,-4779,22,-45,-19,17
551,-15184,-50,778,-4778,22,-44,-20,16
552,-15160,-82,772,-4780,22,-42,-17,17
553,-15100,-64,728,-4778,22,-43,-19,16
554,-15116,48,742,-4773,22,-44,-19,17
555,-15130,2,722,-4786,22,-42,-19,17
556,-15120,-28,870,-4779,22,-43,-20,18
557,-15174,-30,744,-4778,22,-44,-19,17
558,-15096,-30,808,-4775,22,-45,-18,16
559,-15094,26,728,-4774,22,-43,-20,16
560,-15186,-10,780,-4778,22,-42,-19,17
561,-15164,18,746,-4783,22,-45,-20,16
562,-15142,-18,650,-4764,22,-44,-19,18
563,-15148,-16,758,-4768,22,-46,-18,17
564,-15104,-66,692,-4776,22,-43,-20,17
565,-15186,34,784,-4778,22,-44,-19,16
566,-15146,30,736,-4779,22,-45,-19,17
567,-15208,-20,714,-4772,22,-44,-19,16
568,-15202,-4,774,-4772,22,-43,-19,16
569,-15128,16,822,-4776,22,-44,-20,18
570,-15142,-50,766,-4772,22,-43,-21,17
571,-15112,2,694,-4763,22,-43,-19,17
572,-15134,20,784,-4775,22,-44,-20,17
573,-15136,-10,762,-4764,22,-44,-20,15
574,-15138,8,782,-4764,22,-43,-19,17
575,-15150,-56,820,-4771,22,-43,-19,16
576,-15182,-16,798,-4768,22,-43,-19,16
577,-15190,0,746,-4771,22,-45,-19,15
578,-15140,-30,728,-4774,22,-44,-19,17
579,-15236,-32,772,-4777,22,-44,-20,17
580,-15092,-12,736,-4760,22,-42,-19,16
581,-15188,-14,732,-4771,22,-44,-19,17
582,-15186,-90,752,-4772,22,-45,-20,17
583,-15160,6,732,-4763,22,-43,-20,17
584,-15168,-6,686,-4776,22,-43,-19,17
585,-15102,-44,698,-4780,22,-43,-19,15
586,-15188,28,756,-4769,22,-45,-21,17
587,-15196,-4,692,-4776,22,-44,-18,16
588,-15144,10,756,-4767,22,-44,-19,17
589,-15146,-12,760,-4769,22,-44,-20,18
590,-15136,-24,706,-4770,22,-45,-19,17
591,-15226,10,784,-4764,22,-45,-19,17
592,-15074,-8,776,-4768,22,-43,-19,16
593,-15146,-18,692,-4776,22,-44,-20,17
594,-15136,-18,732,-4767,22,-43,-20,19
595,-15152,-38,764,-4773,22,-44,-20,18
596,-15196,2,772,-4768,22,-45,-17,16
597,-15214,14,704,-4767,22,-44,-19,17
598,-15194,16,694,-4773,22,-44,-18,17
599,-15140,-46,726,-4767,22,-42,-20,16
600,-15180,4,768,-4771,22,-44,-22,16
601,-15146,-86,734,-4777,22,-44,-20,15
602,-15068,-18,690,-4775,22,-44,-19,17
603,-15150,28,748,-4773,22,-46,-19,17
604,-15180,-4,770,-4762,22,-43,-20,16
605,-15154,-28,694,-4769,22,-44,-19,17
606,-15196,-34,774,-4774,22,-45,-20,17
607,-15198,-48,820,-4772,22,-45,-19,17
608,-15142,-64,868,-4774,22,-44,-19,17
609,-15142,-30,868,-4771,22,-44,-20,18
610,-15144,32,660,-4773,22,-43,-20,17
611,-15130,-22,752,-4764,22,-43,-19,18
612,-15160,-72,772,-4769,22,-45,-19,19
613,-15170,-58,692,-4771,22,-44,-20,19
614,-15218,6,840,-4762,22,-44,-21,16
615,-15146,32,678,-4760,22,-44,-18,17
616,-15140,16,886,-4773,22,-44,-19,16
617,-15178,-34,662,-4764,22,-44,-19,17
618,-15116,-26,814,-4771,22,-44,-20,17
619,-15100,-12,650,-4768,22,-44,-18,17
620,-15162,-62,762,-4771,22,-43,-19,17
621,-15160,-20,782,-4766,22,-44,-19,17
622,-15200,-16,764,-4778,22,-42,-19,17
623,-15176,-10,736,-4763,22,-44,-20,17
624,-15160,-22,744,-4766,22,-43,-20,18
625,-15164,22,716,-4768,22,-44,-20,17
626,-15150,-20,636,-4776,22,-44,-19,15
627,-15108,-48,808,-4775,22,-42,-17,15
628,-15162,48,682,-4773,22,-43,-19,17
629,-15176,-12,808,-4763,22,-44,-20,17
630,-15184,-18,782,-4761,22,-43,-21,17
631,-15136,26,734,-4775,22,-44,-20,17
632,-15164,20,796,-4762,22,-44,-19,17
633,-15142,46,712,-4769,22,-44,-20,17
634,-15128,-8,694,-4758,23,-44,-19,16
635,-15200,-18,810,-4770,22,-43,-20,17
636,-15146,-20,698,-4768,22,-45,-18,15
637,-15112,-12,714,-4768,22,-43,-20,17
638,-15140,-26,734,-4768,22,-44,-18,17
639,-15102,-90,780,-4777,22,-45,-20,16
640,-15158,-46,770,-4768,22,-45,-19,16
641,-15148,0,720,-4763,22,-45,-19,18
642,-15156,-62,776,-4767,22,-44,-19,16
643,-15194,-98,800,-4769,22,-44,-20,18
644,-15156,-4,772,-4763,22,-42,-19,17
645,-15158,-32,758,-4762,22,-44,-19,16
646,-15118,-24,818,-4769,22,-45,-19,15
647,-15156,-24,662,-4759,23,-42,-20,17
648,-15188,-46,714,-4763,22,-43,-18,16
649,-15146,10,746,-4778,22,-41,-19,16
650,-15154,36,658,-4768,22,-43,-20,18
651,-15166,-28,700,-4756,23,-43,-18,17
652,-15168,-20,710,-4764,22,-44,-20,16
653,-15124,24,792,-4775,22,-44,-20,16
654,-15166,-58,750,-4768,22,-44,-21,16
655,-15208,-42,716,-4773,22,-43,-20,17
656,-15160,24,686,-4763,22,-44,-19,16
657,-15106,-8,742,-4768,22,-43,-20,18
658,-15118,-12,698,-4764,22,-44,-19,17
659,-15186,40,806,-4770,22,-45,-19,18
660,-15102,-76,718,-4762,22,-43,-20,16
661,-15158,-22,772,-4757,23,-43,-21,16
662,-15156,-82,748,-4765,22,-44,-18,17
663,-15140,16,796,-4759,23,-43,-20,16
664,-15164,-40,726,-4750,23,-44,-18,16
665,-15106,42,756,-4765,22,-45,-17,16
666,-15132,12,758,-4772,22,-44,-21,18
667,-15168,-30,728,-4763,22,-44,-19,17
668,-15112,-6,710,-4780,22,-45,-22,16
669,-15150,14,836,-4763,22,-42,-18,18
670,-15148,-32,690,-4769,22,-44,-20,16
671,-15152,-2,788,-4775,22,-43,-21,18
672,-15088,-40,712,-4767,22,-45,-18,16
673,-15148,-80,650,-4761,22,-44,-20,16
674,-15108,-36,690,-4764,22,-45,-19,17
675,-15210,-26,800,-4770,22,-43,-20,18
676,-15138,2,674,-4764,22,-44,-19,17
677,-15188,-50,772,-4775,22,-45,-19,19
678,-15124,-4,822,-4770,22,-44,-18,18
679,-15192,-4,696,-4774,22,-43,-20,17
680,-15134,18,786,-4773,22,-44,-18,16
681,-15228,-4,842,-4764,22,-43,-19,16
682,-15202,54,820,-4764,22,-46,-21,17
683,-15198,-30,576,-4754,23,-42,-20,17
684,-15114,6,716,-4754,23,-45,-19,17
685,-15194,-4,742,-4753,23,-44,-20,17
686,-15116,30,648,-4757,23,-43,-21,16
687,-15154,-26,708,-4755,23,-44,-21,16
688,-15136,-8,708,-4762,22,-45,-19,18
689,-15144,-30,692,-4762,22,-42,-18,18
690,-15060,-54,752,-4760,22,-44,-18,17
691,-15202,28,678,-4763,22,-44,-19,18
692,-15120,-20,816,-4762,22,-43,-19,17
693,-15120,-16,722,-4766,22,-44,-19,16
694,-15130,16,752,-4762,22,-45,-20,17
695,-15200,18,720,-4767,22,-43,-18,18
696,-15202,-78,774,-4756,23,-43,-21,16
697,-15174,2,752,-4765,22,-44,-20,16
698,-15198,0,722,-4759,23,-45,-20,17
699,-15164,-40,782,-4768,22,-44,-20,17
700,-15160,-10,744,-4762,22,-44,-18,18
701,-15150,84,752,-4761,22,-45,-20,17
702,-15164,16,834,-4763,22,-44,-19,16
703,-15186,20,646,-4767,22,-43,-20,17
704,-15128,-28,740,-4756,23,-43,-20,18
705,-15188,28,738,-4768,22,-44,-21,14
706,-15186,8,812,-4768,22,-42,-20,17
707,-15134,-54,774,-4762,22,-42,-20,17
708,-15116,-30,776,-4764,22,-43,-20,17
709,-15134,4,800,-4765,22,-43,-21,17
710,-15146,14,678,-4758,23,-43,-20,16
711,-15164,-2,732,-4772,22,-43,-18,18
712,-15094,-14,762,-4767,22,-43,-18,15
713,-15108,-24,674,-4772,22,-45,-21,18
714,-15164,28,778,-4747,23,-43,-22,18
715,-15114,-10,754,-4763,22,-42,-20,17
716,-15090,-44,758,-4759,23,-44,-19,17
717,-15176,-54,666,-4756,23,-44,-20,16
718,-15110,-14,684,-4764,22,-43,-20,17
719,-15176,36,742,-4763,22,-45,-21,18
720,-15156,-16,798,-4759,23,-43,-18,17
721,-15184,18,766,-4755,23,-43,-19,18
722,-15138,-32,790,-4754,23,-44,-18,17
723,-15190,-18,752,-4763,22,-42,-21,16
724,-15176,-10,712,-4762,22,-43,-17,17
725,-15206,56,728,-4759,23,-43,-23,18
726,-15158,-20,734,-4758,23,-43,-20,18
727,-15138,12,712,-4764,22,-43,-17,18
728,-15138,-28,690,-4758,23,-44,-19,17
729,-15154,-34,786,-4753,23,-45,-21,16
730,-15142,-16,756,-4760,22,-44,-19,18
731,-15136,12,622,-4758,23,-44,-18,14
732,-15188,-10,744,-4756,23,-42,-19,17
733,-15144,12,754,-4760,22,-45,-20,17
734,-15170,-2,664,-4760,22,-44,-20,18
735,-15124,-8,736,-4761,22,-45,-19,17
736,-15150,-34,740,-4767,22,-45,-19,18
737,-15154,22,766,-4768,22,-44,-21,15
738,-15146,2,806,-4761,22,-43,-20,16
739,-15142,-12,698,-4764,22,-44,-20,16
740,-15064,-68,680,-4757,23,-43,-19,16
741,-15194,-38,864,-4770,22,-43,-20,15
742,-15142,-32,676,-4767,22,-43,-18,16
743,-15130,-84,718,-4757,23,-42,-19,17
744,-15102,18,662,-4775,22,-44,-20,17
745,-15138,18,694,-4763,22,-44,-18,17
746,-15094,88,780,-4773,22,-44,-20,17
747,-15210,-38,750,-4761,22,-44,-19,17
748,-15144,42,734,-4756,23,-43,-19,17
749,-15204,-54,788,-4768,22,-44,-19,16
750,-15126,2,754,-4766,22,-45,-19,17
751,-15104,-54,772,-4768,22,-44,-18,18
752,-15150,18,700,-4762,22,-45,-20,16
753,-15196,-38,740,-4755,23,-44,-18,17
754,-15238,-42,806,-4769,22,-43,-19,18
755,-15134,16,722,-4754,23,-44,-20,16
756,-15112,4,798,-4771,22,-43,-18,16
757,-15158,46,720,-4753,23,-45,-18,17
758,-15172,-6,742,-4761,22,-44,-19,17
759,-15136,-6,824,-4756,23,-45,-19,16
760,-15148,-14,734,-4766,22,-43,-19,16
761,-15154,-32,740,-4763,22,-44,-18,18
762,-15182,-56,754,-4761,22,-43,-19,17
763,-15120,-20,732,-4754,23,-45,-19,17
764,-15176,68,618,-4767,22,-44,-21,17
765,-15056,-50,768,-4756,23,-44,-19,16
766,-15280,-18,878,-4768,22,-46,-18,17
767,-15090,-30,654,-4758,23,-43,-21,17
768,-15222,-30,744,-4766,22,-44,-20,17
769,-15148,12,838,-4754,23,-45,-20,17
770,-15126,-20,738,-4758,23,-43,-19,16
771,-15180,-4,826,-4761,22,-42,-20,17
772,-15194,6,758,-4769,22,-46,-20,18
773,-15118,-34,746,-4771,22,-44,-19,18
774,-15122,-38,750,-4758,23,-44,-19,16
775,-15152,12,688,-4760,22,-43,-19,17
776,-15104,-48,784,-4751,23,-44,-21,16
777,-15158,-88,696,-4755,23,-45,-19,17
778,-15194,4,794,-4764,22,-44,-18,17
779,-15182,18,728,-4757,23,-44,-18,18
780,-15134,-82,750,-4761,22,-44,-20,17
781,-15200,-26,744,-4767,22,-43,-19,16
782,-15168,-54,736,-4763,22,-44,-17,16
783,-15148,2,646,-4778,22,-44,-21,17
784,-15174,4,746,-4763,22,-42,-20,16
785,-15132,32,796,-4757,23,-43,-19,17
786,-15150,-22,734,-4755,23,-44,-21,17
787,-15154,20,718,-4754,23,-43,-20,17
788,-15162,-16,738,-4758,23,-45,-20,17
789,-15130,52,778,-4746,23,-45,-21,17
790,-15190,-30,816,-4759,23,-42,-19,17
791,-15230,4,722,-4755,23,-44,-19,18
792,-15232,-8,856,-4759,23,-46,-20,17
793,-15166,4,748,-4759,23,-43,-20,17
794,-15118,-14,776,-4773,22,-44,-19,16
795,-15138,32,706,-4757,23,-44,-20,16
796,-15144,-34,664,-4753,23,-44,-20,17
797,-15128,0,784,-4759,23,-44,-18,17
798,-15162,12,714,-4767,22,-43,-20,16
799,-15128,-14,730,-4769,22,-44,-20,18
800,-15224,-24,710,-4756,23,-43,-20,16
801,-15164,12,694,-4752,23,-44,-19,16
802,-15130,-6,738,-4768,22,-44,-18,19
803,-15088,-30,670,-4755,23,-45,-21,17
804,-15108,-30,706,-4758,23,-44,-19,16
805,-15090,18,778,-4755,23,-43,-19,18
806,-15160,-30,740,-4760,22,-44,-20,15
807,-15146,-38,764,-4748,23,-43,-20,16
808,-15150,-14,794,-4750,23,-44,-19,17
809,-15160,-84,646,-4757,23,-46,-19,16
810,-15162,-6,798,-4759,23,-43,-18,18
811,-15076,6,840,-4759,23,-44,-20,16
812,-15114,-12,706,-4756,23,-43,-18,16
813,-15128,6,774,-4754,23,-43,-20,16
814,-15204,-36,740,-4764,22,-44,-20,18
815,-15126,-42,734,-4753,23,-42,-19,16
816,-15144,36,726,-4756,23,-42,-19,17
817,-15228,-22,690,-4769,22,-43,-21,18
818,-15180,-2,874,-4758,23,-45,-20,17
819,-15144,-22,642,-4763,22,-44,-21,15
820,-15184,-2,726,-4766,22,-43,-20,16
821,-15118,-6,602,-4754,23,-46,-19,16
822,-15130,-4,740,-4747,23,-42,-20,16
823,-15162,-14,784,-4762,22,-41,-20,17
824,-15124,-16,810,-4756,23,-44,-22,18
825,-15182,-44,714,-4756,23,-44,-17,17
826,-15160,-60,748,-4758,23,-43,-20,16
827,-15160,-56,806,-4759,23,-44,-20,17
828,-15164,-32,710,-4752,23,-45,-19,17
829,-15122,6,734,-4753,23,-44,-18,16
830,-15170,-76,720,-4761,22,-42,-20,16
831,-15146,-42,760,-4764,22,-44,-20,16
832,-15182,-48,800,-4766,22,-44,-19,17
833,-15148,-20,740,-4760,22,-45,-22,17
834,-15148,-2,736,-4761,22,-45,-19,16
835,-15140,-34,804,-4753,23,-43,-19,15
836,-15154,-28,750,-4753,23,-43,-21,16
837,-15150,14,672,-4765,22,-44,-22,17
838,-15150,-28,824,-4766,22,-42,-20,17
839,-15162,-16,754,-4767,22,-43,-20,16
840,-15096,0,754,-4752,23,-44,-21,16
841,-15186,-44,712,-4760,22,-43,-20,18
842,-15102,-18,834,-4764,22,-45,-18,17
843,-15202,16,726,-4755,23,-44,-18,16
844,-15184,50,696,-4764,22,-44,-18,17
845,-15184,-42,808,-4749,23,-44,-20,16
846,-15194,-54,674,-4765,22,-45,-20,15
847,-15164,8,730,-4758,23,-44,-20,17
848,-15138,38,796,-4755,23,-44,-20,17
849,-15152,-52,802,-4760,22,-44,-19,17
850,-15158,6,814,-4763,22,-45,-20,15
851,-15086,2,750,-4763,22,-44,-20,16
852,-15136,-48,782,-4753,23,-43,-18,15
853,-15112,28,762,-4759,23,-44,-20,18
854,-15134,-36,698,-4762,22,-44,-18,16
855,-15216,-40,782,-4753,23,-44,-18,18
856,-15190,-74,674,-4757,23,-42,-19,17
857,-15116,4,736,-4752,23,-44,-19,18
858,-15176,30,670,-4759,23,-45,-18,18
859,-15172,-6,734,-4758,23,-44,-19,17
860,-15100,-10,768,-4763,22,-44,-19,15
861,-15156,4,716,-4751,23,-43,-19,17
862,-15230,26,704,-4755,23,-44,-20,16
863,-15120,-28,878,-4765,22,-44,-19,16
864,-15156,2,724,-4742,23,-43,-19,17
865,-15130,6,744,-4743,23,-43,-19,17
866,-15092,10,812,-4764,22,-43,-20,16
867,-15184,14,674,-4760,22,-45,-18,18
868,-15104,32,768,-4764,22,-43,-17,19
869,-15208,-50,808,-4756,23,-43,-19,18
870,-15242,6,764,-4769,22,-44,-19,16
871,-15146,26,722,-4760,22,-45,-20,17
872,-15156,-6,676,-4746,23,-44,-20,18
873,-15148,52,750,-4750,23,-45,-21,17
874,-15178,-24,788,-4759,23,-44,-20,16
875,-15178,-22,776,-4758,23,-42,-19,18
876,-15162,20,704,-4750,23,-41,-20,17
877,-15206,-6,704,-4754,23,-44,-21,17
878,-15200,36,760,-4760,22,-45,-20,15
879,-15158,34,770,-4750,23,-44,-18,18
880,-15164,6,734,-4752,23,-45,-19,17
881,-15152,-12,780,-4761,22,-43,-18,17
882,-15192,32,750,-4751,23,-43,-19,16
883,-15148,-10,708,-4752,23,-44,-19,18
884,-15172,-50,718,-4749,23,-45,-18,19
885,-15180,32,706,-4757,23,-43,-18,17
886,-15146,-10,770,-4740,23,-43,-21,16
887,-15236,16,672,-4751,23,-43,-19,16
888,-15168,28,674,-4754,23,-44,-19,17
889,-15158,16,722,-4756,23,-44,-19,16
890,-15172,-32,776,-4761,22,-44,-20,16
891,-15184,-68,778,-4751,23,-43,-21,18
892,-15176,0,756,-4750,23,-42,-21,17
893,-15120,6,764,-4760,22,-44,-19,17
894,-15126,-60,706,-4753,23,-43,-20,17
895,-15152,-6,636,-4749,23,-44,-19,17
896,-15170,-2,812,-4752,23,-45,-21,17
897,-15116,44,714,-4757,23,-43,-20,16
898,-15154,22,800,-4748,23,-43,-19,17
899,-15166,-28,778,-4751,23,-44,-20,18
900,-15124,-6,766,-4755,23,-43,-20,18
901,-15154,44,798,-4757,23,-42,-21,18
902,-15154,-68,794,-4749,23,-43,-20,16
903,-15104,-26,728,-4758,23,-44,-20,17
904,-15148,-20,722,-4757,23,-44,-19,16
905,-15106,-24,816,-4763,22,-44,-21,17
906,-15110,44,716,-4756,23,-44,-19,16
907,-15182,14,738,-4748,23,-43,-19,18
908,-15188,-8,792,-4764,22,-43,-20,18
909,-15132,-70,686,-4750,23,-44,-22,17
910,-15132,-16,670,-4754,23,-43,-21,17
911,-15128,-60,668,-4755,23,-45,-20,18
912,-15120,-36,702,-4755,23,-46,-19,17
913,-15202,8,796,-4763,22,-43,-18,17
914,-15138,-18,788,-4754,23,-44,-19,19
915,-15170,22,742,-4748,23,-45,-19,18
916,-15106,14,724,-4750,23,-43,-18,18
917,-15092,-20,750,-4744,23,-44,-21,16
918,-15146,24,706,-4760,22,-44,-20,16
919,-15152,-2,696,-4752,23,-44,-21,16
920,-15164,4,720,-4757,23,-44,-19,17
921,-15166,52,712,-4748,23,-44,-19,17
922,-15162,-50,742,-4763,22,-42,-18,18
923,-15192,22,786,-4762,22,-42,-20,16
924,-15134,-4,738,-4754,23,-43,-19,17
925,-15096,-36,762,-4743,23,-44,-17,18
926,-15128,-26,780,-4749,23,-43,-21,18
927,-15144,-42,742,-4752,23,-44,-21,17
928,-15114,-14,720,-4754,23,-45,-20,17
929,-15132,-94,750,-4752,23,-44,-21,17
930,-15184,-18,778,-4757,23,-44,-19,17
931,-15136,2,704,-4748,23,-43,-19,16
932,-15138,-60,742,-4752,23,-43,-19,18
933,-15142,-44,836,-4751,23,-44,-21,18
934,-15174,-6,856,-4755,23,-43,-20,17
935,-15076,-30,850,-4753,23,-44,-22,16
936,-15186,36,710,-4757,23,-43,-20,16
937,-15226,-50,796,-4752,23,-45,-22,17
938,-15130,-30,788,-4757,23,-43,-18,18
939,-15112,-70,778,-4763,22,-45,-20,16
940,-15140,-10,700,-4760,22,-43,-19,16
941,-15174,14,762,-4753,23,-45,-18,17
942,-15164,-16,774,-4757,23,-45,-19,16
943,-15152,-38,822,-4751,23,-44,-19,17
944,-15140,-22,868,-4760,22,-43,-21,16
945,-15206,20,804,-4756,23,-44,-19,18
946,-15200,16,694,-4754,23,-44,-19,18
947,-15174,-60,800,-4742,23,-43,-20,16
948,-15080,-22,700,-4755,23,-43,-20,16
949,-15198,-14,776,-4747,23,-44,-19,17
950,-15228,18,738,-4751,23,-45,-19,17
951,-15136,-52,784,-4748,23,-43,-20,17
952,-15202,-78,752,-4755,23,-44,-17,17
953,-15122,-34,788,-4751,23,-43,-20,17
954,-15168,12,654,-4756,23,-44,-19,16
955,-15208,-72,732,-4754,23,-43,-21,17
956,-15202,-12,820,-4748,23,-45,-20,17
957,-15178,-68,770,-4753,23,-44,-22,18
958,-15192,-16,692,-4757,23,-45,-21,16
959,-15160,-26,638,-4748,23,-44,-19,16
960,-15150,-36,810,-4767,22,-43,-19,16
961,-15156,12,784,-4750,23,-43,-20,16
962,-15172,20,700,-4748,23,-43,-21,16
963,-15154,64,762,-4746,23,-43,-20,16
964,-15138,40,808,-4758,23,-44,-20,17
965,-15234,12,766,-4758,23,-44,-20,16
966,-15128,-52,840,-4753,23,-45,-21,16
967,-15110,10,726,-4756,23,-44,-18,16
968,-15122,-42,768,-4760,22,-44,-17,18
969,-15128,-34,680,-4764,22,-44,-19,17
970,-15138,-68,748,-4755,23,-44,-21,16
971,-15160,-88,738,-4748,23,-45,-20,16
972,-15096,0,740,-4747,23,-45,-19,17
973,-15154,12,702,-4754,23,-43,-21,17
974,-15078,-22,774,-4758,23,-44,-20,18
975,-15134,-64,786,-4764,22,-42,-20,18
976,-15158,-12,744,-4753,23,-44,-21,17
977,-15190,-74,716,-4752,23,-43,-21,17
978,-15148,-48,728,-4759,23,-44,-17,17
979,-15176,-6,786,-4747,23,-44,-19,17
980,-15188,-2,746,-4750,23,-44,-18,16
981,-15168,0,784,-4755,23,-44,-20,18
982,-15230,-18,708,-4745,23,-45,-19,17
983,-15136,-26,784,-4747,23,-43,-20,17
984,-15140,-48,642,-4754,23,-43,-19,18
985,-15172,18,738,-4759,23,-44,-19,17
986,-15148,16,824,-4751,23,-42,-21,16
987,-15158,12,740,-4740,23,-44,-20,17
988,-15132,-58,730,-4749,23,-44,-21,18
989,-15160,2,760,-4748,23,-44,-19,18
990,-15176,2,732,-4742,23,-45,-19,17
991,-15140,-6,780,-4750,23,-44,-20,17
992,-15126,-58,762,-4753,23,-44,-20,17
993,-15150,14,766,-4753,23,-42,-19,17
994,-15118,20,800,-4755,23,-44,-20,18
995,-15144,20,826,-4756,23,-44,-19,16
