,acc_X,acc_Y,acc_Z,temp,tempC,gyr_X,gyr_Y,gyr_Z
0,-1893,-2,95,-4731,23,-347,-150,139
1,-1893,-2,95,-4731,23,-347,-151,138
2,-1892,-2,95,-4731,23,-346,-148,138
3,-1893,-2,95,-4731,23,-343,-150,141
4,-1893,-2,96,-4729,23,-345,-149,142
5,-1893,-2,96,-4728,23,-346,-148,142
6,-1893,-2,95,-4729,23,-347,-147,140
7,-1893,-2,95,-4729,23,-347,-146,139
8,-1894,-2,94,-4730,23,-350,-150,138
9,-1895,-2,93,-4730,23,-349,-150,141
10,-1895,0,94,-4731,23,-347,-150,141
11,-1895,-1,94,-4731,23,-347,-151,144
12,-1895,-2,93,-4731,23,-347,-150,140
13,-1896,-2,92,-4729,23,-348,-151,138
14,-1896,-2,93,-4729,23,-349,-152,138
15,-1895,-2,92,-4729,23,-348,-153,139
16,-1896,-3,94,-4729,23,-350,-157,135
17,-1895,-3,94,-4728,23,-349,-156,137
18,-1895,-2,94,-4728,23,-349,-155,137
19,-1895,-3,94,-4728,23,-353,-152,136
20,-1894,-3,94,-4727,23,-352,-152,137
21,-1895,-1,94,-4726,23,-353,-155,139
22,-1896,-1,95,-4724,23,-350,-156,140
23,-1896,-1,95,-4724,23,-349,-155,141
24,-1894,-1,94,-4724,23,-350,-157,142
25,-1894,-1,94,-4725,23,-350,-153,142
26,-1894,0,95,-4727,23,-351,-152,141
27,-1894,-1,96,-4727,23,-350,-153,140
28,-1894,-1,97,-4726,23,-350,-153,139
29,-1895,-1,97,-4726,23,-349,-152,140
30,-1894,-1,96,-4725,23,-347,-153,142
31,-1893,-1,95,-4724,23,-347,-151,142
32,-1892,-1,94,-4721,23,-347,-150,142
33,-1892,0,94,-4719,23,-346,-150,141
34,-1892,0,93,-4718,23,-348,-151,143
35,-1894,0,94,-4720,23,-346,-151,141
36,-1893,-1,95,-4719,23,-347,-151,140
37,-1893,-1,97,-4720,23,-346,-152,140
38,-1893,-3,96,-4719,23,-347,-150,138
39,-1894,-3,96,-4721,23,-347,-151,137
40,-1894,-3,96,-4720,23,-347,-150,139
41,-1895,-2,94,-4721,23,-347,-153,140
42,-1894,-2,93,-4720,23,-346,-154,137
43,-1894,-2,94,-4720,23,-345,-153,136
44,-1894,-3,94,-4720,23,-345,-154,137
45,-1894,-3,92,-4719,23,-344,-154,139
46,-1894,-3,94,-4720,23,-346,-152,141
47,-1894,-3,95,-4718,23,-346,-155,140
48,-1894,-3,94,-4716,23,-346,-154,140
49,-1895,-3,93,-4715,23,-346,-152,140
50,-1895,-3,92,-4715,23,-345,-152,141
51,-1895,-1,92,-4714,23,-346,-151,140
52,-1894,0,92,-4715,23,-345,-150,139
53,-1895,-1,93,-4715,23,-347,-150,140
54,-1895,-2,94,-4716,23,-345,-151,140
55,-1895,-1,94,-4716,23,-346,-150,142
56,-1895,-1,94,-4715,23,-348,-154,140
57,-1896,-1,94,-4715,23,-349,-153,140
58,-1895,0,94,-4715,23,-349,-156,138
59,-1894,0,94,-4714,23,-348,-155,137
60,-1894,0,93,-4714,23,-349,-153,136
61,-1896,1,92,-4713,23,-350,-154,139
62,-1897,0,94,-4713,23,-350,-153,140
63,-1897,0,92,-4712,23,-350,-152,139
64,-1897,0,93,-4713,23,-351,-152,137
65,-1897,0,93,-4712,23,-348,-152,139
66,-1896,0,91,-4712,23,-349,-151,138
67,-1895,-1,91,-4711,23,-348,-150,139
68,-1894,0,93,-4710,23,-350,-151,137
69,-1895,0,93,-4710,23,-350,-150,138
70,-1894,-1,92,-4710,23,-350,-150,138
71,-1894,-1,93,-4712,23,-348,-153,138
72,-1894,-1,94,-4712,23,-351,-152,138
73,-1893,-2,95,-4711,23,-350,-154,137
74,-1893,-2,95,-4711,23,-353,-156,138
75,-1893,-3,94,-4711,23,-348,-156,139
76,-1893,-1,94,-4711,23,-346,-154,140
77,-1893,-1,95,-4709,23,-346,-154,141
78,-1894,0,95,-4709,23,-347,-152,138
79,-1895,-1,95,-4707,23,-345,-152,139
80,-1896,-1,94,-4709,23,-344,-153,138
81,-1895,0,95,-4711,23,-347,-150,138
82,-1895,0,93,-4710,23,-345,-153,140
83,-1893,0,94,-4710,23,-342,-152,140
84,-1894,-1,92,-4710,23,-344,-152,141
85,-1894,-2,93,-4712,23,-345,-152,141
86,-1893,-3,94,-4712,23,-345,-151,140
87,-1893,-3,94,-4711,23,-347,-153,139
88,-1894,-2,92,-4711,23,-346,-153,139
89,-1895,-2,93,-4711,23,-346,-154,140
90,-1896,-3,95,-4707,23,-350,-155,139
91,-1896,-2,93,-4707,23,-348,-153,138
92,-1895,-3,92,-4708,23,-348,-156,140
93,-1895,-3,93,-4707,23,-347,-153,142
94,-1895,-2,93,-4708,23,-347,-154,141
95,-1895,-2,94,-4709,23,-348,-153,142
96,-1896,-3,96,-4709,23,-347,-153,142
97,-1896,-1,95,-4709,23,-348,-152,141
98,-1895,-2,95,-4709,23,-349,-152,141
99,-1897,-1,94,-4707,23,-347,-151,142
100,-1895,-1,92,-4708,23,-348,-149,141
101,-1895,0,92,-4706,23,-348,-151,142
102,-1895,-1,92,-4707,23,-346,-152,140
103,-1895,-2,92,-4706,23,-345,-153,140
104,-1895,-1,91,-4707,23,-343,-154,137
105,-1895,-1,92,-4707,23,-346,-151,137
106,-1895,-1,92,-4708,23,-344,-152,140
107,-1896,-1,91,-4707,23,-344,-151,140
108,-1895,-1,92,-4706,23,-346,-151,139
109,-1894,-1,93,-4705,23,-346,-151,139
110,-1895,-1,94,-4703,23,-347,-150,139
111,-1895,-2,95,-4703,23,-347,-151,140
112,-1894,-1,94,-4706,23,-347,-150,138
113,-1895,-2,94,-4705,23,-348,-152,140
114,-1896,-3,94,-4705,23,-346,-152,144
115,-1896,-2,96,-4703,23,-346,-152,144
116,-1895,-1,96,-4703,23,-346,-150,146
117,-1895,0,94,-4701,23,-346,-147,145
118,-1894,0,94,-4702,23,-345,-150,143
119,-1894,0,94,-4701,23,-344,-152,142
120,-1894,-1,93,-4700,23,-346,-150,141
121,-1894,-2,93,-4700,23,-348,-149,140
122,-1895,-1,94,-4700,23,-348,-151,140
123,-1895,-1,94,-4700,23,-348,-152,140
124,-1895,-1,94,-4700,23,-349,-151,139
125,-1896,-1,93,-4699,23,-348,-153,136
126,-1896,-2,94,-4699,23,-346,-152,137
127,-1896,-2,93,-4701,23,-346,-154,136
128,-1895,-2,94,-4701,23,-344,-154,137
129,-1894,-1,92,-4701,23,-344,-154,139
130,-1895,-2,92,-4701,23,-345,-149,137
131,-1894,-3,93,-4699,23,-347,-150,138
132,-1893,-2,93,-4698,23,-347,-149,138
133,-1894,-3,94,-4699,23,-345,-149,139
134,-1893,-2,96,-4697,23,-344,-151,138
135,-1893,-3,97,-4697,23,-346,-152,139
136,-1893,-2,97,-4697,23,-347,-150,140
137,-1892,-2,94,-4696,23,-345,-151,140
138,-1894,-3,94,-4697,23,-345,-150,139
139,-1894,-2,95,-4698,23,-345,-150,141
140,-1894,-2,96,-4697,23,-345,-149,141
141,-1894,-2,95,-4697,23,-346,-148,140
142,-1894,-1,95,-4696,23,-345,-149,141
143,-1894,-2,96,-4695,23,-343,-149,142
144,-1894,-2,96,-4696,23,-346,-151,142
145,-1893,-2,96,-4698,23,-344,-152,142
146,-1892,-1,96,-4698,23,-347,-154,141
147,-1892,-2,95,-4698,23,-347,-153,139
148,-1893,-2,94,-4695,23,-347,-153,140
149,-1893,-3,94,-4695,23,-348,-152,141
150,-1892,-3,96,-4695,23,-347,-154,139
151,-1893,-4,96,-4695,23,-347,-154,141
152,-1895,-3,96,-4696,23,-348,-158,141
153,-1895,-3,96,-4695,23,-348,-153,142
154,-1895,-3,95,-4696,23,-349,-156,143
155,-1895,-3,95,-4696,23,-348,-154,140
156,-1894,-2,95,-4694,23,-348,-153,141
157,-1893,-3,93,-4693,23,-348,-151,141
158,-1894,-2,95,-4694,23,-347,-153,139
159,-1895,-4,96,-4694,23,-346,-151,140
160,-1895,-4,96,-4695,23,-346,-151,138
161,-1894,-3,95,-4695,23,-347,-154,142
162,-1895,-2,94,-4696,23,-345,-153,143
163,-1893,-1,93,-4694,23,-347,-153,141
164,-1893,-2,93,-4696,23,-348,-152,140
165,-1894,-1,92,-4696,23,-347,-153,140
166,-1894,-1,93,-4695,23,-347,-153,140
167,-1894,-2,93,-4693,23,-348,-152,140
168,-1894,-4,94,-4695,23,-350,-153,140
169,-1894,-5,95,-4693,23,-351,-155,140
170,-1895,-4,94,-4694,23,-349,-155,140
171,-1895,-4,94,-4694,23,-349,-155,140
172,-1894,-3,94,-4693,23,-350,-153,143
173,-1894,-3,95,-4692,23,-348,-154,140
174,-1895,-2,94,-4690,23,-349,-152,139
175,-1895,-3,93,-4689,23,-349,-153,139
176,-1895,-3,93,-4688,23,-347,-155,140
177,-1896,-3,93,-4689,23,-346,-156,141
178,-1895,-3,93,-4689,23,-346,-156,141
179,-1894,-2,93,-4689,23,-347,-155,140
180,-1895,-3,93,-4689,23,-347,-154,140
181,-1896,-1,91,-4688,23,-348,-156,140
182,-1895,-1,92,-4688,23,-347,-157,137
183,-1894,-1,92,-4689,23,-349,-157,136
184,-1894,-2,93,-4686,23,-350,-158,138
185,-1894,-1,95,-4687,23,-350,-156,138
186,-1895,-2,94,-4688,23,-349,-153,139
187,-1895,-1,95,-4687,23,-350,-154,138
188,-1895,-1,94,-4686,23,-351,-155,140
189,-1895,-2,94,-4687,23,-351,-155,141
190,-1893,-1,93,-4686,23,-351,-153,140
191,-1894,-1,93,-4686,23,-349,-154,140
192,-1894,-2,94,-4688,23,-349,-154,139
193,-1893,0,92,-4688,23,-347,-154,139
194,-1894,-1,94,-4687,23,-347,-152,141
195,-1894,-1,94,-4686,23,-349,-153,141
196,-1895,-1,95,-4688,23,-349,-152,143
197,-1896,-1,94,-4687,23,-348,-156,142
198,-1895,-1,95,-4688,23,-351,-155,141
199,-1895,0,96,-4686,23,-352,-156,141
200,-1893,0,96,-4687,23,-350,-156,142
201,-1894,-1,96,-4687,23,-349,-155,141
202,-1895,-1,94,-4690,23,-345,-155,143
203,-1896,-1,92,-4687,23,-345,-158,141
204,-1896,-1,93,-4687,23,-345,-157,143
205,-1896,-2,95,-4687,23,-346,-153,141
206,-1896,-1,93,-4687,23,-347,-152,140
207,-1896,-1,95,-4687,23,-347,-151,140
208,-1896,-1,96,-4687,23,-348,-149,140
209,-1897,-2,95,-4688,23,-346,-151,139
210,-1897,-1,94,-4687,23,-346,-150,140
211,-1896,-1,93,-4683,23,-348,-148,139
212,-1896,0,93,-4683,23,-348,-150,138
213,-1894,-1,91,-4684,23,-348,-153,137
214,-1894,-1,92,-4684,23,-348,-150,136
215,-1895,0,92,-4685,23,-347,-151,137
216,-1895,-1,92,-4685,23,-347,-152,140
217,-1894,-1,92,-4685,23,-346,-151,137
218,-1894,-2,93,-4685,23,-346,-151,140
219,-1895,-1,95,-4685,23,-347,-151,139
220,-1896,0,97,-4684,23,-347,-153,141
221,-1896,-1,95,-4685,23,-347,-152,141
222,-1896,0,95,-4685,23,-348,-152,141
223,-1895,-1,96,-4684,23,-349,-151,140
224,-1896,-1,96,-4683,23,-348,-149,139
225,-1896,-1,96,-4682,23,-347,-149,139
226,-1897,-2,96,-4683,23,-349,-149,140
227,-1896,-3,97,-4682,23,-350,-150,139
228,-1895,-2,97,-4682,23,-349,-152,136
229,-1895,-1,98,-4682,23,-348,-151,138
230,-1895,-1,98,-4683,23,-347,-149,138
231,-1895,-1,95,-4684,23,-349,-152,140
232,-1895,0,95,-4682,23,-349,-154,138
233,-1895,0,95,-4681,23,-347,-154,142
234,-1894,0,95,-4682,23,-347,-154,143
235,-1894,-1,95,-4681,23,-348,-153,142
236,-1895,-2,96,-4683,23,-346,-152,140
237,-1895,-2,94,-4683,23,-347,-152,139
238,-1895,-1,97,-4683,23,-348,-150,141
239,-1895,-2,97,-4682,23,-349,-149,141
240,-1895,-1,96,-4680,23,-349,-150,141
241,-1893,-1,96,-4680,23,-350,-150,139
242,-1894,-2,96,-4679,23,-348,-150,138
243,-1894,-3,97,-4679,23,-348,-151,138
244,-1894,-3,96,-4680,23,-347,-149,138
245,-1895,-3,96,-4680,23,-348,-151,139
246,-1896,-3,94,-4678,23,-348,-151,140
247,-1896,-3,95,-4680,23,-345,-152,140
248,-1896,-2,95,-4681,23,-345,-153,140
249,-1897,-1,94,-4680,23,-348,-152,143
250,-1897,-1,93,-4680,23,-347,-154,141
251,-1897,0,93,-4682,23,-346,-154,139
252,-1895,0,93,-4683,23,-346,-155,140
253,-1896,-1,94,-4683,23,-346,-153,138
254,-1896,-1,95,-4682,23,-345,-150,137
255,-1895,-1,95,-4682,23,-347,-151,137
256,-1894,-1,96,-4683,23,-347,-150,138
257,-1896,-1,94,-4682,23,-347,-152,140
258,-1895,-1,93,-4681,23,-347,-153,139
259,-1895,-1,93,-4678,23,-347,-150,138
260,-1896,-1,93,-4679,23,-349,-151,138
261,-1894,-1,96,-4678,23,-348,-150,138
262,-1894,-2,95,-4677,23,-348,-150,138
263,-1894,-2,95,-4677,23,-348,-152,138
264,-1894,-2,95,-4676,23,-348,-152,138
265,-1894,-1,94,-4676,23,-346,-151,139
266,-1894,-1,95,-4677,23,-347,-151,139
267,-1895,-1,92,-4676,23,-345,-153,139
268,-1894,-2,93,-4677,23,-347,-152,140
269,-1894,-4,93,-4677,23,-345,-151,139
270,-1894,-3,93,-4677,23,-346,-151,135
271,-1893,-2,94,-4678,23,-347,-150,137
272,-1894,-1,93,-4678,23,-348,-151,136
273,-1894,-1,92,-4678,23,-346,-149,137
274,-1894,-1,92,-4678,23,-347,-153,138
275,-1895,-2,93,-4678,23,-349,-152,138
276,-1895,-2,93,-4678,23,-350,-152,139
277,-1894,-1,92,-4675,23,-351,-150,137
278,-1895,-1,93,-4675,23,-352,-152,136
279,-1894,0,93,-4674,23,-352,-152,139
280,-1894,-1,94,-4675,23,-351,-154,141
281,-1894,-1,95,-4675,23,-349,-151,140
282,-1894,-2,93,-4675,23,-350,-151,140
283,-1894,-3,94,-4676,23,-350,-152,140
284,-1894,-4,94,-4676,23,-347,-153,138
285,-1894,-3,93,-4675,23,-347,-153,140
286,-1895,-1,91,-4677,23,-347,-153,140
287,-1895,-2,92,-4676,23,-349,-151,142
288,-1895,-1,93,-4676,23,-348,-154,141
289,-1895,-2,92,-4675,23,-347,-153,141
290,-1895,-1,93,-4674,23,-348,-153,140
291,-1896,-1,94,-4674,23,-347,-152,141
292,-1895,-2,93,-4674,23,-346,-151,140
293,-1895,-2,94,-4675,23,-348,-150,141
294,-1896,-2,96,-4675,23,-348,-150,140
295,-1896,-1,97,-4675,23,-347,-151,141
296,-1895,-1,97,-4674,23,-347,-152,141
297,-1894,-2,98,-4674,23,-346,-152,141
298,-1893,-2,95,-4675,23,-346,-151,140
299,-1894,-1,96,-4676,23,-348,-152,140
300,-1894,-1,95,-4675,23,-347,-151,140
301,-1895,-1,93,-4675,23,-346,-155,139
302,-1895,-2,93,-4674,23,-347,-155,139
303,-1895,-3,93,-4677,23,-346,-153,139
304,-1895,-3,93,-4674,23,-347,-153,140
305,-1895,-1,93,-4674,23,-349,-152,141
306,-1894,-3,94,-4674,23,-349,-152,141
307,-1894,-2,94,-4674,23,-346,-156,141
308,-1894,-2,94,-4674,23,-347,-157,143
309,-1893,-1,94,-4674,23,-348,-153,142
310,-1893,-2,94,-4674,23,-348,-152,141
311,-1893,-2,94,-4673,23,-348,-153,142
312,-1894,-2,94,-4674,23,-345,-155,140
313,-1893,-1,94,-4675,23,-344,-157,140
314,-1893,-2,93,-4677,23,-346,-156,139
315,-1893,-2,92,-4677,23,-346,-153,143
316,-1894,-2,93,-4676,23,-347,-154,142
317,-1893,-1,91,-4675,23,-348,-154,142
318,-1892,-1,92,-4674,23,-348,-150,142
319,-1892,0,91,-4674,23,-347,-152,142
320,-1892,0,93,-4674,23,-343,-154,139
321,-1892,0,93,-4674,23,-345,-153,138
322,-1892,-1,93,-4673,23,-344,-153,138
323,-1893,-2,94,-4672,23,-346,-152,137
324,-1892,-2,94,-4673,23,-346,-153,136
325,-1893,-2,94,-4673,23,-347,-152,137
326,-1893,-2,95,-4673,23,-348,-156,140
327,-1893,-1,95,-4673,23,-348,-154,139
328,-1892,-2,96,-4672,23,-349,-153,138
329,-1892,-1,96,-4672,23,-348,-155,139
330,-1892,-1,96,-4672,23,-350,-155,139
331,-1891,-1,97,-4671,23,-351,-156,139
332,-1894,-2,97,-4672,23,-350,-153,137
333,-1894,0,97,-4672,23,-350,-152,137
334,-1893,0,97,-4674,23,-349,-151,139
335,-1893,0,96,-4676,23,-349,-151,139
336,-1892,-1,94,-4676,23,-350,-151,137
337,-1891,-2,93,-4675,23,-347,-151,138
338,-1892,-2,92,-4674,23,-346,-154,137
339,-1894,-1,92,-4672,23,-348,-152,137
340,-1894,-2,93,-4672,23,-349,-150,138
341,-1895,-1,92,-4671,23,-348,-150,138
342,-1896,-1,94,-4671,23,-348,-149,137
343,-1896,-2,95,-4672,23,-351,-149,136
344,-1895,-1,95,-4671,23,-348,-149,136
345,-1895,-1,95,-4671,23,-348,-151,137
346,-1896,-2,95,-4671,23,-346,-151,137
347,-1897,-2,94,-4672,23,-347,-153,135
348,-1896,-3,94,-4671,23,-344,-155,139
349,-1896,-3,93,-4672,23,-347,-154,138
350,-1895,-2,94,-4672,23,-347,-154,139
351,-1895,-2,94,-4670,23,-348,-153,137
352,-1895,-1,93,-4670,23,-349,-154,138
353,-1896,-2,93,-4669,23,-349,-153,139
354,-1896,-1,93,-4671,23,-347,-153,137
355,-1895,-1,94,-4671,23,-347,-150,138
356,-1895,-1,93,-4672,23,-347,-152,138
357,-1892,-1,94,-4672,23,-348,-150,139
358,-1892,0,94,-4670,23,-349,-150,140
359,-1892,0,92,-4669,23,-350,-153,140
360,-1893,-1,92,-4670,23,-351,-155,140
361,-1892,-1,93,-4671,23,-348,-153,139
362,-1893,-2,92,-4672,23,-347,-155,140
363,-1893,-1,92,-4671,23,-346,-155,139
364,-1893,-2,92,-4670,23,-348,-152,139
365,-1895,-2,91,-4671,23,-349,-153,141
366,-1896,-2,92,-4669,23,-349,-151,141
367,-1895,-1,94,-4669,23,-349,-152,143
368,-1895,-1,93,-4671,23,-349,-153,143
369,-1896,-1,93,-4670,23,-348,-154,142
370,-1895,-1,93,-4669,23,-348,-154,143
371,-1893,-2,91,-4670,23,-348,-156,144
372,-1894,-3,90,-4669,23,-350,-154,142
373,-1894,-5,91,-4669,23,-353,-151,144
374,-1894,-5,91,-4668,23,-352,-150,142
375,-1893,-3,92,-4668,23,-351,-151,143
376,-1894,-4,94,-4668,23,-350,-152,144
377,-1893,-2,95,-4669,23,-348,-151,142
378,-1893,-2,94,-4670,23,-348,-152,142
379,-1893,-2,94,-4669,23,-347,-153,142
380,-1895,-1,94,-4669,23,-348,-152,141
381,-1895,-1,95,-4669,23,-349,-152,142
382,-1895,0,95,-4669,23,-350,-150,142
383,-1894,-1,94,-4668,23,-351,-150,142
384,-1895,-1,94,-4668,23,-353,-152,142
385,-1894,-2,93,-4667,23,-352,-152,140
386,-1895,-3,94,-4668,23,-350,-155,139
387,-1894,-2,95,-4668,23,-350,-156,139
388,-1894,-3,96,-4666,23,-350,-152,138
389,-1895,-1,95,-4667,23,-349,-153,138
390,-1895,-2,95,-4667,23,-351,-152,140
391,-1896,-3,93,-4668,23,-352,-153,142
392,-1896,-4,91,-4668,23,-351,-154,141
393,-1895,-3,92,-4667,23,-349,-151,140
394,-1896,-3,94,-4669,23,-349,-151,142
395,-1896,-2,92,-4666,23,-347,-154,140
396,-1896,-3,93,-4666,23,-347,-156,142
397,-1895,-2,94,-4663,23,-348,-155,141
398,-1895,-3,94,-4664,23,-347,-153,140
399,-1894,-1,94,-4664,23,-350,-151,139
400,-1896,-3,94,-4663,23,-348,-152,136
401,-1897,-3,93,-4665,23,-351,-154,136
402,-1896,-3,93,-4665,23,-350,-153,139
403,-1896,-2,94,-4665,23,-349,-152,140
404,-1896,-4,93,-4666,23,-349,-152,140
405,-1897,-3,93,-4667,23,-346,-152,142
406,-1896,-3,92,-4669,23,-348,-154,141
407,-1894,-2,93,-4669,23,-348,-154,141
408,-1893,-1,92,-4669,23,-348,-153,142
409,-1894,-2,90,-4668,23,-348,-152,141
410,-1894,-1,92,-4667,23,-348,-152,142
411,-1894,-2,92,-4666,23,-346,-152,142
412,-1894,-3,91,-4667,23,-345,-151,141
413,-1894,-3,93,-4667,23,-345,-152,140
414,-1894,-1,95,-4666,23,-345,-153,138
415,-1895,0,95,-4666,23,-344,-154,136
416,-1894,1,94,-4664,23,-347,-153,136
417,-1896,1,93,-4664,23,-350,-152,135
418,-1895,1,94,-4663,23,-347,-154,137
419,-1896,0,94,-4665,23,-347,-155,138
420,-1896,-1,94,-4665,23,-348,-154,140
421,-1895,-3,93,-4664,23,-348,-155,139
422,-1894,-3,95,-4664,23,-348,-157,140
423,-1894,-2,94,-4665,23,-347,-156,141
424,-1894,-2,94,-4663,23,-348,-154,140
425,-1895,-3,93,-4663,23,-347,-152,140
426,-1895,-2,93,-4663,23,-346,-150,138
427,-1895,-2,93,-4664,23,-345,-151,140
428,-1896,-3,92,-4662,23,-346,-153,140
429,-1894,-3,93,-4662,23,-349,-153,139
430,-1893,-2,93,-4662,23,-348,-151,139
431,-1895,-2,92,-4662,23,-348,-153,140
432,-1894,-3,93,-4662,23,-349,-150,141
433,-1894,-3,93,-4662,23,-349,-152,140
434,-1896,-4,92,-4662,23,-348,-151,140
435,-1895,-4,94,-4661,23,-348,-153,141
436,-1895,-3,92,-4662,23,-349,-151,144
437,-1895,-4,93,-4663,23,-348,-151,143
438,-1896,-5,92,-4664,23,-350,-151,143
439,-1894,-4,91,-4664,23,-349,-150,142
440,-1894,-4,92,-4666,23,-349,-150,140
441,-1894,-4,93,-4666,23,-350,-152,143
442,-1892,-3,94,-4665,23,-348,-149,141
443,-1893,-3,93,-4663,23,-346,-149,140
444,-1893,-3,92,-4664,23,-347,-151,138
445,-1894,-4,92,-4664,23,-346,-151,139
446,-1895,-3,94,-4663,23,-346,-152,141
447,-1895,-2,95,-4664,23,-348,-152,143
448,-1895,-1,95,-4663,23,-347,-154,141
449,-1895,-1,94,-4661,23,-351,-153,142
450,-1895,-2,94,-4662,23,-350,-153,140
451,-1895,-3,94,-4664,23,-349,-153,139
452,-1895,-2,93,-4662,23,-350,-152,140
453,-1895,-2,93,-4662,23,-350,-153,140
454,-1896,0,92,-4660,23,-349,-153,139
455,-1896,-1,93,-4660,23,-348,-151,139
456,-1895,0,93,-4658,23,-351,-153,138
457,-1896,0,92,-4659,23,-351,-154,138
458,-1896,-1,94,-4660,23,-350,-155,139
459,-1895,-1,92,-4662,23,-348,-153,140
460,-1895,-1,96,-4662,23,-348,-152,138
461,-1895,0,95,-4662,23,-349,-152,138
462,-1895,-1,94,-4661,23,-348,-150,138
463,-1895,-3,94,-4662,23,-349,-151,139
464,-1895,-3,94,-4660,23,-349,-152,139
465,-1896,-2,94,-4660,23,-349,-148,140
466,-1895,-1,96,-4661,23,-350,-151,141
467,-1896,0,93,-4661,23,-348,-152,141
468,-1895,0,92,-4661,23,-348,-151,142
469,-1895,1,93,-4661,23,-350,-150,142
470,-1896,0,93,-4661,23,-350,-152,140
471,-1896,-1,94,-4659,23,-350,-151,139
472,-1897,-2,94,-4659,23,-349,-151,140
473,-1897,-3,95,-4659,23,-351,-151,139
474,-1896,-2,94,-4659,23,-350,-152,140
475,-1895,-1,94,-4659,23,-348,-153,140
476,-1895,-2,94,-4659,23,-349,-154,141
477,-1895,-1,94,-4659,23,-350,-154,142
478,-1894,-2,93,-4657,23,-349,-151,143
479,-1894,-1,95,-4659,23,-350,-150,142
480,-1894,0,96,-4658,23,-349,-149,145
481,-1895,-1,96,-4659,23,-348,-150,143
482,-1896,-2,94,-4659,23,-348,-154,141
483,-1895,-2,93,-4660,23,-348,-155,139
484,-1895,-2,93,-4659,23,-350,-155,138
485,-1894,-3,94,-4659,23,-352,-156,140
486,-1894,-2,94,-4658,23,-353,-155,139
487,-1895,-2,93,-4658,23,-354,-154,139
488,-1896,-2,94,-4656,23,-354,-153,141
489,-1896,-3,93,-4658,23,-351,-152,138
490,-1895,-3,93,-4657,23,-349,-156,139
491,-1895,-3,93,-4659,23,-349,-154,137
492,-1896,-3,94,-4659,23,-350,-153,138
493,-1895,-2,94,-4658,23,-349,-155,138
494,-1895,-3,94,-4658,23,-350,-152,139
495,-1894,-4,93,-4661,23,-350,-152,141
496,-1894,-4,94,-4660,23,-350,-149,143
497,-1894,-3,93,-4659,23,-350,-147,141
498,-1894,-3,93,-4661,23,-351,-149,139
499,-1894,-3,93,-4660,23,-351,-147,139
500,-1894,-2,94,-4661,23,-350,-150,137
501,-1894,-2,94,-4660,23,-349,-151,138
502,-1894,-2,92,-4662,23,-346,-151,138
503,-1895,-2,90,-4662,23,-348,-150,138
504,-1895,-2,92,-4661,23,-350,-150,137
505,-1896,-1,93,-4660,23,-349,-151,140
506,-1895,-1,93,-4660,23,-351,-152,138
507,-1896,-2,93,-4659,23,-350,-154,138
508,-1896,-1,93,-4658,23,-352,-155,138
509,-1896,-1,95,-4658,23,-351,-152,140
510,-1896,-1,95,-4657,23,-352,-152,139
511,-1895,-2,94,-4655,23,-352,-154,140
512,-1894,0,94,-4655,23,-353,-156,140
513,-1895,-1,93,-4656,23,-354,-155,140
514,-1895,-1,94,-4657,23,-352,-157,141
515,-1895,0,94,-4657,23,-351,-158,142
516,-1895,0,93,-4657,23,-353,-156,141
517,-1895,0,93,-4656,23,-351,-156,142
518,-1895,0,92,-4657,23,-352,-155,142
519,-1894,0,92,-4656,23,-350,-151,143
520,-1894,0,93,-4656,23,-349,-151,142
521,-1894,1,91,-4657,23,-350,-152,142
522,-1892,0,91,-4659,23,-350,-151,141
523,-1893,-1,92,-4657,23,-348,-151,140
524,-1893,-1,93,-4658,23,-348,-148,139
525,-1893,-1,93,-4658,23,-348,-152,141
526,-1894,0,95,-4657,23,-351,-152,141
527,-1895,-1,96,-4658,23,-351,-150,141
528,-1894,-2,94,-4659,23,-350,-152,140
529,-1894,-1,94,-4659,23,-349,-151,139
530,-1893,-2,96,-4657,23,-347,-152,138
531,-1894,-1,94,-4656,23,-349,-150,139
532,-1894,-2,94,-4657,23,-348,-151,140
533,-1894,-2,95,-4656,23,-347,-152,140
534,-1895,-1,94,-4658,23,-346,-153,140
535,-1896,-1,95,-4657,23,-347,-151,142
536,-1895,-2,96,-4657,23,-349,-154,141
537,-1895,-1,97,-4657,23,-348,-153,141
538,-1895,0,97,-4656,23,-349,-153,140
539,-1896,1,96,-4656,23,-349,-153,139
540,-1896,-1,95,-4656,23,-350,-156,138
541,-1897,-1,94,-4655,23,-351,-156,139
542,-1896,-1,92,-4656,23,-352,-155,141
543,-1897,-1,95,-4654,23,-351,-154,142
544,-1898,-1,93,-4654,23,-354,-152,140
545,-1897,-2,93,-4653,23,-353,-152,138
546,-1898,-2,94,-4653,23,-350,-152,138
547,-1897,-2,95,-4652,23,-351,-153,138
548,-1897,-3,95,-4651,23,-351,-151,138
549,-1897,-2,96,-4653,23,-352,-153,140
550,-1896,-2,95,-4654,23,-348,-154,140
551,-1896,-1,94,-4653,23,-348,-154,139
552,-1895,-2,93,-4654,23,-348,-154,139
553,-1895,-3,94,-4653,23,-348,-152,141
554,-1895,-1,95,-4653,23,-347,-153,141
555,-1896,-1,94,-4654,23,-349,-152,139
556,-1896,-1,94,-4653,23,-350,-148,138
557,-1896,-1,93,-4654,23,-350,-147,138
558,-1895,-2,93,-4654,23,-349,-149,139
559,-1894,-2,93,-4654,23,-350,-151,140
560,-1894,-1,94,-4656,23,-349,-151,138
561,-1894,-1,95,-4654,23,-351,-150,138
562,-1894,0,95,-4655,23,-351,-152,141
563,-1894,-1,96,-4654,23,-351,-152,140
564,-1894,-1,95,-4655,23,-350,-155,142
565,-1894,-3,93,-4655,23,-347,-154,141
566,-1896,-2,92,-4654,23,-348,-154,143
567,-1895,-3,92,-4655,23,-350,-155,143
568,-1896,-2,92,-4655,23,-348,-154,142
569,-1895,-2,92,-4654,23,-347,-155,141
570,-1895,-2,91,-4653,23,-347,-155,142
571,-1894,-2,90,-4654,23,-348,-156,140
572,-1894,-1,92,-4654,23,-349,-154,139
573,-1894,0,92,-4653,23,-348,-154,141
574,-1895,0,93,-4653,23,-349,-155,140
575,-1896,0,92,-4655,23,-350,-154,141
576,-1895,0,91,-4657,23,-349,-151,142
577,-1896,-1,91,-4655,23,-350,-151,140
578,-1894,-2,92,-4653,23,-351,-148,140
579,-1894,-1,93,-4652,23,-350,-148,139
580,-1895,-1,92,-4651,23,-350,-149,139
581,-1896,-2,93,-4652,23,-348,-150,139
582,-1896,-1,94,-4654,23,-349,-151,139
583,-1896,0,93,-4654,23,-349,-152,142
584,-1895,0,95,-4655,23,-349,-153,141
585,-1896,0,94,-4654,23,-351,-153,139
586,-1896,-1,93,-4654,23,-350,-152,140
587,-1897,-1,92,-4655,23,-349,-154,138
588,-1897,0,93,-4653,23,-351,-155,138
589,-1896,0,94,-4651,23,-351,-155,137
590,-1895,-1,94,-4655,23,-350,-153,139
591,-1895,-1,95,-4655,23,-352,-151,137
592,-1895,-2,94,-4655,23,-352,-153,138
593,-1895,-3,95,-4657,23,-351,-154,137
594,-1895,-2,96,-4658,23,-349,-152,137
595,-1894,-1,96,-4657,23,-349,-154,138
596,-1893,0,95,-4655,23,-350,-155,139
597,-1894,-1,94,-4656,23,-350,-153,140
598,-1894,-3,94,-4654,23,-351,-154,139
599,-1894,-2,94,-4655,23,-349,-155,139
600,-1894,-2,95,-4655,23,-351,-154,139
601,-1895,-3,96,-4653,23,-350,-154,137
602,-1895,-2,99,-4652,23,-350,-153,137
603,-1894,-3,98,-4652,23,-349,-152,138
604,-1895,-2,98,-4655,23,-348,-151,140
605,-1896,-2,98,-4656,23,-349,-149,141
606,-1896,-1,98,-4657,23,-349,-147,139
607,-1895,-2,96,-4657,23,-348,-149,141
608,-1896,-2,96,-4657,23,-350,-150,140
609,-1896,-2,97,-4655,23,-348,-151,141
610,-1897,-1,96,-4654,23,-348,-150,141
611,-1898,0,97,-4655,23,-350,-150,141
612,-1898,1,96,-4656,23,-349,-150,140
613,-1897,1,96,-4653,23,-349,-150,140
614,-1897,0,98,-4652,23,-349,-146,141
615,-1897,-1,97,-4652,23,-349,-145,141
616,-1897,-1,96,-4653,23,-350,-147,142
617,-1897,-1,96,-4652,23,-349,-150,142
618,-1897,-1,95,-4652,23,-349,-151,141
619,-1896,-2,95,-4651,23,-349,-149,141
620,-1894,-3,95,-4652,23,-348,-150,141
621,-1893,-2,96,-4650,23,-347,-154,140
622,-1893,-3,95,-4651,23,-348,-153,142
623,-1892,-1,95,-4648,23,-349,-152,143
624,-1893,0,96,-4648,23,-348,-152,144
625,-1893,-1,96,-4650,23,-350,-154,143
626,-1892,-1,96,-4649,23,-349,-154,142
627,-1893,-3,96,-4651,23,-349,-154,141
628,-1893,-3,96,-4650,23,-348,-152,141
629,-1895,-4,96,-4649,23,-346,-152,140
630,-1895,-3,95,-4650,23,-347,-153,137
631,-1895,-2,93,-4650,23,-348,-151,139
632,-1895,-2,92,-4649,23,-346,-151,139
633,-1895,0,92,-4650,23,-348,-153,137
634,-1895,0,93,-4652,23,-347,-151,138
635,-1896,0,93,-4652,23,-347,-152,139
636,-1895,0,93,-4652,23,-348,-153,138
637,-1895,0,92,-4652,23,-351,-156,140
638,-1894,0,92,-4653,23,-348,-156,141
639,-1895,-1,91,-4654,23,-348,-155,141
640,-1895,-1,93,-4654,23,-348,-152,142
641,-1896,-1,94,-4654,23,-348,-152,141
642,-1895,-2,94,-4654,23,-348,-151,141
643,-1895,-2,92,-4654,23,-348,-152,139
644,-1894,-2,94,-4654,23,-348,-153,139
645,-1894,-3,96,-4652,23,-349,-153,138
646,-1894,-1,96,-4651,23,-350,-154,140
647,-1893,0,95,-4651,23,-351,-151,142
648,-1894,0,95,-4651,23,-352,-151,143
649,-1894,-1,95,-4651,23,-351,-153,142
650,-1894,-2,94,-4651,23,-351,-153,142
651,-1893,-2,93,-4653,23,-351,-153,142
652,-1894,-2,94,-4653,23,-353,-151,140
653,-1895,-2,94,-4654,23,-352,-153,142
654,-1895,-2,94,-4654,23,-351,-155,141
655,-1895,-2,94,-4652,23,-350,-153,139
656,-1896,-1,95,-4651,23,-352,-152,140
657,-1895,-1,93,-4650,23,-352,-151,139
658,-1895,0,95,-4650,23,-350,-153,139
659,-1895,-1,93,-4651,23,-350,-150,138
660,-1895,-1,93,-4652,23,-352,-151,136
661,-1895,-1,93,-4652,23,-352,-152,136
662,-1896,-1,92,-4653,23,-351,-154,137
663,-1896,-1,92,-4654,23,-351,-154,139
664,-1895,-1,92,-4653,23,-351,-154,139
665,-1894,-1,91,-4653,23,-351,-154,138
666,-1893,-2,92,-4651,23,-350,-155,139
667,-1893,-2,93,-4650,23,-350,-154,141
668,-1894,-2,94,-4650,23,-348,-155,141
669,-1893,-3,94,-4652,23,-349,-157,139
670,-1895,-3,94,-4651,23,-350,-154,141
671,-1894,-3,94,-4650,23,-351,-156,140
672,-1894,-3,96,-4650,23,-351,-156,140
673,-1894,-3,96,-4649,23,-351,-153,138
674,-1894,-3,96,-4649,23,-350,-153,137
675,-1894,-3,96,-4649,23,-349,-150,139
676,-1895,-4,95,-4650,23,-350,-150,139
677,-1895,-3,94,-4650,23,-351,-149,136
678,-1895,-3,94,-4649,23,-350,-148,139
679,-1894,-3,92,-4649,23,-350,-150,139
680,-1894,-3,92,-4648,23,-350,-152,138
681,-1895,-2,94,-4649,23,-348,-151,138
682,-1895,-2,95,-4650,23,-350,-151,138
683,-1894,-2,94,-4650,23,-349,-152,138
684,-1895,-1,94,-4650,23,-349,-152,141
685,-1894,-2,93,-4650,23,-349,-151,140
686,-1895,-2,92,-4649,23,-350,-153,139
687,-1895,-3,93,-4648,23,-349,-153,140
688,-1895,-3,95,-4647,23,-350,-152,142
689,-1896,-5,96,-4646,23,-348,-151,140
690,-1895,-4,96,-4647,23,-349,-152,143
691,-1897,-2,96,-4648,23,-348,-152,142
692,-1896,-1,96,-4649,23,-347,-154,142
693,-1895,-1,97,-4649,23,-346,-152,143
694,-1896,-2,95,-4648,23,-346,-152,143
695,-1896,-2,95,-4647,23,-347,-157,144
696,-1896,-1,93,-4648,23,-350,-155,143
697,-1896,-2,94,-4648,23,-349,-155,143
698,-1895,-2,93,-4648,23,-350,-155,142
699,-1894,-1,92,-4650,23,-351,-153,142
700,-1895,-1,94,-4650,23,-351,-153,144
701,-1895,-2,94,-4650,23,-352,-150,144
702,-1895,-2,93,-4650,23,-352,-149,143
703,-1895,-1,94,-4651,23,-352,-148,141
704,-1896,-2,94,-4651,23,-353,-149,141
705,-1895,-3,95,-4649,23,-351,-152,140
706,-1895,-3,92,-4649,23,-352,-151,141
707,-1895,-2,90,-4649,23,-352,-150,140
708,-1895,-2,91,-4650,23,-351,-152,138
709,-1894,-3,90,-4649,23,-352,-152,137
710,-1895,-2,92,-4648,23,-353,-155,138
711,-1895,-2,92,-4649,23,-353,-157,139
712,-1895,-3,92,-4647,23,-352,-156,140
713,-1894,-2,93,-4648,23,-351,-154,139
714,-1894,-2,92,-4648,23,-349,-153,140
715,-1894,-1,93,-4649,23,-349,-152,139
716,-1895,-2,95,-4648,23,-350,-152,143
717,-1895,-2,94,-4647,23,-352,-149,143
718,-1896,-2,94,-4646,23,-352,-151,142
719,-1895,-1,94,-4647,23,-352,-150,141
720,-1896,-2,93,-4648,23,-350,-147,141
721,-1896,-2,95,-4648,23,-352,-149,142
722,-1896,-2,95,-4649,23,-353,-151,142
723,-1895,-2,92,-4648,23,-353,-153,143
724,-1895,-1,90,-4647,23,-353,-155,142
725,-1895,-1,92,-4646,23,-353,-155,143
726,-1896,-2,92,-4646,23,-354,-151,142
727,-1896,-2,93,-4647,23,-353,-155,141
728,-1895,-2,95,-4646,23,-353,-156,139
729,-1894,-3,93,-4646,23,-352,-156,141
730,-1895,-2,92,-4646,23,-351,-155,140
731,-1896,-1,92,-4646,23,-354,-152,140
732,-1894,-1,93,-4645,23,-353,-151,141
733,-1894,0,95,-4646,23,-353,-154,141
734,-1894,-2,96,-4646,23,-350,-153,141
735,-1895,-2,96,-4647,23,-351,-153,142
736,-1895,-3,97,-4647,23,-351,-153,141
737,-1896,-4,95,-4646,23,-347,-151,142
738,-1895,-3,93,-4646,23,-346,-154,141
739,-1894,-4,94,-4649,23,-347,-152,139
740,-1895,-4,94,-4647,23,-348,-152,141
741,-1895,-3,93,-4647,23,-349,-152,140
742,-1894,-4,93,-4647,23,-348,-152,140
743,-1894,-1,94,-4647,23,-347,-152,140
744,-1895,0,94,-4649,23,-345,-152,140
745,-1894,0,93,-4649,23,-346,-155,139
746,-1894,0,92,-4647,23,-343,-155,138
747,-1893,0,93,-4645,23,-348,-154,136
748,-1894,-1,94,-4646,23,-351,-152,135
749,-1894,-1,95,-4646,23,-351,-151,134
750,-1894,-1,93,-4647,23,-351,-153,135
751,-1894,-1,91,-4646,23,-350,-154,137
752,-1895,-1,92,-4646,23,-350,-153,139
753,-1895,0,91,-4646,23,-351,-153,138
754,-1894,0,93,-4646,23,-350,-152,139
755,-1893,-1,92,-4648,23,-350,-155,138
756,-1894,-2,93,-4648,23,-352,-157,138
757,-1894,-2,92,-4649,23,-347,-155,139
758,-1893,-2,93,-4647,23,-347,-154,140
759,-1894,-2,94,-4645,23,-349,-154,139
760,-1895,-1,94,-4646,23,-348,-152,140
761,-1896,-2,94,-4646,23,-346,-151,140
762,-1895,-2,96,-4645,23,-348,-151,142
763,-1895,-3,95,-4643,23,-349,-153,143
764,-1895,-3,95,-4644,23,-348,-152,140
765,-1895,-3,96,-4642,23,-347,-149,142
766,-1896,-3,96,-4642,23,-347,-148,140
767,-1896,-3,93,-4643,23,-349,-148,140
768,-1895,-2,94,-4645,23,-347,-152,138
769,-1895,-1,94,-4646,23,-346,-153,138
770,-1894,-2,93,-4644,23,-347,-151,136
771,-1894,-1,93,-4644,23,-347,-152,137
772,-1893,-1,93,-4644,23,-349,-153,137
773,-1893,-1,93,-4644,23,-348,-153,136
774,-1894,-1,93,-4644,23,-347,-154,137
775,-1895,-2,93,-4645,23,-346,-154,137
776,-1895,-2,93,-4645,23,-344,-152,139
777,-1896,-2,93,-4647,23,-345,-150,141
778,-1895,-2,93,-4645,23,-347,-150,140
779,-1894,-1,93,-4644,23,-347,-149,137
780,-1895,-2,93,-4645,23,-348,-150,136
781,-1895,-2,94,-4644,23,-349,-150,135
782,-1896,-1,93,-4643,23,-349,-151,135
783,-1896,-1,93,-4643,23,-348,-150,137
784,-1897,-2,94,-4641,23,-351,-150,139
785,-1895,-3,94,-4641,23,-348,-152,141
786,-1895,-3,93,-4644,23,-347,-151,141
787,-1896,-2,93,-4644,23,-347,-152,140
788,-1895,-2,92,-4644,23,-349,-151,141
789,-1895,-2,93,-4643,23,-348,-152,142
790,-1896,-1,92,-4642,23,-349,-157,141
791,-1895,0,91,-4642,23,-351,-156,142
792,-1894,-2,91,-4642,23,-350,-154,140
793,-1894,-2,90,-4643,23,-350,-155,140
794,-1895,-2,90,-4643,23,-350,-152,139
795,-1895,-1,91,-4643,23,-348,-153,140
796,-1895,-2,92,-4644,23,-347,-153,141
797,-1894,-4,93,-4642,23,-349,-152,142
798,-1895,-3,92,-4642,23,-351,-153,144
799,-1895,-2,93,-4643,23,-352,-152,145
800,-1896,-2,92,-4645,23,-353,-152,143
801,-1896,-3,91,-4646,23,-354,-154,142
802,-1895,-4,90,-4646,23,-354,-153,142
803,-1895,-3,91,-4646,23,-352,-153,141
804,-1895,-4,93,-4645,23,-352,-151,143
805,-1896,-3,96,-4644,23,-352,-152,142
806,-1895,-2,96,-4643,23,-352,-151,139
807,-1895,-2,95,-4643,23,-349,-151,141
808,-1896,-3,93,-4643,23,-349,-151,143
809,-1896,-3,93,-4643,23,-353,-149,143
810,-1895,-3,93,-4644,23,-351,-149,142
811,-1897,-3,93,-4643,23,-353,-148,143
812,-1895,-3,94,-4643,23,-350,-150,143
813,-1896,-3,92,-4643,23,-349,-151,142
814,-1896,-3,93,-4644,23,-350,-151,142
815,-1896,-4,94,-4643,23,-349,-151,142
816,-1895,-3,93,-4643,23,-351,-151,143
817,-1895,-2,94,-4641,23,-350,-154,142
818,-1894,-1,94,-4641,23,-349,-151,142
819,-1895,0,94,-4643,23,-349,-153,142
820,-1896,0,93,-4643,23,-351,-153,141
821,-1896,-1,92,-4642,23,-354,-152,140
822,-1896,0,94,-4642,23,-353,-153,139
823,-1895,-1,94,-4642,23,-351,-154,139
824,-1895,0,93,-4641,23,-352,-154,140
825,-1895,1,93,-4643,23,-348,-152,140
826,-1896,1,93,-4641,23,-349,-150,140
827,-1895,0,93,-4643,23,-348,-149,140
828,-1896,0,93,-4644,23,-349,-150,141
829,-1895,-1,93,-4643,23,-348,-150,143
830,-1896,-1,92,-4641,23,-347,-151,142
831,-1896,-1,93,-4641,23,-347,-153,142
832,-1895,-1,94,-4642,23,-346,-152,141
833,-1896,-1,94,-4642,23,-347,-154,140
834,-1895,-1,95,-4641,23,-347,-153,140
835,-1895,-1,96,-4640,23,-348,-153,142
836,-1895,-1,95,-4639,23,-348,-152,142
837,-1894,-2,95,-4640,23,-349,-153,141
838,-1895,-2,96,-4640,23,-349,-153,141
839,-1895,-1,95,-4640,23,-348,-152,141
840,-1896,-2,95,-4641,23,-350,-152,140
841,-1895,-2,94,-4641,23,-349,-151,139
842,-1894,-1,92,-4643,23,-349,-152,140
843,-1894,-2,92,-4643,23,-348,-152,141
844,-1894,-2,92,-4642,23,-349,-152,143
845,-1893,-1,94,-4641,23,-350,-150,143
846,-1893,-1,94,-4641,23,-349,-151,142
847,-1892,-2,93,-4642,23,-349,-150,143
848,-1892,-2,93,-4642,23,-348,-153,142
849,-1894,-1,93,-4644,23,-348,-151,140
850,-1893,-1,94,-4644,23,-347,-150,139
851,-1895,-2,95,-4641,23,-346,-150,142
852,-1894,-2,95,-4641,23,-348,-150,142
853,-1896,-1,95,-4643,23,-349,-151,142
854,-1895,-1,93,-4640,23,-349,-152,143
855,-1895,0,92,-4642,23,-350,-153,142
856,-1894,0,91,-4642,23,-350,-153,142
857,-1895,-1,91,-4642,23,-349,-153,140
858,-1896,-1,93,-4641,23,-350,-152,142
859,-1896,-1,92,-4642,23,-350,-153,144
860,-1896,0,92,-4641,23,-352,-153,145
861,-1895,0,92,-4642,23,-351,-152,146
862,-1894,0,91,-4641,23,-350,-154,145
863,-1894,-2,91,-4642,23,-349,-153,142
864,-1894,-2,90,-4643,23,-350,-151,141
865,-1894,-2,92,-4642,23,-349,-152,140
866,-1893,-1,95,-4642,23,-348,-154,141
867,-1894,-1,95,-4642,23,-349,-153,139
868,-1895,-1,94,-4642,23,-349,-152,137
869,-1895,-2,95,-4643,23,-351,-152,139
870,-1895,-2,95,-4643,23,-351,-152,140
871,-1895,-2,94,-4640,23,-350,-151,140
872,-1894,-2,94,-4639,23,-352,-151,139
873,-1895,-1,95,-4640,23,-352,-151,140
874,-1894,-1,95,-4642,23,-350,-150,138
875,-1895,-1,96,-4642,23,-348,-149,138
876,-1896,-1,96,-4642,23,-348,-150,138
877,-1894,-1,95,-4642,23,-348,-148,138
878,-1895,-1,95,-4643,23,-349,-146,139
879,-1895,-2,95,-4642,23,-348,-148,140
880,-1897,-3,95,-4641,23,-349,-149,140
881,-1895,-3,96,-4641,23,-349,-148,141
882,-1895,-4,95,-4640,23,-349,-150,142
883,-1895,-3,93,-4640,23,-350,-151,142
884,-1895,-2,92,-4641,23,-349,-150,141
885,-1896,-3,93,-4639,23,-351,-151,141
886,-1895,-3,93,-4640,23,-351,-150,140
887,-1895,-2,95,-4640,23,-353,-151,142
888,-1893,-3,95,-4640,23,-351,-151,141
889,-1894,-3,94,-4641,23,-351,-152,139
890,-1894,-3,92,-4639,23,-350,-151,140
891,-1894,-3,92,-4642,23,-348,-149,140
892,-1895,-3,92,-4641,23,-346,-149,139
893,-1894,-4,92,-4641,23,-350,-149,139
894,-1895,-3,95,-4640,23,-350,-148,138
895,-1895,-4,94,-4639,23,-350,-146,138
896,-1895,-3,93,-4640,23,-349,-148,139
897,-1895,-3,95,-4640,23,-351,-149,137
898,-1895,-3,94,-4640,23,-350,-147,139
899,-1895,-4,92,-4638,23,-348,-149,140
900,-1895,-3,94,-4638,23,-350,-151,142
901,-1894,-4,92,-4638,23,-346,-151,140
902,-1894,-3,91,-4637,23,-346,-151,143
903,-1893,-3,93,-4639,23,-348,-151,143
904,-1893,-2,91,-4641,23,-349,-149,143
905,-1894,-2,91,-4642,23,-349,-149,142
906,-1894,-1,91,-4642,23,-352,-153,144
907,-1894,0,92,-4641,23,-350,-152,145
908,-1894,-1,92,-4641,23,-349,-152,143
909,-1894,-1,94,-4640,23,-350,-151,142
910,-1893,-2,96,-4639,23,-349,-151,143
911,-1894,-2,95,-4638,23,-350,-149,143
912,-1894,-4,96,-4638,23,-349,-151,144
913,-1894,-4,94,-4640,23,-348,-151,141
914,-1894,-5,95,-4641,23,-345,-149,140
915,-1894,-3,94,-4640,23,-345,-151,141
916,-1894,-4,93,-4641,23,-347,-152,140
917,-1893,-1,93,-4641,23,-347,-149,138
918,-1893,-1,94,-4641,23,-346,-150,139
919,-1893,-2,94,-4640,23,-348,-151,137
920,-1894,-3,94,-4641,23,-348,-151,138
921,-1894,-3,95,-4641,23,-348,-152,137
922,-1894,-3,95,-4642,23,-348,-152,137
923,-1895,-3,96,-4641,23,-347,-150,140
924,-1894,-2,96,-4641,23,-348,-152,142
925,-1894,-2,97,-4641,23,-347,-155,142
926,-1894,-3,95,-4640,23,-345,-154,139
927,-1894,-2,96,-4639,23,-346,-156,141
928,-1896,-2,94,-4639,23,-345,-153,139
929,-1896,-1,93,-4637,23,-345,-155,139
930,-1896,-1,94,-4639,23,-347,-151,140
931,-1896,0,93,-4638,23,-349,-150,139
932,-1895,0,91,-4639,23,-350,-150,142
933,-1894,0,90,-4639,23,-350,-150,141
934,-1895,-2,90,-4639,23,-349,-150,140
935,-1895,-1,91,-4640,23,-348,-151,140
936,-1895,-1,93,-4638,23,-350,-150,139
937,-1894,-2,95,-4639,23,-349,-150,140
938,-1894,-2,95,-4637,23,-352,-149,142
939,-1895,-3,95,-4634,23,-351,-151,142
940,-1895,-5,95,-4634,23,-353,-151,143
941,-1896,-4,95,-4633,23,-352,-153,141
942,-1895,-4,96,-4634,23,-350,-154,141
943,-1895,-3,95,-4635,23,-349,-155,140
944,-1895,-3,96,-4637,23,-349,-155,139
945,-1895,-3,97,-4637,23,-347,-155,140
946,-1896,-3,96,-4638,23,-347,-154,140
947,-1896,-4,95,-4637,23,-348,-155,139
948,-1895,-2,96,-4638,23,-349,-154,138
949,-1894,-2,97,-4636,23,-349,-153,138
950,-1893,-2,97,-4636,23,-350,-153,139
951,-1894,-2,96,-4637,23,-349,-155,141
952,-1893,-2,94,-4637,23,-348,-152,140
953,-1893,-1,93,-4637,23,-349,-151,140
954,-1893,-1,91,-4637,23,-347,-154,139
955,-1893,-1,93,-4637,23,-349,-154,141
956,-1893,-1,94,-4634,23,-349,-152,141
957,-1894,-2,95,-4635,23,-349,-153,142
958,-1894,-1,95,-4634,23,-348,-154,142
959,-1896,-1,94,-4635,23,-348,-152,141
960,-1896,-1,94,-4634,23,-348,-150,142
961,-1897,0,93,-4634,23,-351,-147,142
962,-1895,-1,92,-4636,23,-351,-147,139
963,-1894,-1,93,-4637,23,-351,-147,139
964,-1895,-1,93,-4638,23,-350,-144,141
965,-1895,-1,94,-4639,23,-349,-147,142
966,-1896,-1,96,-4639,23,-349,-149,141
967,-1896,-1,96,-4639,23,-348,-149,140
968,-1895,-1,96,-4638,23,-351,-151,140
969,-1896,-1,95,-4638,23,-352,-151,140
970,-1895,0,95,-4641,23,-353,-150,140
971,-1894,-1,95,-4641,23,-354,-149,140
972,-1894,-2,95,-4641,23,-353,-148,139
973,-1894,-1,95,-4640,23,-354,-149,138
974,-1894,-1,95,-4639,23,-352,-149,139
975,-1893,0,95,-4637,23,-352,-148,140
976,-1894,-2,94,-4638,23,-351,-149,142
977,-1894,-3,95,-4638,23,-352,-149,142
978,-1895,-2,96,-4639,23,-353,-149,142
979,-1895,-2,95,-4638,23,-352,-149,140
980,-1894,-1,94,-4639,23,-353,-150,138
981,-1896,-1,96,-4641,23,-354,-152,140
982,-1896,-1,96,-4640,23,-354,-151,139
983,-1896,-2,96,-4640,23,-352,-155,140
984,-1896,-2,97,-4641,23,-351,-156,141
985,-1895,-2,96,-4640,23,-350,-154,139
986,-1894,-3,96,-4640,23,-348,-154,139
987,-1895,-3,96,-4637,23,-347,-152,142
988,-1895,-3,95,-4636,23,-348,-152,142
989,-1894,-3,96,-4637,23,-349,-149,140
990,-1895,-3,96,-4637,23,-349,-151,141
991,-1895,-3,96,-4636,23,-349,-149,140
992,-1896,-3,93,-4636,23,-348,-150,141
993,-1896,-3,92,-4636,23,-347,-151,142
994,-1896,-2,94,-4636,23,-347,-149,142
995,-1896,-3,95,-4637,23,-348,-150,140
