,acc_X,acc_Y,acc_Z,temp,tempC,gyr_X,gyr_Y,gyr_Z
0,-15152,-26,716,-4739,23,-352,-157,138
1,-15148,-30,730,-4740,23,-350,-157,137
2,-15164,-10,738,-4741,23,-347,-155,141
3,-15176,0,724,-4738,23,-352,-156,142
4,-15162,-12,724,-4736,23,-351,-157,140
5,-15172,-14,718,-4734,23,-354,-152,141
6,-15166,-10,742,-4735,23,-349,-155,138
7,-15142,-2,732,-4731,23,-348,-160,138
8,-15146,-8,742,-4734,23,-346,-156,139
9,-15158,-20,754,-4733,23,-346,-157,134
10,-15146,-26,770,-4733,23,-349,-159,137
11,-15150,-16,738,-4731,23,-347,-156,136
12,-15138,-20,740,-4731,23,-347,-155,138
13,-15166,-14,740,-4732,23,-349,-157,139
14,-15154,-2,744,-4730,23,-348,-160,140
15,-15158,-18,730,-4734,23,-350,-158,140
16,-15148,-16,720,-4735,23,-346,-158,135
17,-15152,-8,738,-4735,23,-344,-154,141
18,-15172,-30,726,-4732,23,-342,-156,138
19,-15158,-32,742,-4733,23,-342,-151,137
20,-15150,-28,744,-4731,23,-336,-154,139
21,-15140,-22,734,-4731,23,-338,-153,140
22,-15142,-16,714,-4733,23,-345,-148,139
23,-15160,0,718,-4736,23,-344,-147,136
24,-15136,6,714,-4737,23,-343,-149,137
25,-15136,-14,762,-4734,23,-347,-150,137
26,-15150,-18,726,-4733,23,-348,-151,138
27,-15144,0,734,-4733,23,-352,-150,137
28,-15160,0,736,-4730,23,-352,-150,137
29,-15164,-4,726,-4730,23,-349,-150,137
30,-15142,-10,740,-4725,23,-345,-154,140
31,-15140,-8,754,-4726,23,-343,-151,140
32,-15166,-4,728,-4727,23,-341,-150,136
33,-15176,-2,732,-4727,23,-342,-152,139
34,-15178,-6,744,-4725,23,-345,-151,139
35,-15166,-24,746,-4725,23,-345,-150,137
36,-15174,0,754,-4729,23,-343,-149,137
37,-15162,10,778,-4729,23,-344,-146,136
38,-15160,2,742,-4726,23,-344,-147,135
39,-15156,-2,754,-4723,23,-346,-149,134
40,-15168,-2,758,-4722,23,-343,-148,135
41,-15160,-24,770,-4726,23,-342,-149,140
42,-15168,-38,750,-4726,23,-346,-148,140
43,-15150,-18,754,-4724,23,-343,-150,142
44,-15162,-18,756,-4723,23,-341,-154,141
45,-15170,-22,756,-4724,23,-343,-154,145
46,-15160,-14,740,-4725,23,-343,-150,143
47,-15164,-2,746,-4728,23,-344,-153,138
48,-15148,-32,726,-4727,23,-340,-149,137
49,-15146,-32,734,-4727,23,-347,-148,139
50,-15148,-32,716,-4725,23,-348,-145,139
51,-15148,-22,740,-4723,23,-348,-145,142
52,-15150,-18,762,-4722,23,-343,-150,141
53,-15140,-6,762,-4721,23,-341,-153,141
54,-15158,-4,760,-4720,23,-342,-151,143
55,-15158,-18,734,-4720,23,-339,-149,141
56,-15164,-14,728,-4721,23,-341,-150,144
57,-15154,-24,710,-4719,23,-338,-153,143
58,-15160,-36,742,-4719,23,-345,-155,138
59,-15156,-24,766,-4718,23,-345,-152,142
60,-15146,-18,760,-4717,23,-344,-153,141
61,-15156,-32,760,-4721,23,-347,-156,137
62,-15160,-12,756,-4720,23,-344,-155,140
63,-15160,-18,752,-4720,23,-341,-151,140
64,-15162,-34,746,-4721,23,-345,-153,140
65,-15154,-22,760,-4719,23,-346,-155,145
66,-15152,-24,764,-4719,23,-342,-152,143
67,-15154,0,764,-4715,23,-345,-153,138
68,-15150,6,762,-4717,23,-343,-155,136
69,-15156,28,752,-4717,23,-345,-156,133
70,-15138,10,760,-4718,23,-346,-154,138
71,-15138,-6,764,-4717,23,-344,-156,141
72,-15150,-2,764,-4718,23,-349,-155,139
73,-15154,6,744,-4717,23,-347,-153,139
74,-15158,2,736,-4717,23,-347,-153,139
75,-15148,0,718,-4713,23,-346,-157,141
76,-15160,-10,724,-4714,23,-346,-160,139
77,-15160,-4,720,-4715,23,-349,-158,138
78,-15168,-12,748,-4714,23,-351,-159,135
79,-15174,-4,746,-4715,23,-350,-157,136
80,-15168,-8,760,-4715,23,-347,-157,134
81,-15164,-14,774,-4714,23,-349,-151,139
82,-15174,-12,746,-4713,23,-346,-152,139
83,-15148,-22,772,-4711,23,-348,-155,137
84,-15142,-16,752,-4712,23,-349,-154,142
85,-15152,-18,740,-4708,23,-350,-158,140
86,-15152,-12,736,-4708,23,-345,-157,141
87,-15154,-2,744,-4709,23,-344,-157,139
88,-15166,8,756,-4712,23,-345,-150,142
89,-15154,2,742,-4712,23,-344,-147,144
90,-15162,0,762,-4713,23,-347,-154,140
91,-15164,10,750,-4714,23,-343,-150,141
92,-15168,10,758,-4712,23,-343,-151,140
93,-15156,4,766,-4709,23,-345,-152,140
94,-15148,-4,772,-4711,23,-349,-151,139
95,-15160,-10,746,-4711,23,-348,-156,139
96,-15154,-12,748,-4712,23,-352,-156,136
97,-15172,-24,764,-4711,23,-348,-156,138
98,-15176,-14,758,-4709,23,-352,-155,139
99,-15172,-24,744,-4709,23,-352,-153,137
100,-15154,-26,736,-4708,23,-348,-153,139
101,-15162,-26,740,-4707,23,-349,-154,140
102,-15146,-2,744,-4711,23,-346,-154,139
103,-15136,-10,764,-4710,23,-345,-149,139
104,-15142,-26,778,-4710,23,-345,-152,142
105,-15166,-24,784,-4709,23,-344,-147,137
106,-15182,-10,788,-4708,23,-345,-147,139
107,-15174,-4,768,-4710,23,-343,-148,138
108,-15174,-14,758,-4708,23,-343,-152,139
109,-15176,-4,780,-4708,23,-343,-155,140
110,-15158,4,790,-4705,23,-344,-157,137
111,-15146,10,778,-4704,23,-345,-153,138
112,-15144,8,784,-4704,23,-343,-154,138
113,-15156,4,772,-4706,23,-344,-157,136
114,-15150,-8,766,-4707,23,-343,-154,137
115,-15168,0,740,-4708,23,-347,-155,138
116,-15166,0,758,-4708,23,-349,-156,140
117,-15176,-12,738,-4705,23,-346,-157,139
118,-15178,-4,724,-4707,23,-349,-152,143
119,-15190,10,738,-4707,23,-351,-151,144
120,-15184,0,740,-4705,23,-349,-154,142
121,-15190,-4,748,-4707,23,-347,-151,144
122,-15172,-22,752,-4708,23,-351,-154,144
123,-15168,-22,756,-4708,23,-347,-154,142
124,-15170,-32,774,-4703,23,-346,-154,139
125,-15174,-24,756,-4705,23,-349,-154,137
126,-15186,-14,772,-4703,23,-347,-149,136
127,-15174,-22,746,-4705,23,-345,-151,139
128,-15158,-24,744,-4704,23,-345,-156,141
129,-15168,-32,732,-4705,23,-346,-155,138
130,-15158,-16,744,-4704,23,-346,-150,137
131,-15162,-14,752,-4703,23,-348,-152,137
132,-15172,-16,728,-4704,23,-346,-149,136
133,-15152,-16,776,-4704,23,-348,-155,141
134,-15154,-26,772,-4702,23,-345,-151,139
135,-15168,-42,744,-4700,23,-346,-153,142
136,-15152,-26,726,-4700,23,-348,-152,142
137,-15142,-22,754,-4702,23,-345,-151,139
138,-15144,-12,730,-4701,23,-350,-151,140
139,-15144,-16,744,-4702,23,-344,-154,137
140,-15166,-20,758,-4702,23,-347,-152,133
141,-15142,0,756,-4699,23,-349,-149,137
142,-15138,10,738,-4701,23,-351,-150,139
143,-15158,10,744,-4700,23,-350,-151,139
144,-15158,-12,768,-4702,23,-348,-151,142
145,-15146,-22,772,-4697,23,-350,-155,142
146,-15132,-12,778,-4699,23,-349,-149,145
147,-15140,-32,752,-4701,23,-347,-149,146
148,-15158,-30,740,-4699,23,-346,-153,144
149,-15136,-26,732,-4701,23,-341,-152,141
150,-15138,-6,722,-4704,23,-344,-150,140
151,-15136,0,716,-4704,23,-343,-151,141
152,-15162,-18,728,-4700,23,-345,-146,144
153,-15146,-20,740,-4700,23,-343,-147,141
154,-15134,-2,756,-4698,23,-340,-150,143
155,-15170,-10,738,-4696,23,-345,-148,141
156,-15154,-10,738,-4699,23,-344,-148,141
157,-15150,0,722,-4698,23,-346,-149,142
158,-15140,-20,752,-4699,23,-346,-153,139
159,-15132,-6,774,-4700,23,-344,-153,138
160,-15128,-10,746,-4701,23,-346,-155,141
161,-15144,-18,740,-4699,23,-345,-150,140
162,-15158,-14,752,-4695,23,-347,-153,140
163,-15140,-10,750,-4694,23,-347,-146,141
164,-15144,2,756,-4694,23,-345,-151,139
165,-15136,2,756,-4694,23,-345,-151,144
166,-15148,-2,774,-4694,23,-348,-155,143
167,-15134,-12,736,-4696,23,-350,-154,140
168,-15154,-18,744,-4697,23,-344,-154,140
169,-15148,-24,740,-4695,23,-340,-151,139
170,-15160,-12,756,-4694,23,-339,-149,136
171,-15164,-20,768,-4698,23,-340,-147,137
172,-15152,-16,742,-4698,23,-346,-151,137
173,-15146,0,754,-4695,23,-349,-153,136
174,-15144,4,782,-4695,23,-345,-155,134
175,-15162,-14,756,-4695,23,-345,-149,136
176,-15168,-20,748,-4695,23,-347,-152,140
177,-15154,-20,760,-4694,23,-346,-157,139
178,-15162,-32,732,-4697,23,-348,-154,140
179,-15150,-20,764,-4698,23,-347,-149,140
180,-15162,-18,780,-4697,23,-352,-150,141
181,-15140,6,752,-4695,23,-352,-150,138
182,-15154,-8,744,-4693,23,-350,-154,137
183,-15150,-4,726,-4695,23,-353,-155,138
184,-15172,-8,746,-4694,23,-347,-156,138
185,-15154,-24,758,-4693,23,-347,-155,141
186,-15146,-14,744,-4694,23,-346,-151,142
187,-15126,-14,718,-4694,23,-346,-155,143
188,-15146,-18,752,-4693,23,-348,-156,141
189,-15150,-14,758,-4693,23,-350,-157,144
190,-15150,-18,756,-4693,23,-344,-161,145
191,-15162,-44,760,-4693,23,-345,-156,143
192,-15172,-34,770,-4692,23,-346,-153,140
193,-15170,-32,772,-4693,23,-344,-150,140
194,-15162,-34,728,-4695,23,-345,-151,139
195,-15154,-38,770,-4694,23,-348,-151,141
196,-15178,-14,756,-4691,23,-352,-152,141
197,-15180,-2,736,-4691,23,-349,-150,145
198,-15172,8,758,-4690,23,-352,-149,140
199,-15154,0,792,-4690,23,-353,-152,140
200,-15142,0,776,-4691,23,-349,-151,139
201,-15162,-12,750,-4691,23,-352,-150,141
202,-15168,-20,740,-4690,23,-347,-149,143
203,-15166,-28,736,-4690,23,-348,-150,141
204,-15154,-2,754,-4690,23,-346,-153,137
205,-15152,-8,758,-4692,23,-346,-146,140
206,-15158,-8,762,-4694,23,-346,-147,142
207,-15152,-6,744,-4694,23,-350,-149,145
208,-15178,-10,760,-4692,23,-352,-151,144
209,-15188,-6,776,-4693,23,-351,-153,139
210,-15160,-20,746,-4691,23,-348,-155,141
211,-15158,-14,742,-4692,23,-350,-155,142
212,-15158,-20,744,-4689,23,-348,-152,141
213,-15158,-22,766,-4690,23,-348,-148,138
214,-15168,-14,782,-4691,23,-350,-154,138
215,-15162,-22,762,-4693,23,-345,-153,141
216,-15140,-8,800,-4692,23,-349,-156,137
217,-15144,-12,752,-4693,23,-352,-157,136
218,-15160,-20,750,-4692,23,-351,-155,141
219,-15166,-8,750,-4691,23,-345,-154,138
220,-15166,-18,746,-4688,23,-348,-154,139
221,-15148,-6,746,-4688,23,-349,-151,138
222,-15158,0,760,-4692,23,-344,-153,140
223,-15154,-6,758,-4690,23,-341,-153,142
224,-15178,-2,768,-4691,23,-344,-147,141
225,-15172,-22,764,-4689,23,-343,-147,142
226,-15146,-12,752,-4686,23,-346,-153,144
227,-15162,-8,752,-4686,23,-349,-151,141
228,-15152,-2,772,-4687,23,-345,-151,141
229,-15150,0,776,-4688,23,-349,-150,141
230,-15136,-8,762,-4690,23,-348,-155,136
231,-15138,-26,740,-4688,23,-346,-155,139
232,-15124,-4,750,-4688,23,-348,-156,138
233,-15132,4,754,-4688,23,-350,-155,139
234,-15130,-12,748,-4686,23,-350,-154,136
235,-15142,-10,764,-4683,23,-349,-152,135
236,-15152,-4,774,-4683,23,-344,-157,138
237,-15150,-4,754,-4684,23,-347,-155,140
238,-15148,-2,756,-4683,23,-349,-154,141
239,-15158,8,750,-4684,23,-348,-155,140
240,-15152,-4,736,-4686,23,-345,-153,140
241,-15150,-20,756,-4686,23,-350,-156,137
242,-15162,-12,758,-4687,23,-348,-159,138
243,-15160,-18,782,-4686,23,-349,-153,138
244,-15180,-16,782,-4687,23,-346,-153,137
245,-15168,-36,786,-4688,23,-347,-151,139
246,-15172,-30,770,-4688,23,-344,-152,138
247,-15162,-34,768,-4685,23,-346,-154,138
248,-15160,-28,772,-4685,23,-347,-158,141
249,-15176,-32,770,-4685,23,-345,-156,140
250,-15180,-10,776,-4683,23,-344,-157,142
251,-15162,-14,770,-4683,23,-348,-156,143
252,-15164,-10,770,-4683,23,-348,-155,139
253,-15156,-18,736,-4683,23,-346,-151,141
254,-15174,-10,720,-4682,23,-346,-151,143
255,-15164,2,702,-4684,23,-348,-149,139
256,-15174,4,730,-4683,23,-349,-148,137
257,-15158,8,712,-4683,23,-347,-149,138
258,-15172,0,716,-4683,23,-350,-149,140
259,-15158,0,730,-4679,23,-346,-150,142
260,-15152,-2,756,-4683,23,-347,-152,141
261,-15162,-18,780,-4683,23,-345,-153,139
262,-15150,-8,782,-4685,23,-349,-150,141
263,-15154,0,776,-4686,23,-353,-150,142
264,-15158,-14,762,-4686,23,-351,-150,141
265,-15158,-30,740,-4686,23,-355,-153,138
266,-15160,-20,752,-4685,23,-349,-152,138
267,-15172,-22,758,-4681,23,-350,-152,140
268,-15158,-14,744,-4680,23,-351,-153,139
269,-15172,-2,758,-4680,23,-348,-150,138
270,-15166,-12,754,-4681,23,-350,-150,141
271,-15158,-26,744,-4683,23,-346,-150,142
272,-15152,-14,738,-4683,23,-343,-148,144
273,-15162,-14,742,-4684,23,-345,-154,141
274,-15164,14,750,-4685,23,-344,-154,140
275,-15154,8,752,-4685,23,-344,-152,140
276,-15156,-6,730,-4685,23,-345,-147,139
277,-15168,8,712,-4684,23,-344,-151,136
278,-15168,2,712,-4684,23,-346,-152,137
279,-15158,22,730,-4683,23,-346,-152,143
280,-15176,18,736,-4680,23,-341,-150,138
281,-15180,-2,758,-4682,23,-344,-150,140
282,-15166,6,764,-4680,23,-346,-154,138
283,-15164,8,770,-4683,23,-347,-153,141
284,-15170,8,774,-4681,23,-348,-155,141
285,-15176,-2,772,-4684,23,-349,-155,139
286,-15176,-2,750,-4682,23,-348,-156,143
287,-15174,14,736,-4681,23,-346,-159,138
288,-15178,32,748,-4680,23,-347,-155,139
289,-15164,6,772,-4682,23,-350,-155,140
290,-15182,12,766,-4680,23,-347,-157,139
291,-15190,18,758,-4677,23,-353,-151,143
292,-15172,12,774,-4678,23,-350,-153,145
293,-15178,30,766,-4678,23,-352,-151,141
294,-15172,24,756,-4680,23,-353,-149,142
295,-15160,28,752,-4679,23,-353,-152,140
296,-15136,10,754,-4679,23,-351,-150,138
297,-15156,2,754,-4680,23,-351,-151,139
298,-15144,-14,752,-4681,23,-349,-152,143
299,-15154,-12,772,-4679,23,-345,-153,141
300,-15168,-22,752,-4678,23,-348,-153,141
301,-15170,-14,772,-4680,23,-347,-150,135
302,-15154,-18,782,-4679,23,-346,-153,137
303,-15144,-18,770,-4679,23,-347,-153,136
304,-15152,-22,778,-4679,23,-347,-149,137
305,-15152,-18,776,-4676,23,-347,-148,138
306,-15136,-12,798,-4682,23,-340,-147,135
307,-15142,-10,780,-4683,23,-340,-152,138
308,-15146,-22,744,-4682,23,-345,-152,134
309,-15158,-16,746,-4683,23,-346,-156,135
310,-15162,0,748,-4683,23,-346,-153,136
311,-15152,-6,748,-4681,23,-347,-154,136
312,-15140,-16,770,-4680,23,-349,-156,138
313,-15142,-14,756,-4682,23,-347,-157,141
314,-15140,-2,750,-4680,23,-350,-152,141
315,-15158,-4,748,-4679,23,-347,-151,144
316,-15158,-18,766,-4679,23,-346,-157,145
317,-15156,-12,764,-4680,23,-348,-156,145
318,-15144,6,780,-4676,23,-350,-153,142
319,-15148,-4,750,-4675,23,-347,-152,143
320,-15158,-14,754,-4675,23,-350,-153,141
321,-15146,-10,742,-4679,23,-351,-151,136
322,-15142,4,764,-4677,23,-348,-145,139
323,-15148,4,760,-4675,23,-344,-153,137
324,-15142,4,744,-4675,23,-346,-150,140
325,-15136,2,764,-4678,23,-347,-155,144
326,-15142,0,732,-4678,23,-349,-149,141
327,-15136,0,752,-4678,23,-347,-148,135
328,-15144,-10,746,-4678,23,-345,-154,136
329,-15160,-2,728,-4675,23,-349,-155,137
330,-15158,6,748,-4675,23,-350,-153,135
331,-15150,6,738,-4675,23,-350,-158,137
332,-15148,-10,746,-4675,23,-347,-157,139
333,-15140,-20,728,-4678,23,-348,-152,143
334,-15134,-18,724,-4679,23,-353,-153,142
335,-15162,-18,738,-4679,23,-355,-155,138
336,-15148,-8,750,-4677,23,-353,-151,141
337,-15150,-12,754,-4675,23,-352,-154,143
338,-15144,-10,746,-4675,23,-353,-155,141
339,-15150,14,738,-4674,23,-350,-159,142
340,-15158,6,762,-4671,23,-352,-155,142
341,-15148,12,776,-4674,23,-352,-155,140
342,-15162,6,762,-4675,23,-351,-153,138
343,-15156,-2,754,-4674,23,-353,-149,138
344,-15146,8,770,-4673,23,-349,-148,137
345,-15154,-4,790,-4673,23,-352,-152,138
346,-15144,0,760,-4671,23,-354,-156,137
347,-15146,-4,764,-4675,23,-353,-155,140
348,-15156,-6,744,-4677,23,-352,-154,144
349,-15134,12,748,-4677,23,-347,-156,144
350,-15144,2,748,-4674,23,-344,-156,141
351,-15144,0,748,-4676,23,-345,-152,141
352,-15146,8,746,-4675,23,-348,-152,140
353,-15170,10,722,-4676,23,-349,-148,138
354,-15168,-8,736,-4674,23,-346,-152,141
355,-15152,-26,720,-4676,23,-350,-151,139
356,-15168,-18,734,-4677,23,-347,-154,142
357,-15164,-22,694,-4678,23,-346,-151,139
358,-15172,-2,718,-4680,23,-348,-154,138
359,-15158,-18,756,-4675,23,-350,-150,137
360,-15144,-18,772,-4676,23,-351,-154,137
361,-15160,-30,788,-4677,23,-352,-153,138
362,-15172,-14,780,-4674,23,-352,-152,141
363,-15160,-6,724,-4672,23,-349,-153,144
364,-15148,8,728,-4672,23,-347,-151,143
365,-15152,20,750,-4675,23,-345,-152,141
366,-15156,6,732,-4675,23,-352,-156,138
367,-15170,4,760,-4675,23,-351,-152,142
368,-15178,-10,750,-4674,23,-349,-151,143
369,-15182,-12,748,-4675,23,-352,-152,143
370,-15186,-2,762,-4679,23,-345,-154,142
371,-15176,4,748,-4677,23,-349,-154,141
372,-15156,10,762,-4676,23,-350,-149,137
373,-15164,-2,776,-4679,23,-352,-153,139
374,-15150,4,764,-4678,23,-349,-151,136
375,-15150,-4,774,-4675,23,-352,-150,138
376,-15142,2,760,-4677,23,-353,-149,140
377,-15132,6,756,-4677,23,-353,-155,137
378,-15144,2,752,-4675,23,-346,-149,140
379,-15138,2,752,-4673,23,-343,-150,139
380,-15158,-14,732,-4674,23,-345,-153,140
381,-15164,-10,712,-4677,23,-347,-151,142
382,-15174,-8,756,-4675,23,-343,-151,139
383,-15166,-18,742,-4675,23,-343,-154,141
384,-15162,-18,750,-4674,23,-344,-149,144
385,-15162,-32,754,-4674,23,-345,-151,139
386,-15168,-38,770,-4672,23,-348,-151,139
387,-15168,-20,766,-4670,23,-349,-153,140
388,-15148,-26,760,-4665,23,-351,-151,140
389,-15170,-22,746,-4666,23,-354,-154,140
390,-15158,-14,730,-4669,23,-350,-153,141
391,-15160,-18,744,-4671,23,-347,-154,141
392,-15146,-6,750,-4672,23,-349,-154,142
393,-15142,-6,758,-4672,23,-351,-154,142
394,-15140,-10,742,-4670,23,-349,-157,138
395,-15150,-18,752,-4671,23,-347,-153,142
396,-15136,-8,756,-4673,23,-347,-156,140
397,-15152,-12,738,-4676,23,-346,-152,140
398,-15160,-16,724,-4675,23,-347,-153,138
399,-15160,-20,740,-4675,23,-348,-158,141
400,-15166,-14,754,-4673,23,-348,-155,143
401,-15160,-30,748,-4672,23,-349,-152,142
402,-15158,-20,744,-4671,23,-348,-154,143
403,-15168,-20,764,-4670,23,-344,-154,140
404,-15158,-18,770,-4671,23,-344,-152,140
405,-15166,-10,762,-4671,23,-347,-151,140
406,-15174,-22,746,-4669,23,-348,-150,142
407,-15182,-10,746,-4670,23,-351,-152,141
408,-15174,-2,748,-4669,23,-350,-152,144
409,-15184,10,756,-4669,23,-349,-152,138
410,-15174,-16,748,-4670,23,-349,-150,137
411,-15154,-22,736,-4670,23,-350,-154,139
412,-15148,-38,750,-4670,23,-349,-150,139
413,-15158,-36,778,-4672,23,-350,-148,139
414,-15164,-16,772,-4672,23,-352,-149,139
415,-15182,-20,762,-4671,23,-347,-151,139
416,-15182,-18,792,-4670,23,-348,-153,141
417,-15178,-8,804,-4668,23,-352,-152,141
418,-15160,-6,772,-4671,23,-351,-156,139
419,-15154,-32,768,-4672,23,-356,-156,141
420,-15152,-30,758,-4670,23,-352,-151,135
421,-15144,-26,754,-4673,23,-351,-152,133
422,-15162,-20,744,-4673,23,-354,-149,135
423,-15166,-14,740,-4674,23,-351,-149,138
424,-15158,2,742,-4672,23,-349,-152,138
425,-15150,2,728,-4671,23,-345,-152,142
426,-15152,-14,726,-4669,23,-346,-152,142
427,-15146,-16,724,-4667,23,-347,-151,139
428,-15150,-16,758,-4669,23,-347,-151,140
429,-15144,-22,782,-4668,23,-350,-149,143
430,-15144,-18,750,-4669,23,-352,-150,144
431,-15144,-14,762,-4668,23,-350,-152,148
432,-15166,-24,756,-4670,23,-353,-148,141
433,-15146,-4,764,-4671,23,-349,-147,140
434,-15154,-16,756,-4672,23,-346,-148,141
435,-15156,-4,772,-4671,23,-344,-149,142
436,-15154,-6,772,-4671,23,-346,-148,142
437,-15154,-2,760,-4671,23,-348,-151,142
438,-15152,-8,778,-4669,23,-345,-150,138
439,-15152,-6,774,-4670,23,-347,-153,142
440,-15142,-6,788,-4671,23,-350,-151,141
441,-15142,-20,756,-4670,23,-346,-152,140
442,-15140,-14,752,-4672,23,-347,-156,138
443,-15140,-10,748,-4673,23,-350,-154,138
444,-15158,4,746,-4670,23,-348,-154,142
445,-15162,10,790,-4672,23,-348,-151,143
446,-15158,-2,762,-4672,23,-350,-152,142
447,-15138,-10,768,-4668,23,-347,-155,142
448,-15142,-14,800,-4665,23,-348,-152,144
449,-15144,-16,764,-4668,23,-347,-149,140
450,-15148,-12,750,-4665,23,-351,-152,137
451,-15146,-10,738,-4666,23,-349,-149,139
452,-15150,-18,760,-4666,23,-346,-153,138
453,-15158,-34,758,-4670,23,-346,-152,140
454,-15152,-32,754,-4668,23,-346,-155,139
455,-15150,-18,744,-4670,23,-349,-154,140
456,-15156,-8,730,-4670,23,-348,-151,140
457,-15168,-4,734,-4669,23,-346,-149,143
458,-15182,-6,730,-4666,23,-347,-150,140
459,-15166,-14,738,-4666,23,-352,-154,139
460,-15158,-2,728,-4668,23,-348,-154,137
461,-15148,-12,724,-4672,23,-346,-150,141
462,-15156,-12,728,-4669,23,-350,-156,142
463,-15148,-12,740,-4667,23,-349,-152,141
464,-15168,-16,746,-4667,23,-351,-152,142
465,-15158,-8,742,-4665,23,-352,-153,142
466,-15146,14,740,-4669,23,-350,-147,142
467,-15140,16,766,-4672,23,-344,-150,143
468,-15146,10,778,-4675,23,-344,-152,139
469,-15128,-14,738,-4672,23,-346,-150,144
470,-15134,-22,736,-4670,23,-344,-150,143
471,-15144,-30,758,-4669,23,-348,-149,144
472,-15152,-18,752,-4668,23,-348,-152,145
473,-15166,-28,740,-4669,23,-344,-155,144
474,-15154,-22,758,-4668,23,-345,-154,144
475,-15164,-24,762,-4663,23,-347,-151,143
476,-15170,-20,766,-4664,23,-346,-153,141
477,-15162,-24,782,-4665,23,-346,-151,141
478,-15158,-18,778,-4666,23,-347,-154,142
479,-15162,-20,758,-4669,23,-348,-150,143
480,-15190,-8,768,-4667,23,-345,-151,143
481,-15178,0,758,-4668,23,-347,-150,143
482,-15162,-4,768,-4667,23,-346,-152,141
483,-15166,-6,760,-4667,23,-349,-152,137
484,-15162,-10,778,-4668,23,-349,-146,136
485,-15152,-46,738,-4664,23,-349,-150,138
486,-15152,-34,750,-4663,23,-351,-155,139
487,-15142,-24,760,-4665,23,-353,-155,139
488,-15140,-8,768,-4665,23,-351,-151,139
489,-15150,-8,756,-4664,23,-353,-154,139
490,-15152,-20,758,-4666,23,-351,-159,138
491,-15148,-22,774,-4666,23,-349,-156,140
492,-15150,-18,764,-4668,23,-348,-155,139
493,-15168,-16,770,-4668,23,-348,-155,142
494,-15170,-30,754,-4668,23,-351,-155,143
495,-15164,-22,764,-4666,23,-351,-157,146
496,-15168,-24,752,-4666,23,-352,-150,145
497,-15172,-24,754,-4665,23,-352,-150,143
498,-15156,-22,756,-4665,23,-347,-150,139
499,-15164,-24,730,-4667,23,-344,-153,139
500,-15158,-14,752,-4665,23,-346,-153,138
501,-15156,-10,748,-4665,23,-350,-149,143
502,-15158,2,752,-4667,23,-349,-150,138
503,-15160,-4,730,-4665,23,-348,-151,137
504,-15172,-10,746,-4665,23,-350,-159,134
505,-15188,-12,728,-4664,23,-350,-156,136
506,-15164,-20,716,-4663,23,-351,-158,140
507,-15164,-26,742,-4664,23,-350,-152,139
508,-15172,-30,744,-4666,23,-351,-153,139
509,-15156,-24,756,-4668,23,-350,-152,141
510,-15164,-18,734,-4667,23,-350,-150,142
511,-15162,-34,746,-4663,23,-350,-151,141
512,-15162,-32,738,-4662,23,-351,-151,138
513,-15166,-28,718,-4661,23,-350,-155,137
514,-15156,-10,748,-4665,23,-347,-154,137
515,-15174,-10,750,-4665,23,-348,-158,138
516,-15142,0,734,-4663,23,-348,-147,139
517,-15146,-4,744,-4662,23,-346,-151,139
518,-15158,0,758,-4667,23,-346,-149,136
519,-15152,-4,760,-4665,23,-346,-151,139
520,-15170,-4,756,-4664,23,-347,-153,141
521,-15174,-4,736,-4663,23,-348,-152,141
522,-15184,-12,748,-4662,23,-345,-152,139
523,-15170,-14,736,-4664,23,-346,-155,142
524,-15156,-16,742,-4663,23,-348,-155,137
525,-15138,10,732,-4661,23,-351,-156,136
526,-15134,-6,762,-4663,23,-349,-156,137
527,-15148,-14,766,-4663,23,-349,-157,141
528,-15144,-14,756,-4662,23,-350,-157,139
529,-15156,2,758,-4664,23,-353,-155,140
530,-15136,-8,774,-4664,23,-354,-157,139
531,-15122,-12,760,-4666,23,-357,-154,138
532,-15164,2,760,-4667,23,-355,-147,137
533,-15160,-10,768,-4666,23,-355,-149,141
534,-15152,-8,764,-4665,23,-350,-153,142
535,-15154,-6,770,-4666,23,-348,-154,137
536,-15154,-6,760,-4662,23,-348,-155,135
537,-15162,-18,738,-4661,23,-346,-153,136
538,-15158,-28,756,-4662,23,-347,-153,141
539,-15164,-2,754,-4663,23,-350,-153,143
540,-15174,-2,764,-4664,23,-349,-151,143
541,-15170,-10,742,-4663,23,-351,-152,143
542,-15170,-6,718,-4662,23,-354,-154,143
543,-15174,6,744,-4660,23,-357,-154,141
544,-15160,0,748,-4657,23,-357,-152,142
545,-15164,8,736,-4658,23,-355,-149,144
546,-15154,-2,758,-4660,23,-351,-150,142
547,-15154,0,784,-4662,23,-351,-153,143
548,-15154,-20,764,-4661,23,-351,-153,142
549,-15150,-20,756,-4663,23,-350,-153,144
550,-15160,-20,776,-4663,23,-347,-159,141
551,-15164,-10,760,-4662,23,-349,-157,141
552,-15156,-4,732,-4662,23,-349,-152,143
553,-15142,-16,734,-4660,23,-349,-156,137
554,-15166,-28,742,-4660,23,-345,-154,141
555,-15166,-24,742,-4659,23,-348,-148,143
556,-15166,-10,766,-4660,23,-346,-152,141
557,-15164,-22,776,-4661,23,-347,-155,144
558,-15162,-8,770,-4661,23,-342,-154,144
559,-15172,-22,760,-4661,23,-345,-150,144
560,-15176,-16,762,-4659,23,-346,-149,142
561,-15156,-2,752,-4659,23,-349,-147,144
562,-15172,-10,734,-4659,23,-349,-148,142
563,-15152,-26,742,-4661,23,-352,-147,144
564,-15166,-24,756,-4659,23,-349,-147,145
565,-15162,-16,772,-4657,23,-350,-153,142
566,-15184,-24,776,-4657,23,-355,-153,146
567,-15178,-8,778,-4659,23,-356,-155,143
568,-15180,-6,784,-4657,23,-346,-150,138
569,-15176,-22,784,-4657,23,-347,-150,140
570,-15162,-12,778,-4660,23,-349,-156,137
571,-15152,-14,746,-4661,23,-349,-150,137
572,-15142,-4,734,-4659,23,-348,-151,136
573,-15150,-12,736,-4661,23,-347,-151,135
574,-15172,-18,746,-4662,23,-353,-151,136
575,-15168,-24,742,-4661,23,-350,-151,139
576,-15160,-28,716,-4660,23,-351,-155,139
577,-15136,-2,734,-4658,23,-349,-154,139
578,-15146,0,746,-4660,23,-350,-156,141
579,-15164,0,746,-4661,23,-351,-154,139
580,-15170,8,708,-4658,23,-352,-152,139
581,-15168,-4,702,-4658,23,-344,-150,142
582,-15158,-6,734,-4658,23,-345,-150,141
583,-15166,-8,736,-4658,23,-345,-153,138
584,-15148,-2,750,-4658,23,-345,-149,137
585,-15184,8,748,-4656,23,-348,-152,136
586,-15176,22,742,-4659,23,-350,-150,135
587,-15164,-2,772,-4661,23,-350,-150,134
588,-15172,-26,754,-4661,23,-349,-152,138
589,-15154,-16,762,-4660,23,-351,-147,140
590,-15172,-20,770,-4659,23,-351,-149,142
591,-15182,-8,762,-4662,23,-348,-152,141
592,-15158,-16,762,-4661,23,-348,-154,139
593,-15166,-10,762,-4660,23,-347,-154,138
594,-15154,-10,774,-4658,23,-349,-154,134
595,-15170,-10,778,-4659,23,-347,-153,136
596,-15178,-24,760,-4657,23,-350,-151,139
597,-15164,-38,752,-4660,23,-348,-149,138
598,-15150,-28,754,-4661,23,-350,-152,143
599,-15160,-30,730,-4661,23,-347,-154,140
600,-15158,-26,736,-4662,23,-345,-152,140
601,-15148,-2,734,-4659,23,-350,-153,142
602,-15146,-8,732,-4658,23,-347,-155,144
603,-15146,-12,746,-4655,23,-349,-152,143
604,-15164,-20,764,-4657,23,-348,-154,140
605,-15166,-6,778,-4659,23,-345,-155,141
606,-15152,-12,766,-4657,23,-347,-151,138
607,-15150,-22,734,-4659,23,-351,-156,141
608,-15150,-10,756,-4660,23,-349,-153,140
609,-15142,-30,750,-4659,23,-345,-159,141
610,-15150,-18,770,-4657,23,-348,-154,141
611,-15158,-24,766,-4656,23,-345,-155,143
612,-15152,-18,754,-4659,23,-345,-155,142
613,-15174,-6,750,-4659,23,-346,-153,141
614,-15158,-20,770,-4660,23,-351,-150,139
615,-15148,-14,748,-4659,23,-346,-149,138
616,-15156,-14,762,-4658,23,-348,-149,139
617,-15142,-30,750,-4659,23,-345,-149,141
618,-15158,-26,746,-4657,23,-351,-150,143
619,-15154,-16,762,-4657,23,-350,-151,140
620,-15162,-16,782,-4659,23,-350,-151,144
621,-15148,-4,770,-4656,23,-347,-152,143
622,-15148,8,762,-4657,23,-347,-152,140
623,-15146,6,768,-4659,23,-344,-154,137
624,-15148,0,760,-4660,23,-348,-155,141
625,-15154,8,742,-4660,23,-345,-156,143
626,-15154,4,724,-4660,23,-345,-153,144
627,-15152,0,750,-4658,23,-348,-153,141
628,-15160,4,736,-4658,23,-349,-151,144
629,-15158,-2,770,-4660,23,-347,-149,144
630,-15154,-16,740,-4659,23,-345,-148,140
631,-15154,-2,732,-4657,23,-346,-149,141
632,-15166,-8,752,-4660,23,-347,-152,143
633,-15156,-4,762,-4658,23,-350,-153,142
634,-15142,6,758,-4662,23,-345,-153,142
635,-15152,-4,744,-4659,23,-345,-156,143
636,-15156,-24,738,-4657,23,-352,-158,141
637,-15142,-14,764,-4660,23,-351,-159,140
638,-15144,-2,770,-4659,23,-355,-152,135
639,-15154,10,754,-4663,23,-350,-155,136
640,-15138,0,750,-4657,23,-352,-154,137
641,-15152,0,752,-4656,23,-348,-151,139
642,-15162,-14,750,-4656,23,-350,-150,138
643,-15148,-30,738,-4657,23,-350,-146,140
644,-15136,-40,734,-4656,23,-351,-147,141
645,-15138,-26,724,-4654,23,-348,-145,141
646,-15140,-28,708,-4653,23,-348,-149,143
647,-15152,-16,722,-4656,23,-348,-152,143
648,-15158,-24,724,-4655,23,-346,-154,144
649,-15162,-28,738,-4657,23,-349,-153,144
650,-15164,-28,748,-4653,23,-349,-151,141
651,-15166,-16,750,-4653,23,-348,-150,140
652,-15160,-30,772,-4654,23,-346,-153,138
653,-15164,-24,746,-4655,23,-348,-154,142
654,-15166,-26,744,-4654,23,-351,-158,139
655,-15186,-14,752,-4654,23,-350,-156,140
656,-15154,-24,778,-4657,23,-351,-153,140
657,-15164,-38,780,-4655,23,-351,-154,138
658,-15160,-36,762,-4657,23,-346,-154,137
659,-15132,-26,756,-4656,23,-349,-152,142
660,-15140,-26,770,-4657,23,-346,-152,138
661,-15148,-28,774,-4653,23,-345,-155,138
662,-15162,-12,754,-4655,23,-344,-157,139
663,-15164,-20,746,-4654,23,-345,-157,138
664,-15172,-24,766,-4653,23,-348,-154,143
665,-15158,-22,762,-4654,23,-346,-152,142
666,-15146,-18,756,-4656,23,-341,-154,140
667,-15156,-18,756,-4658,23,-349,-151,140
668,-15150,-4,756,-4660,23,-353,-156,143
669,-15164,-10,734,-4660,23,-352,-159,141
670,-15180,-24,744,-4659,23,-352,-155,139
671,-15168,-28,742,-4657,23,-351,-151,141
672,-15154,-38,772,-4654,23,-348,-150,142
673,-15140,-44,782,-4653,23,-349,-152,139
674,-15166,-32,768,-4651,23,-349,-149,141
675,-15160,-10,734,-4653,23,-347,-155,137
676,-15158,-4,754,-4655,23,-347,-155,140
677,-15162,-20,764,-4655,23,-348,-153,141
678,-15164,-22,762,-4655,23,-348,-152,141
679,-15170,4,766,-4654,23,-349,-154,143
680,-15162,-10,762,-4660,23,-349,-151,142
681,-15162,-10,760,-4656,23,-349,-148,142
682,-15180,-18,760,-4656,23,-350,-151,138
683,-15184,-4,776,-4658,23,-350,-154,137
684,-15148,-14,758,-4655,23,-349,-154,139
685,-15138,-4,744,-4656,23,-346,-152,142
686,-15150,-4,736,-4651,23,-347,-150,139
687,-15168,-4,752,-4652,23,-355,-153,144
688,-15178,-12,772,-4654,23,-354,-153,145
689,-15168,-2,756,-4656,23,-356,-152,143
690,-15170,-8,740,-4655,23,-352,-153,141
691,-15164,-4,736,-4654,23,-348,-151,139
692,-15154,-4,744,-4659,23,-342,-148,141
693,-15158,-12,748,-4659,23,-342,-146,141
694,-15146,10,754,-4657,23,-346,-144,136
695,-15146,0,744,-4654,23,-347,-148,132
696,-15150,-10,732,-4656,23,-350,-149,137
697,-15160,-18,726,-4656,23,-349,-152,137
698,-15156,0,756,-4654,23,-352,-155,140
699,-15162,0,730,-4653,23,-355,-149,141
700,-15168,-14,720,-4655,23,-347,-149,139
701,-15142,-22,724,-4654,23,-347,-149,138
702,-15144,-30,726,-4653,23,-349,-150,139
703,-15156,-30,714,-4657,23,-351,-153,139
704,-15148,-34,728,-4651,23,-354,-156,140
705,-15158,-26,736,-4652,23,-353,-155,140
706,-15150,-28,730,-4655,23,-349,-157,142
707,-15134,-12,722,-4656,23,-348,-157,141
708,-15128,-2,732,-4658,23,-350,-159,143
709,-15140,-8,728,-4654,23,-350,-157,142
710,-15166,-20,750,-4654,23,-350,-159,142
711,-15156,-16,744,-4657,23,-348,-152,140
712,-15162,-10,750,-4657,23,-346,-154,139
713,-15168,-14,718,-4655,23,-351,-150,141
714,-15148,-12,744,-4654,23,-354,-144,142
715,-15146,-16,754,-4655,23,-354,-148,142
716,-15164,4,770,-4653,23,-348,-148,142
717,-15152,0,758,-4652,23,-348,-151,139
718,-15150,16,760,-4656,23,-350,-149,144
719,-15154,16,712,-4655,23,-350,-151,145
720,-15144,10,716,-4655,23,-351,-151,148
721,-15142,8,730,-4658,23,-352,-151,144
722,-15154,-8,712,-4657,23,-354,-152,143
723,-15162,-10,734,-4655,23,-354,-152,139
724,-15158,-6,720,-4655,23,-354,-153,138
725,-15162,-16,740,-4656,23,-348,-149,139
726,-15166,-16,736,-4656,23,-351,-149,140
727,-15166,-16,756,-4653,23,-345,-151,141
728,-15168,-30,776,-4655,23,-347,-154,142
729,-15160,-24,748,-4655,23,-348,-152,139
730,-15176,-12,756,-4656,23,-350,-152,138
731,-15172,-22,750,-4655,23,-348,-150,139
732,-15176,-12,758,-4655,23,-348,-151,139
733,-15186,-10,784,-4656,23,-344,-156,142
734,-15180,-16,770,-4653,23,-348,-154,141
735,-15166,-32,752,-4652,23,-347,-153,139
736,-15170,-20,750,-4654,23,-350,-153,139
737,-15172,-14,754,-4651,23,-348,-152,140
738,-15174,-28,778,-4650,23,-352,-151,140
739,-15172,-18,770,-4652,23,-351,-156,145
740,-15152,-14,760,-4652,23,-351,-155,144
741,-15148,-12,744,-4653,23,-352,-154,144
742,-15166,-16,760,-4655,23,-344,-156,143
743,-15152,-26,738,-4652,23,-345,-156,140
744,-15142,-22,740,-4650,23,-345,-153,137
745,-15154,-24,724,-4651,23,-346,-152,134
746,-15144,10,750,-4654,23,-348,-153,137
747,-15154,-2,774,-4654,23,-349,-150,138
748,-15146,-10,790,-4650,23,-349,-153,140
749,-15150,-22,786,-4650,23,-349,-154,140
750,-15158,-20,798,-4648,23,-351,-152,139
751,-15166,-10,808,-4652,23,-348,-151,141
752,-15150,-22,796,-4651,23,-350,-150,142
753,-15162,10,774,-4649,23,-348,-150,140
754,-15158,14,760,-4650,23,-350,-149,143
755,-15180,-2,756,-4649,23,-350,-149,140
756,-15150,-4,756,-4652,23,-351,-151,139
757,-15176,-16,750,-4653,23,-349,-154,141
758,-15172,-4,748,-4654,23,-349,-154,142
759,-15156,-14,742,-4652,23,-351,-151,143
760,-15154,-14,768,-4651,23,-350,-150,140
761,-15146,-16,772,-4653,23,-354,-148,141
762,-15162,-28,766,-4654,23,-350,-155,142
763,-15164,-36,786,-4653,23,-353,-153,142
764,-15150,-16,780,-4654,23,-347,-151,141
765,-15158,-16,760,-4652,23,-348,-151,139
766,-15166,-20,778,-4650,23,-347,-150,138
767,-15166,-6,776,-4649,23,-348,-148,135
768,-15166,0,762,-4656,23,-347,-155,137
769,-15162,-6,764,-4651,23,-348,-155,139
770,-15160,-14,734,-4654,23,-352,-154,141
771,-15160,-12,710,-4652,23,-351,-153,139
772,-15150,-4,722,-4649,23,-349,-152,142
773,-15150,-14,760,-4650,23,-350,-147,137
774,-15164,-36,752,-4652,23,-347,-150,139
775,-15172,-14,756,-4652,23,-346,-153,142
776,-15154,-22,744,-4649,23,-346,-152,142
777,-15172,-26,734,-4652,23,-347,-153,139
778,-15164,-32,738,-4650,23,-344,-161,139
779,-15146,-34,726,-4654,23,-347,-158,141
780,-15156,-44,730,-4652,23,-347,-157,136
781,-15150,-38,732,-4652,23,-353,-152,136
782,-15148,-12,752,-4654,23,-349,-155,135
783,-15144,-6,760,-4652,23,-349,-150,136
784,-15140,-14,766,-4653,23,-354,-150,138
785,-15164,-10,744,-4652,23,-351,-152,142
786,-15182,-6,736,-4649,23,-354,-150,143
787,-15172,4,720,-4651,23,-354,-147,140
788,-15150,4,736,-4649,23,-351,-155,142
789,-15158,-10,748,-4650,23,-349,-152,144
790,-15168,6,730,-4647,23,-351,-150,144
791,-15162,2,742,-4649,23,-350,-151,139
792,-15168,-2,730,-4647,23,-351,-150,140
793,-15158,-4,760,-4648,23,-347,-151,139
794,-15158,-26,760,-4648,23,-349,-146,139
795,-15162,-12,760,-4649,23,-350,-151,137
796,-15170,-6,742,-4649,23,-351,-149,135
797,-15170,0,726,-4646,23,-345,-147,136
798,-15174,-10,746,-4644,23,-346,-152,138
799,-15160,-18,732,-4644,23,-351,-153,135
800,-15178,-34,724,-4645,23,-348,-152,135
801,-15166,-32,740,-4648,23,-348,-147,139
802,-15172,-36,754,-4650,23,-347,-146,138
803,-15150,-26,746,-4649,23,-349,-146,139
804,-15142,-18,726,-4647,23,-349,-149,137
805,-15146,-22,748,-4649,23,-351,-147,143
806,-15154,-16,750,-4647,23,-350,-146,141
807,-15166,2,726,-4649,23,-349,-149,141
808,-15170,14,732,-4649,23,-352,-151,141
809,-15170,2,748,-4651,23,-352,-150,140
810,-15158,-10,756,-4653,23,-349,-155,139
811,-15166,-28,726,-4653,23,-349,-154,140
812,-15170,-38,738,-4651,23,-352,-154,141
813,-15172,-14,714,-4646,23,-350,-152,142
814,-15194,-10,722,-4647,23,-348,-150,137
815,-15184,-18,752,-4650,23,-351,-146,140
816,-15164,-18,736,-4651,23,-349,-150,141
817,-15168,-26,712,-4652,23,-349,-150,140
818,-15164,-22,710,-4648,23,-350,-151,143
819,-15178,-12,746,-4651,23,-347,-151,136
820,-15174,-4,752,-4651,23,-347,-153,138
821,-15178,-18,756,-4653,23,-344,-152,138
822,-15174,-18,780,-4649,23,-343,-154,135
823,-15160,-18,794,-4648,23,-346,-156,138
824,-15164,-12,780,-4647,23,-348,-154,138
825,-15166,-18,770,-4648,23,-347,-157,138
826,-15160,-14,762,-4649,23,-344,-156,134
827,-15156,-14,750,-4651,23,-348,-156,138
828,-15160,-18,764,-4651,23,-350,-152,139
829,-15166,-16,762,-4650,23,-348,-154,139
830,-15176,-18,764,-4648,23,-347,-156,136
831,-15184,-16,752,-4648,23,-354,-156,133
832,-15164,-12,732,-4647,23,-352,-156,136
833,-15156,-2,750,-4649,23,-352,-152,141
834,-15164,2,750,-4648,23,-352,-150,141
835,-15150,-4,758,-4647,23,-349,-153,140
836,-15148,-20,792,-4651,23,-343,-155,143
837,-15166,-2,778,-4651,23,-342,-152,144
838,-15168,-4,748,-4648,23,-341,-152,140
839,-15160,-10,740,-4648,23,-347,-153,143
840,-15166,-8,732,-4649,23,-347,-152,143
841,-15158,0,728,-4645,23,-343,-147,139
842,-15152,8,750,-4647,23,-347,-150,138
843,-15168,-6,748,-4650,23,-344,-153,142
844,-15166,2,766,-4649,23,-346,-154,142
845,-15190,-4,764,-4650,23,-349,-153,145
846,-15162,-10,776,-4649,23,-350,-154,142
847,-15166,-16,794,-4649,23,-352,-153,143
848,-15150,-6,762,-4645,23,-354,-150,142
849,-15164,0,738,-4646,23,-353,-148,141
850,-15166,-10,750,-4647,23,-346,-148,144
851,-15170,-16,744,-4649,23,-344,-153,139
852,-15150,-26,750,-4647,23,-347,-155,139
853,-15138,-4,764,-4647,23,-345,-149,141
854,-15154,-18,750,-4645,23,-350,-150,139
855,-15172,-2,734,-4648,23,-345,-153,138
856,-15164,-22,718,-4648,23,-346,-152,141
857,-15178,-32,742,-4646,23,-346,-157,140
858,-15174,-20,742,-4644,23,-346,-154,136
859,-15148,-18,752,-4646,23,-350,-150,137
860,-15154,-16,774,-4644,23,-346,-155,135
861,-15150,-8,784,-4645,23,-344,-155,135
862,-15160,-12,760,-4647,23,-347,-151,135
863,-15166,-16,764,-4648,23,-355,-148,137
864,-15164,-8,758,-4645,23,-353,-150,138
865,-15144,2,750,-4644,23,-352,-154,141
866,-15144,2,752,-4643,23,-352,-155,143
867,-15166,14,760,-4644,23,-351,-154,138
868,-15152,10,784,-4641,23,-351,-153,140
869,-15152,-4,784,-4641,23,-352,-151,143
870,-15154,-14,780,-4637,23,-350,-151,139
871,-15162,0,746,-4640,23,-346,-149,135
872,-15184,-6,760,-4641,23,-346,-150,134
873,-15152,-2,748,-4642,23,-347,-152,132
874,-15158,-12,738,-4641,23,-349,-154,137
875,-15176,-8,740,-4643,23,-350,-151,139
876,-15166,-12,730,-4643,23,-347,-152,140
877,-15148,-18,746,-4643,23,-345,-152,136
878,-15160,6,742,-4644,23,-341,-152,140
879,-15166,8,718,-4645,23,-348,-153,137
880,-15174,-12,714,-4646,23,-349,-149,136
881,-15158,10,726,-4645,23,-348,-153,139
882,-15152,4,752,-4648,23,-349,-155,142
883,-15136,-10,758,-4645,23,-352,-154,139
884,-15152,-8,770,-4645,23,-354,-151,138
885,-15156,-8,744,-4647,23,-352,-149,135
886,-15160,-16,744,-4647,23,-351,-151,132
887,-15152,4,750,-4648,23,-354,-150,136
888,-15154,2,754,-4647,23,-349,-156,141
889,-15144,6,760,-4645,23,-351,-157,143
890,-15152,2,730,-4649,23,-347,-155,141
891,-15148,8,750,-4647,23,-348,-158,140
892,-15142,6,722,-4645,23,-347,-156,141
893,-15154,-12,726,-4645,23,-348,-152,143
894,-15164,-16,710,-4646,23,-350,-152,135
895,-15152,-6,722,-4645,23,-349,-151,137
896,-15148,-14,732,-4645,23,-349,-150,136
897,-15162,-16,720,-4645,23,-349,-148,135
898,-15168,-20,740,-4647,23,-352,-154,139
899,-15170,-28,744,-4647,23,-352,-154,141
900,-15176,-24,746,-4644,23,-353,-149,137
901,-15182,-12,744,-4645,23,-351,-151,138
902,-15164,-20,772,-4644,23,-352,-154,138
903,-15166,-38,760,-4646,23,-352,-152,141
904,-15180,-16,740,-4646,23,-348,-156,144
905,-15158,-12,758,-4646,23,-351,-157,142
906,-15152,-8,716,-4647,23,-353,-155,141
907,-15148,-6,708,-4647,23,-350,-157,138
908,-15164,6,736,-4645,23,-347,-156,142
909,-15154,12,728,-4645,23,-348,-154,144
910,-15150,18,730,-4646,23,-351,-156,141
911,-15156,12,754,-4646,23,-350,-155,142
912,-15148,-2,758,-4646,23,-351,-155,144
913,-15142,-26,746,-4648,23,-350,-154,143
914,-15150,-10,736,-4649,23,-350,-156,145
915,-15160,-24,740,-4651,23,-348,-151,139
916,-15156,-16,736,-4647,23,-348,-152,138
917,-15158,-8,732,-4647,23,-348,-151,141
918,-15158,-22,742,-4646,23,-347,-152,140
919,-15164,-10,744,-4648,23,-346,-146,141
920,-15156,-14,738,-4646,23,-345,-150,143
921,-15168,-14,746,-4648,23,-349,-153,143
922,-15142,2,746,-4646,23,-348,-152,143
923,-15138,-20,748,-4644,23,-348,-154,144
924,-15146,-6,750,-4642,23,-346,-152,142
925,-15152,-8,750,-4644,23,-343,-154,143
926,-15158,-4,764,-4642,23,-346,-154,144
927,-15158,-6,766,-4645,23,-350,-154,144
928,-15158,-12,752,-4644,23,-353,-155,143
929,-15156,-28,758,-4641,23,-350,-152,142
930,-15132,-28,762,-4640,23,-347,-150,147
931,-15134,-14,750,-4642,23,-344,-153,146
932,-15126,-14,768,-4641,23,-346,-155,141
933,-15128,-18,774,-4644,23,-346,-156,136
934,-15148,-8,794,-4644,23,-349,-158,137
935,-15154,-18,766,-4648,23,-349,-155,139
936,-15170,-18,762,-4642,23,-347,-153,138
937,-15160,-6,756,-4644,23,-346,-155,138
938,-15168,-8,768,-4644,23,-347,-154,140
939,-15168,-16,754,-4644,23,-347,-152,141
940,-15164,-8,736,-4644,23,-346,-151,140
941,-15156,2,748,-4640,23,-344,-151,138
942,-15146,12,732,-4641,23,-349,-151,141
943,-15156,16,750,-4642,23,-345,-147,139
944,-15172,4,744,-4642,23,-347,-150,143
945,-15160,-2,750,-4642,23,-349,-149,142
946,-15164,4,774,-4641,23,-343,-149,140
947,-15162,-6,750,-4642,23,-349,-152,142
948,-15168,10,734,-4643,23,-349,-149,145
949,-15178,20,740,-4640,23,-352,-152,139
950,-15158,18,736,-4642,23,-347,-153,139
951,-15164,14,742,-4641,23,-352,-155,137
952,-15176,0,738,-4642,23,-348,-153,131
953,-15182,-20,732,-4643,23,-351,-155,137
954,-15152,-24,746,-4641,23,-352,-151,138
955,-15148,-18,772,-4640,23,-353,-151,139
956,-15160,-32,770,-4636,23,-355,-149,139
957,-15168,-34,754,-4637,23,-353,-149,134
958,-15168,-16,772,-4644,23,-352,-157,138
959,-15154,-14,726,-4641,23,-350,-153,138
960,-15174,-12,742,-4641,23,-347,-152,140
961,-15150,-18,720,-4641,23,-345,-153,140
962,-15158,-38,752,-4641,23,-348,-154,142
963,-15170,-16,734,-4641,23,-350,-152,140
964,-15166,-24,746,-4640,23,-346,-150,142
965,-15158,-16,770,-4643,23,-346,-150,143
966,-15148,-2,762,-4643,23,-343,-149,139
967,-15150,-2,752,-4643,23,-343,-151,143
968,-15164,-10,762,-4642,23,-345,-151,141
969,-15148,-18,756,-4641,23,-348,-156,142
970,-15164,-14,736,-4643,23,-351,-155,140
971,-15156,-18,750,-4642,23,-352,-156,143
972,-15158,-16,750,-4643,23,-349,-156,138
973,-15162,-34,760,-4647,23,-343,-154,137
974,-15162,-34,758,-4643,23,-347,-154,138
975,-15160,-46,776,-4645,23,-348,-154,139
976,-15146,-24,766,-4642,23,-344,-150,138
977,-15156,-10,738,-4644,23,-349,-150,140
978,-15170,-14,714,-4646,23,-347,-148,142
979,-15162,-14,736,-4645,23,-344,-151,141
980,-15158,-12,748,-4643,23,-348,-155,146
981,-15154,-8,736,-4647,23,-349,-153,142
982,-15158,-34,756,-4646,23,-350,-154,141
983,-15168,-30,746,-4645,23,-350,-156,141
984,-15180,-22,754,-4643,23,-350,-154,138
985,-15152,-18,760,-4642,23,-352,-149,144
986,-15160,-32,738,-4642,23,-349,-151,143
987,-15164,-26,758,-4643,23,-351,-150,144
988,-15144,-16,752,-4642,23,-349,-151,145
989,-15148,-28,744,-4643,23,-350,-154,142
990,-15168,-22,764,-4645,23,-351,-157,139
991,-15162,-14,760,-4644,23,-354,-156,143
992,-15156,8,744,-4643,23,-349,-152,143
993,-15162,6,752,-4641,23,-346,-152,139
994,-15156,8,776,-4642,23,-347,-152,141
995,-15162,6,776,-4641,23,-350,-155,143
