,acc_X,acc_Y,acc_Z,temp,tempC,gyr_X,gyr_Y,gyr_Z
0,-1894,-1,97,-4609,23,-44,-19,17
1,-1894,-2,96,-4610,23,-44,-20,17
2,-1894,-1,96,-4609,23,-44,-20,17
3,-1894,-1,95,-4609,23,-44,-20,17
4,-1893,-2,95,-4610,23,-44,-19,17
5,-1894,-2,95,-4611,23,-44,-19,17
6,-1893,-1,95,-4610,23,-44,-19,17
7,-1894,-1,96,-4611,23,-44,-20,17
8,-1895,-1,97,-4610,23,-44,-19,17
9,-1894,-1,97,-4610,23,-44,-20,17
10,-1894,-1,97,-4609,23,-44,-20,17
11,-1894,-2,96,-4606,23,-44,-20,17
12,-1894,-3,95,-4607,23,-44,-20,17
13,-1894,-2,94,-4607,23,-44,-20,17
14,-1895,-3,94,-4606,23,-44,-20,17
15,-1895,-3,96,-4607,23,-44,-20,17
16,-1895,-1,96,-4607,23,-44,-20,17
17,-1894,-2,95,-4607,23,-44,-20,17
18,-1895,-3,94,-4606,23,-44,-20,17
19,-1895,-3,93,-4608,23,-44,-20,17
20,-1895,-2,93,-4609,23,-44,-19,17
21,-1895,-3,93,-4608,23,-44,-20,17
22,-1894,-1,93,-4608,23,-44,-20,17
23,-1894,-1,93,-4606,23,-44,-20,17
24,-1894,-1,95,-4606,23,-44,-20,17
25,-1894,-1,95,-4608,23,-44,-20,17
26,-1894,-1,96,-4608,23,-44,-19,17
27,-1894,-1,95,-4608,23,-44,-19,17
28,-1894,-2,96,-4609,23,-44,-19,17
29,-1894,-2,96,-4610,23,-44,-19,17
30,-1895,-2,96,-4610,23,-44,-19,17
31,-1895,-3,96,-4611,23,-44,-19,17
32,-1896,-4,96,-4611,23,-44,-19,17
33,-1895,-3,97,-4611,23,-44,-19,17
34,-1894,-4,95,-4612,23,-44,-19,17
35,-1895,-3,96,-4610,23,-43,-19,17
36,-1894,-3,96,-4609,23,-43,-20,17
37,-1894,-3,97,-4607,23,-43,-20,17
38,-1895,-3,94,-4607,23,-43,-20,17
39,-1895,-3,95,-4607,23,-43,-20,17
40,-1895,-3,92,-4605,23,-43,-20,17
41,-1896,-3,91,-4606,23,-43,-20,17
42,-1897,-3,91,-4605,23,-44,-20,17
43,-1897,-3,92,-4605,23,-44,-19,17
44,-1897,-2,93,-4608,23,-44,-19,17
45,-1897,-2,94,-4607,23,-44,-20,17
46,-1896,0,94,-4607,23,-44,-20,17
47,-1896,-1,93,-4609,23,-44,-19,17
48,-1895,0,93,-4607,23,-44,-19,17
49,-1895,-1,93,-4606,23,-43,-19,17
50,-1895,-1,93,-4607,23,-44,-20,17
51,-1895,-1,95,-4606,23,-44,-20,17
52,-1896,0,96,-4606,23,-44,-20,17
53,-1896,0,95,-4605,23,-44,-19,17
54,-1896,0,94,-4606,23,-44,-20,17
55,-1896,1,94,-4605,23,-44,-20,17
56,-1895,0,93,-4606,23,-44,-19,17
57,-1895,0,94,-4608,23,-44,-19,18
58,-1894,-1,95,-4607,23,-44,-19,17
59,-1893,-1,94,-4608,23,-44,-19,17
60,-1894,-1,95,-4609,23,-44,-19,17
61,-1895,-1,92,-4609,23,-44,-19,17
62,-1894,-1,92,-4608,23,-44,-19,17
63,-1894,-1,91,-4609,23,-44,-19,17
64,-1895,-2,92,-4610,23,-44,-19,17
65,-1894,-2,93,-4610,23,-44,-19,17
66,-1895,-2,94,-4609,23,-44,-19,17
67,-1895,-2,93,-4607,23,-44,-19,17
68,-1896,-2,94,-4607,23,-44,-19,17
69,-1896,-2,94,-4608,23,-44,-19,17
70,-1895,-2,93,-4609,23,-44,-20,17
71,-1896,-1,93,-4607,23,-44,-20,17
72,-1896,-1,93,-4606,23,-44,-20,17
73,-1896,-1,94,-4605,23,-44,-20,17
74,-1896,1,93,-4604,23,-44,-20,17
75,-1896,0,94,-4606,23,-44,-20,17
76,-1896,-2,93,-4607,23,-44,-20,17
77,-1896,-2,93,-4607,23,-44,-19,17
78,-1896,-2,93,-4608,23,-44,-19,17
79,-1896,-1,94,-4608,23,-44,-19,17
80,-1896,0,95,-4608,23,-44,-19,17
81,-1896,0,96,-4608,23,-44,-19,17
82,-1896,-1,95,-4607,23,-44,-19,17
83,-1895,0,94,-4605,23,-44,-19,17
84,-1895,-1,97,-4606,23,-44,-20,17
85,-1896,-2,97,-4607,23,-44,-20,17
86,-1896,-1,97,-4606,23,-44,-20,17
87,-1895,-1,94,-4607,23,-44,-20,17
88,-1896,-2,94,-4609,23,-44,-20,17
89,-1896,-3,93,-4607,23,-44,-20,17
90,-1895,-3,94,-4605,23,-44,-20,17
91,-1894,-3,93,-4606,23,-44,-20,17
92,-1893,-2,95,-4605,23,-44,-20,17
93,-1894,-2,94,-4605,23,-44,-19,17
94,-1894,-3,93,-4605,23,-44,-19,17
95,-1895,-3,95,-4605,23,-44,-19,17
96,-1895,-2,96,-4606,23,-44,-19,17
97,-1895,-2,95,-4606,23,-44,-19,17
98,-1894,-1,95,-4606,23,-44,-19,17
99,-1895,-2,95,-4606,23,-44,-19,17
100,-1895,-2,93,-4605,23,-44,-19,17
101,-1894,-1,92,-4605,23,-44,-19,17
102,-1895,0,92,-4604,23,-44,-20,17
103,-1895,-1,93,-4605,23,-44,-19,17
104,-1895,-2,93,-4605,23,-44,-20,17
105,-1895,-1,93,-4606,23,-44,-19,17
106,-1895,-2,95,-4606,23,-43,-19,17
107,-1894,-1,92,-4607,23,-44,-19,17
108,-1894,-1,92,-4606,23,-44,-20,17
109,-1894,-1,93,-4604,23,-44,-20,17
110,-1893,0,93,-4604,23,-44,-20,17
111,-1893,-1,93,-4602,23,-44,-19,17
112,-1893,-1,94,-4603,23,-44,-19,17
113,-1893,-1,93,-4605,23,-44,-19,17
114,-1892,-1,93,-4603,23,-44,-19,17
115,-1892,-1,95,-4605,23,-44,-19,17
116,-1893,-1,94,-4603,23,-44,-19,17
117,-1894,-1,91,-4605,23,-44,-20,17
118,-1893,-1,92,-4606,23,-44,-20,17
119,-1893,-2,93,-4608,23,-44,-20,17
120,-1893,-2,94,-4606,23,-44,-20,17
121,-1894,-2,93,-4606,23,-44,-19,17
122,-1893,0,92,-4605,23,-44,-20,17
123,-1895,-1,95,-4605,23,-44,-20,17
124,-1894,-1,95,-4608,23,-44,-19,17
125,-1894,-1,96,-4608,23,-44,-19,17
126,-1895,-2,95,-4607,23,-44,-19,17
127,-1895,-2,95,-4608,23,-44,-19,17
128,-1896,-3,94,-4608,23,-44,-19,17
129,-1896,-3,95,-4608,23,-44,-20,17
130,-1895,-2,94,-4607,23,-44,-20,17
131,-1895,-2,92,-4607,23,-44,-20,17
132,-1895,-3,93,-4607,23,-44,-20,17
133,-1897,-3,92,-4606,23,-44,-19,17
134,-1896,-3,92,-4606,23,-44,-20,17
135,-1896,-2,91,-4607,23,-44,-20,17
136,-1896,-2,94,-4608,23,-44,-20,17
137,-1895,-3,93,-4607,23,-44,-20,17
138,-1895,-3,93,-4607,23,-44,-20,16
139,-1895,-3,95,-4608,23,-44,-20,16
140,-1895,-2,95,-4607,23,-44,-20,17
141,-1894,-2,95,-4609,23,-44,-20,17
142,-1894,-3,95,-4607,23,-44,-20,17
143,-1894,-3,97,-4606,23,-44,-20,17
144,-1894,-2,97,-4607,23,-44,-20,17
145,-1895,-2,98,-4607,23,-44,-20,17
146,-1896,-2,97,-4608,23,-44,-20,17
147,-1896,-2,96,-4607,23,-44,-20,17
148,-1895,-2,96,-4607,23,-44,-20,17
149,-1895,-2,94,-4607,23,-44,-20,17
150,-1896,-3,95,-4606,23,-44,-20,17
151,-1896,-1,95,-4606,23,-44,-20,17
152,-1895,0,95,-4605,23,-44,-20,17
153,-1894,0,94,-4604,23,-44,-20,17
154,-1894,0,93,-4605,23,-44,-20,17
155,-1894,0,91,-4604,23,-44,-20,17
156,-1894,0,92,-4605,23,-44,-20,17
157,-1894,-1,92,-4606,23,-44,-19,17
158,-1895,0,94,-4606,23,-44,-20,17
159,-1893,-1,95,-4607,23,-44,-20,17
160,-1894,-2,94,-4606,23,-44,-20,17
161,-1896,-3,95,-4604,23,-44,-20,17
162,-1895,-2,93,-4605,23,-44,-20,17
163,-1895,-2,94,-4604,23,-44,-20,17
164,-1895,-2,95,-4603,23,-44,-20,17
165,-1894,-2,95,-4604,23,-44,-20,17
166,-1894,-1,96,-4604,23,-44,-20,17
167,-1894,-1,97,-4602,23,-44,-20,17
168,-1893,0,96,-4602,23,-44,-20,17
169,-1894,1,95,-4601,23,-44,-20,17
170,-1894,0,94,-4602,23,-44,-20,17
171,-1894,-1,93,-4601,23,-44,-20,17
172,-1895,-1,94,-4603,23,-44,-19,17
173,-1896,-2,96,-4603,23,-44,-19,17
174,-1896,-2,94,-4604,23,-44,-19,17
175,-1896,-1,94,-4606,23,-44,-20,17
176,-1897,1,95,-4606,23,-44,-20,17
177,-1897,1,94,-4606,23,-44,-20,17
178,-1897,-1,94,-4605,23,-44,-19,17
179,-1896,-1,93,-4604,23,-44,-19,17
180,-1894,0,94,-4604,23,-44,-20,17
181,-1895,-1,95,-4604,23,-44,-20,17
182,-1895,-1,95,-4603,23,-44,-20,17
183,-1895,-1,95,-4605,23,-44,-20,17
184,-1894,-1,96,-4605,23,-44,-20,17
185,-1893,-2,96,-4604,23,-44,-20,17
186,-1894,-3,96,-4602,23,-44,-20,17
187,-1894,-2,97,-4604,23,-44,-19,17
188,-1894,-2,96,-4604,23,-44,-19,17
189,-1894,-2,97,-4603,23,-44,-20,17
190,-1894,-3,97,-4606,23,-44,-19,17
191,-1894,-3,97,-4604,23,-44,-19,17
192,-1894,-2,96,-4605,23,-44,-19,17
193,-1895,-1,94,-4606,23,-44,-19,17
194,-1895,-2,94,-4605,23,-44,-20,17
195,-1895,-3,96,-4605,23,-44,-19,17
196,-1895,-2,95,-4603,23,-44,-19,17
197,-1895,-2,94,-4602,23,-44,-19,17
198,-1894,-1,94,-4602,23,-44,-19,17
199,-1893,-1,92,-4603,23,-44,-19,17
200,-1893,-1,93,-4604,23,-44,-19,17
201,-1893,0,93,-4603,23,-44,-19,17
202,-1893,0,96,-4604,23,-44,-19,17
203,-1894,-1,95,-4604,23,-44,-20,17
204,-1895,0,97,-4605,23,-44,-20,17
205,-1894,-1,97,-4604,23,-44,-20,17
206,-1894,0,97,-4601,23,-44,-20,17
207,-1895,-1,96,-4603,23,-44,-20,17
208,-1895,0,97,-4601,23,-44,-20,17
209,-1894,-1,97,-4600,23,-44,-20,17
210,-1894,-2,96,-4601,23,-44,-20,17
211,-1894,-3,96,-4604,23,-44,-20,17
212,-1894,-2,96,-4606,23,-44,-20,17
213,-1894,-1,95,-4605,23,-44,-20,17
214,-1895,-1,94,-4606,23,-44,-20,17
215,-1894,-1,93,-4607,23,-44,-20,17
216,-1894,-1,93,-4606,23,-44,-20,17
217,-1894,-1,91,-4604,23,-44,-20,17
218,-1895,-2,91,-4605,23,-44,-20,17
219,-1896,-1,91,-4604,23,-44,-20,17
220,-1895,-1,92,-4605,23,-44,-20,17
221,-1895,-1,92,-4603,23,-44,-20,17
222,-1895,-2,91,-4605,23,-44,-20,17
223,-1896,-3,92,-4606,23,-44,-20,17
224,-1895,-3,93,-4607,23,-44,-20,17
225,-1894,-2,93,-4606,23,-44,-20,17
226,-1894,-2,94,-4607,23,-44,-20,17
227,-1895,-2,94,-4607,23,-44,-20,17
228,-1895,-1,95,-4605,23,-44,-20,17
229,-1895,-1,94,-4603,23,-44,-20,17
230,-1894,0,94,-4602,23,-44,-19,17
231,-1893,-1,95,-4602,23,-44,-19,17
232,-1894,-1,93,-4603,23,-44,-19,17
233,-1895,-2,93,-4604,23,-44,-19,17
234,-1894,-2,93,-4604,23,-44,-19,17
235,-1896,-3,94,-4604,23,-44,-19,17
236,-1896,-3,94,-4606,23,-44,-19,17
237,-1897,-3,94,-4605,23,-44,-19,17
238,-1897,-3,94,-4605,23,-44,-19,17
239,-1896,-4,96,-4606,23,-44,-19,17
240,-1896,-4,96,-4606,23,-44,-19,17
241,-1895,-3,97,-4607,23,-44,-19,17
242,-1894,-3,97,-4605,23,-44,-19,17
243,-1894,-2,96,-4605,23,-44,-19,17
244,-1894,-2,98,-4602,23,-44,-20,17
245,-1894,-1,97,-4603,23,-44,-20,17
246,-1894,-2,96,-4602,23,-44,-20,17
247,-1894,-2,96,-4602,23,-44,-20,17
248,-1894,-2,96,-4603,23,-44,-20,17
249,-1894,-3,95,-4603,23,-44,-20,17
250,-1895,-3,95,-4603,23,-44,-20,17
251,-1895,-3,95,-4604,23,-44,-20,17
252,-1895,-4,96,-4603,23,-44,-20,17
253,-1895,-3,95,-4602,23,-44,-20,17
254,-1895,-3,93,-4602,23,-44,-20,17
255,-1896,-2,94,-4603,23,-44,-20,17
256,-1895,-2,94,-4604,23,-44,-20,17
257,-1895,-2,94,-4601,23,-44,-19,17
258,-1896,-2,94,-4601,23,-44,-19,17
259,-1896,-2,95,-4601,23,-44,-19,17
260,-1896,-2,96,-4602,23,-44,-19,17
261,-1896,-2,97,-4601,23,-44,-19,17
262,-1896,-2,97,-4603,23,-44,-19,17
263,-1895,-3,94,-4602,23,-44,-20,17
264,-1895,-3,94,-4602,23,-44,-19,17
265,-1895,-2,95,-4604,23,-44,-20,17
266,-1895,-2,93,-4603,23,-44,-19,17
267,-1894,-2,94,-4604,23,-44,-19,17
268,-1894,-3,94,-4604,23,-44,-20,17
269,-1893,-2,93,-4603,23,-44,-20,17
270,-1892,-2,95,-4602,23,-44,-20,17
271,-1894,-3,96,-4604,23,-44,-20,17
272,-1894,-3,94,-4604,23,-44,-20,17
273,-1894,-3,93,-4604,23,-44,-20,17
274,-1894,-3,94,-4604,23,-44,-20,17
275,-1895,-4,93,-4605,23,-44,-20,17
276,-1895,-4,92,-4605,23,-44,-19,17
277,-1894,-3,93,-4605,23,-44,-19,17
278,-1894,-4,94,-4607,23,-44,-19,17
279,-1894,-3,95,-4607,23,-44,-20,17
280,-1893,-3,95,-4606,23,-44,-20,17
281,-1893,0,94,-4605,23,-44,-19,17
282,-1893,0,95,-4604,23,-44,-19,17
283,-1894,0,95,-4604,23,-44,-19,17
284,-1893,-1,94,-4605,23,-44,-19,17
285,-1894,-3,94,-4605,23,-44,-19,17
286,-1894,-2,94,-4605,23,-44,-19,17
287,-1893,-2,95,-4604,23,-44,-19,17
288,-1893,-2,95,-4604,23,-44,-19,17
289,-1895,-2,95,-4604,23,-44,-20,17
290,-1895,-3,95,-4605,23,-44,-20,17
291,-1895,-3,95,-4604,23,-44,-20,17
292,-1894,-2,95,-4603,23,-44,-20,17
293,-1894,-2,96,-4605,23,-44,-20,17
294,-1894,-2,97,-4603,23,-44,-19,17
295,-1893,-1,99,-4601,23,-44,-20,17
296,-1894,-1,99,-4602,23,-44,-20,17
297,-1893,-1,99,-4601,23,-44,-20,17
298,-1892,-1,97,-4600,23,-45,-19,17
299,-1893,0,97,-4600,23,-45,-19,17
300,-1892,-1,96,-4601,23,-45,-19,17
301,-1893,-1,94,-4601,23,-44,-19,17
302,-1894,-1,94,-4600,23,-44,-19,17
303,-1895,-2,94,-4599,23,-44,-19,17
304,-1895,-1,96,-4600,23,-44,-19,17
305,-1895,-1,96,-4600,23,-44,-19,17
306,-1895,-1,96,-4602,23,-44,-19,17
307,-1895,-1,95,-4601,23,-44,-19,17
308,-1895,-2,94,-4601,23,-44,-20,17
309,-1895,-2,94,-4600,23,-44,-20,17
310,-1894,-2,93,-4601,23,-44,-20,17
311,-1896,-2,92,-4602,23,-44,-20,17
312,-1895,-2,90,-4602,23,-44,-20,17
313,-1895,-3,89,-4603,23,-44,-19,17
314,-1895,-3,90,-4602,23,-44,-19,17
315,-1893,-4,91,-4603,23,-44,-19,17
316,-1894,-3,92,-4601,23,-44,-19,17
317,-1894,-2,91,-4602,23,-44,-20,17
318,-1895,-3,93,-4602,23,-44,-19,17
319,-1894,-4,95,-4602,23,-44,-20,17
320,-1894,-4,96,-4601,23,-44,-20,17
321,-1893,-3,95,-4600,23,-44,-20,17
322,-1894,-3,97,-4602,23,-44,-20,17
323,-1893,-3,96,-4603,23,-44,-20,17
324,-1893,-4,97,-4603,23,-44,-20,17
325,-1893,-4,97,-4602,23,-44,-20,17
326,-1894,-4,96,-4603,23,-44,-19,17
327,-1895,-4,96,-4604,23,-44,-20,17
328,-1895,-4,95,-4604,23,-44,-20,17
329,-1895,-3,94,-4603,23,-44,-19,17
330,-1896,-3,92,-4602,23,-44,-19,17
331,-1896,-2,93,-4602,23,-44,-19,17
332,-1896,-2,92,-4605,23,-44,-19,17
333,-1896,-2,92,-4603,23,-44,-19,17
334,-1896,-1,91,-4603,23,-44,-19,17
335,-1896,-1,91,-4602,23,-44,-19,17
336,-1895,-1,91,-4601,23,-44,-19,17
337,-1894,0,91,-4602,23,-44,-19,17
338,-1894,-1,92,-4604,23,-44,-19,17
339,-1895,-1,91,-4605,23,-44,-19,17
340,-1895,0,93,-4606,23,-44,-19,17
341,-1896,-2,92,-4605,23,-44,-20,17
342,-1895,-1,91,-4604,23,-44,-20,17
343,-1895,-1,92,-4604,23,-44,-20,17
344,-1895,-1,90,-4604,23,-44,-20,17
345,-1895,-3,92,-4603,23,-44,-20,17
346,-1895,-3,90,-4603,23,-44,-20,17
347,-1895,-3,93,-4601,23,-44,-20,17
348,-1894,-3,92,-4599,23,-44,-20,17
349,-1893,-3,93,-4599,23,-44,-20,17
350,-1894,-4,94,-4599,23,-44,-20,17
351,-1895,-4,95,-4601,23,-44,-20,17
352,-1895,-3,93,-4600,23,-44,-20,17
353,-1894,-1,92,-4601,23,-44,-20,17
354,-1894,-2,93,-4602,23,-44,-20,17
355,-1894,-1,93,-4603,23,-44,-20,17
356,-1894,-1,93,-4602,23,-44,-20,17
357,-1894,-1,96,-4601,23,-44,-20,17
358,-1894,-2,95,-4599,23,-44,-20,17
359,-1893,-1,95,-4602,23,-44,-20,17
360,-1894,-1,95,-4602,23,-44,-20,17
361,-1895,-1,94,-4601,23,-44,-20,17
362,-1896,-2,95,-4599,23,-44,-20,17
363,-1896,-1,96,-4599,23,-44,-20,17
364,-1896,-2,96,-4599,23,-44,-20,17
365,-1896,-1,96,-4598,23,-44,-20,17
366,-1897,-2,96,-4598,23,-43,-20,17
367,-1896,-1,98,-4599,23,-44,-20,17
368,-1895,-2,96,-4600,23,-44,-20,17
369,-1896,-1,96,-4600,23,-44,-20,17
370,-1896,-1,98,-4599,23,-44,-20,17
371,-1896,0,95,-4599,23,-44,-20,17
372,-1895,0,94,-4598,23,-44,-20,17
373,-1896,-1,94,-4598,23,-44,-20,17
374,-1895,-1,96,-4597,23,-44,-20,17
375,-1895,-1,95,-4597,23,-44,-20,17
376,-1895,-2,94,-4596,23,-44,-20,17
377,-1894,-1,95,-4596,23,-44,-20,17
378,-1896,-2,95,-4600,23,-44,-20,17
379,-1896,-2,96,-4602,23,-44,-19,17
380,-1896,-2,95,-4603,23,-44,-19,17
381,-1894,-2,94,-4604,23,-44,-19,17
382,-1894,-2,94,-4603,23,-44,-19,17
383,-1893,-3,95,-4601,23,-44,-20,17
384,-1893,-2,94,-4602,23,-44,-20,17
385,-1894,-3,93,-4601,23,-44,-20,17
386,-1895,-1,94,-4602,23,-44,-20,17
387,-1895,-2,95,-4601,23,-44,-20,17
388,-1895,-2,96,-4602,23,-44,-20,17
389,-1895,-3,95,-4602,23,-44,-20,17
390,-1895,-3,95,-4603,23,-44,-20,17
391,-1896,-3,94,-4602,23,-44,-20,17
392,-1895,-4,95,-4603,23,-44,-20,17
393,-1896,-4,95,-4600,23,-44,-20,17
394,-1894,-4,95,-4603,23,-44,-20,17
395,-1895,-4,95,-4605,23,-44,-20,17
396,-1895,-4,95,-4605,23,-44,-20,17
397,-1896,-3,94,-4605,23,-44,-20,17
398,-1895,-2,95,-4604,23,-44,-20,17
399,-1895,-2,94,-4604,23,-44,-19,17
400,-1895,-3,94,-4602,23,-44,-19,17
401,-1895,-4,92,-4601,23,-44,-19,17
402,-1896,-3,93,-4602,23,-44,-19,17
403,-1896,-4,93,-4603,23,-44,-19,18
404,-1897,-4,93,-4603,23,-44,-20,18
405,-1895,-2,94,-4604,23,-44,-20,17
406,-1896,-2,93,-4604,23,-44,-20,17
407,-1895,-1,95,-4603,23,-44,-20,17
408,-1894,-1,95,-4598,23,-44,-20,17
409,-1894,-2,94,-4600,23,-44,-20,17
410,-1895,-2,95,-4601,23,-44,-20,17
411,-1895,-2,93,-4600,23,-44,-19,17
412,-1894,-2,92,-4600,23,-44,-19,17
413,-1893,-3,93,-4598,23,-44,-20,17
414,-1894,-4,92,-4598,23,-44,-20,17
415,-1893,-4,94,-4599,23,-44,-20,17
416,-1893,-3,94,-4600,23,-44,-20,17
417,-1894,-3,92,-4602,23,-44,-20,17
418,-1893,-4,92,-4603,23,-44,-20,17
419,-1895,-4,93,-4603,23,-44,-20,17
420,-1894,-3,93,-4602,23,-44,-19,17
421,-1895,-2,92,-4603,23,-44,-20,17
422,-1895,-3,91,-4602,23,-44,-20,17
423,-1894,-2,91,-4602,23,-44,-20,17
424,-1894,-2,90,-4602,23,-44,-20,17
425,-1893,-3,92,-4601,23,-44,-20,17
426,-1892,-3,91,-4601,23,-44,-20,17
427,-1893,-3,91,-4601,23,-44,-20,17
428,-1893,-2,90,-4600,23,-44,-20,17
429,-1894,-1,93,-4601,23,-44,-20,17
430,-1895,-2,91,-4602,23,-44,-20,17
431,-1894,-3,92,-4602,23,-44,-20,17
432,-1894,-3,92,-4602,23,-44,-20,17
433,-1894,-3,94,-4601,23,-44,-19,17
434,-1893,-2,95,-4602,23,-44,-19,17
435,-1892,-1,95,-4602,23,-44,-19,17
436,-1893,-2,96,-4602,23,-44,-20,17
437,-1893,-2,97,-4601,23,-44,-20,17
438,-1893,0,97,-4601,23,-44,-20,17
439,-1894,-2,97,-4601,23,-44,-20,16
440,-1894,-1,97,-4602,23,-44,-20,17
441,-1894,-2,97,-4601,23,-44,-20,17
442,-1894,-2,95,-4600,23,-44,-20,17
443,-1895,-2,95,-4600,23,-44,-19,17
444,-1895,-2,95,-4599,23,-44,-20,17
445,-1896,-2,93,-4600,23,-44,-20,17
446,-1896,-3,92,-4600,23,-44,-20,17
447,-1896,-4,93,-4600,23,-44,-20,17
448,-1897,-4,92,-4601,23,-44,-20,17
449,-1896,-3,92,-4604,23,-44,-20,17
450,-1895,-3,91,-4603,23,-44,-20,17
451,-1894,-1,91,-4602,23,-44,-20,17
452,-1896,-1,91,-4602,23,-44,-19,17
453,-1897,-2,91,-4601,23,-44,-19,17
454,-1896,-2,92,-4601,23,-44,-19,17
455,-1896,-2,90,-4602,23,-44,-19,17
456,-1896,-2,89,-4602,23,-44,-19,17
457,-1895,-1,88,-4602,23,-44,-20,17
458,-1894,-1,88,-4602,23,-44,-19,17
459,-1893,-3,89,-4602,23,-44,-20,17
460,-1894,-3,91,-4601,23,-44,-19,17
461,-1894,-2,92,-4601,23,-44,-20,17
462,-1894,-2,93,-4600,23,-44,-20,17
463,-1894,-1,93,-4604,23,-44,-20,17
464,-1894,-2,93,-4602,23,-44,-20,17
465,-1893,-2,92,-4602,23,-44,-20,17
466,-1895,-1,92,-4601,23,-44,-20,17
467,-1895,-2,94,-4603,23,-44,-20,17
468,-1895,-3,94,-4603,23,-44,-20,17
469,-1895,-3,93,-4602,23,-44,-20,17
470,-1894,-1,95,-4601,23,-44,-20,17
471,-1895,-1,94,-4602,23,-44,-20,17
472,-1895,-2,93,-4602,23,-44,-20,17
473,-1894,-1,95,-4602,23,-45,-19,17
474,-1894,-1,95,-4602,23,-45,-19,17
475,-1894,-2,95,-4603,23,-44,-20,17
476,-1894,-2,94,-4604,23,-44,-20,17
477,-1893,-2,95,-4604,23,-44,-20,17
478,-1893,-1,95,-4603,23,-44,-19,16
479,-1895,0,94,-4604,23,-44,-19,16
480,-1896,0,93,-4604,23,-44,-20,17
481,-1895,0,95,-4602,23,-44,-20,17
482,-1894,-1,97,-4602,23,-44,-20,17
483,-1895,0,96,-4602,23,-44,-20,17
484,-1895,-1,95,-4602,23,-44,-20,17
485,-1896,-1,94,-4601,23,-44,-19,17
486,-1895,0,93,-4601,23,-44,-19,17
487,-1894,0,93,-4602,23,-44,-19,17
488,-1894,-1,94,-4601,23,-44,-19,17
489,-1894,-2,93,-4599,23,-44,-20,17
490,-1893,-1,93,-4600,23,-44,-20,17
491,-1892,-1,91,-4599,23,-44,-19,17
492,-1891,-2,93,-4599,23,-44,-19,17
493,-1893,-2,92,-4599,23,-44,-20,17
494,-1893,-1,92,-4599,23,-44,-20,17
495,-1893,-1,93,-4599,23,-44,-20,17
496,-1893,-1,96,-4601,23,-44,-20,17
497,-1894,-2,92,-4598,23,-44,-20,17
498,-1894,-3,91,-4599,23,-44,-20,17
499,-1894,-4,91,-4600,23,-44,-20,17
500,-1895,-3,92,-4600,23,-44,-20,17
501,-1895,-3,94,-4601,23,-44,-20,17
502,-1896,-3,92,-4600,23,-44,-20,17
503,-1896,-3,93,-4602,23,-44,-20,17
504,-1896,-4,93,-4603,23,-43,-20,17
505,-1895,-3,94,-4604,23,-43,-20,17
506,-1894,-3,94,-4604,23,-43,-20,17
507,-1895,-2,92,-4602,23,-44,-20,17
508,-1895,-2,91,-4602,23,-44,-20,17
509,-1895,-2,92,-4601,23,-44,-20,17
510,-1893,-3,91,-4598,23,-44,-20,17
511,-1893,-5,91,-4599,23,-44,-20,17
512,-1895,-4,91,-4599,23,-43,-20,17
513,-1894,-5,94,-4600,23,-44,-20,17
514,-1895,-4,93,-4601,23,-44,-20,17
515,-1895,-3,94,-4601,23,-44,-20,17
516,-1894,-3,95,-4601,23,-44,-20,17
517,-1894,-2,96,-4602,23,-44,-20,17
518,-1893,-1,97,-4605,23,-44,-20,18
519,-1893,-1,96,-4605,23,-44,-20,17
520,-1893,-1,94,-4603,23,-44,-20,17
521,-1893,-1,94,-4605,23,-44,-20,17
522,-1893,-1,96,-4603,23,-45,-20,17
523,-1894,-3,95,-4602,23,-44,-20,17
524,-1894,-3,95,-4602,23,-44,-20,17
525,-1895,-3,95,-4603,23,-44,-20,17
526,-1895,-3,95,-4603,23,-44,-20,17
527,-1894,-3,96,-4603,23,-44,-20,17
528,-1895,-3,96,-4602,23,-44,-20,17
529,-1895,-3,97,-4602,23,-44,-20,17
530,-1895,-2,97,-4601,23,-44,-20,17
531,-1896,-2,97,-4600,23,-44,-20,17
532,-1897,-2,97,-4601,23,-44,-20,17
533,-1897,-2,96,-4598,23,-44,-20,17
534,-1897,-1,93,-4598,23,-44,-20,17
535,-1896,-1,92,-4598,23,-44,-19,17
536,-1896,-2,93,-4599,23,-44,-20,17
537,-1896,-2,94,-4599,23,-44,-20,17
538,-1896,-2,93,-4599,23,-44,-20,17
539,-1895,-1,93,-4599,23,-44,-20,17
540,-1895,-1,93,-4597,23,-44,-20,17
541,-1896,-3,94,-4596,23,-44,-20,17
542,-1895,-4,91,-4598,23,-44,-20,17
543,-1895,-3,93,-4597,23,-44,-20,17
544,-1895,-3,94,-4596,23,-44,-20,17
545,-1894,-3,94,-4598,23,-44,-19,17
546,-1894,-3,94,-4599,23,-44,-20,17
547,-1893,-2,93,-4599,23,-44,-20,17
548,-1893,-2,94,-4599,23,-44,-20,17
549,-1893,-2,94,-4599,23,-44,-20,17
550,-1894,-3,95,-4599,23,-44,-20,17
551,-1894,-2,96,-4601,23,-44,-20,17
552,-1895,-2,97,-4600,23,-44,-19,17
553,-1895,-3,95,-4600,23,-44,-19,17
554,-1895,-3,96,-4599,23,-44,-20,17
555,-1896,-2,95,-4599,23,-44,-19,17
556,-1895,-1,96,-4597,23,-44,-19,17
557,-1894,-1,95,-4596,23,-44,-20,17
558,-1895,-1,95,-4598,23,-44,-19,17
559,-1895,-1,94,-4598,23,-44,-19,17
560,-1895,-2,95,-4598,23,-44,-20,17
561,-1896,-1,95,-4596,23,-44,-20,17
562,-1896,-1,94,-4598,23,-44,-20,17
563,-1895,-2,93,-4600,23,-44,-20,17
564,-1895,-2,93,-4598,23,-44,-20,17
565,-1895,-3,93,-4598,23,-44,-19,17
566,-1895,-2,94,-4597,23,-44,-19,17
567,-1894,-3,90,-4597,23,-44,-19,17
568,-1894,-2,90,-4598,23,-44,-20,17
569,-1894,-2,89,-4596,23,-44,-20,17
570,-1895,-2,90,-4597,23,-44,-20,17
571,-1895,-1,92,-4598,23,-44,-20,17
572,-1895,0,94,-4601,23,-45,-20,17
573,-1895,0,94,-4602,23,-44,-20,17
574,-1895,0,93,-4600,23,-44,-20,17
575,-1895,-1,91,-4598,23,-45,-20,17
576,-1895,-1,93,-4598,23,-44,-19,17
577,-1895,1,93,-4597,23,-44,-19,17
578,-1895,-1,95,-4598,23,-44,-20,17
579,-1895,-1,94,-4600,23,-44,-20,17
580,-1895,-3,94,-4601,23,-44,-20,17
581,-1894,-2,94,-4599,23,-45,-20,17
582,-1893,-2,94,-4598,23,-45,-20,17
583,-1895,-3,93,-4599,23,-45,-20,17
584,-1894,-4,92,-4599,23,-44,-19,17
585,-1895,-4,92,-4600,23,-44,-20,17
586,-1895,-3,92,-4600,23,-44,-20,17
587,-1894,-3,91,-4602,23,-44,-20,17
588,-1894,-3,91,-4601,23,-44,-20,17
589,-1893,-3,94,-4602,23,-44,-20,17
590,-1893,-3,93,-4599,23,-44,-20,17
591,-1892,-4,95,-4598,23,-44,-19,17
592,-1892,-3,93,-4598,23,-44,-20,17
593,-1893,-3,93,-4598,23,-44,-20,17
594,-1895,-3,93,-4598,23,-44,-20,17
595,-1894,-2,93,-4597,23,-44,-20,17
596,-1894,-2,92,-4598,23,-44,-20,17
597,-1895,-1,92,-4596,23,-44,-20,17
598,-1895,0,93,-4596,23,-44,-20,17
599,-1895,-2,94,-4595,23,-44,-20,17
600,-1895,-2,93,-4596,23,-44,-20,17
601,-1895,-2,91,-4598,23,-44,-20,17
602,-1895,-1,92,-4598,23,-44,-20,17
603,-1895,-3,92,-4598,23,-44,-20,17
604,-1895,-3,92,-4597,23,-44,-20,17
605,-1896,-3,92,-4598,23,-44,-19,17
606,-1897,-3,93,-4597,23,-44,-20,17
607,-1897,-3,93,-4596,23,-44,-20,17
608,-1897,-2,94,-4595,23,-44,-20,17
609,-1896,-2,95,-4597,23,-44,-20,17
610,-1894,-1,95,-4595,23,-44,-20,17
611,-1894,-2,96,-4594,23,-44,-20,17
612,-1894,-1,97,-4595,23,-44,-20,17
613,-1894,-2,96,-4594,23,-44,-20,17
614,-1894,-2,95,-4595,23,-44,-20,17
615,-1895,-2,96,-4595,23,-44,-20,17
616,-1895,-2,96,-4595,23,-44,-20,17
617,-1895,-1,95,-4597,23,-44,-20,17
618,-1895,-1,93,-4594,23,-45,-20,17
619,-1896,-1,92,-4594,23,-44,-20,17
620,-1897,-2,92,-4594,23,-44,-20,17
621,-1896,-1,91,-4594,23,-44,-20,17
622,-1895,-1,93,-4593,23,-44,-20,17
623,-1895,-1,92,-4594,23,-44,-20,17
624,-1895,-1,94,-4593,23,-44,-20,17
625,-1896,-1,95,-4593,23,-44,-20,17
626,-1895,-2,95,-4594,23,-44,-20,17
627,-1894,-1,95,-4593,23,-44,-20,17
628,-1894,-2,95,-4594,23,-45,-20,17
629,-1895,-1,95,-4594,23,-44,-20,17
630,-1895,-2,93,-4595,23,-44,-20,17
631,-1894,-2,94,-4595,23,-44,-20,17
632,-1895,-2,95,-4594,23,-44,-20,17
633,-1895,-3,96,-4595,23,-44,-20,17
634,-1895,-4,97,-4594,23,-44,-20,17
635,-1895,-3,96,-4595,23,-44,-20,17
636,-1895,-3,95,-4595,23,-44,-20,17
637,-1896,-3,97,-4595,23,-44,-20,17
638,-1895,-3,97,-4595,23,-44,-20,17
639,-1895,-2,96,-4597,23,-44,-19,17
640,-1896,-2,97,-4596,23,-44,-19,17
641,-1896,-2,96,-4596,23,-44,-19,17
642,-1895,-2,96,-4595,23,-44,-19,17
643,-1896,-2,96,-4596,23,-44,-19,17
644,-1896,-1,95,-4597,23,-44,-19,17
645,-1895,-1,94,-4596,23,-44,-20,17
646,-1895,0,93,-4597,23,-44,-19,17
647,-1895,-1,93,-4595,23,-44,-19,17
648,-1895,-3,94,-4594,23,-44,-20,17
649,-1895,-2,93,-4596,23,-44,-19,17
650,-1895,-2,92,-4596,23,-44,-20,17
651,-1896,-2,92,-4594,23,-44,-20,17
652,-1895,-1,92,-4595,23,-44,-20,17
653,-1894,0,93,-4594,23,-44,-19,17
654,-1896,0,93,-4595,23,-44,-20,17
655,-1897,1,94,-4596,23,-44,-20,17
656,-1896,-1,93,-4596,23,-44,-20,17
657,-1896,-1,91,-4596,23,-44,-20,17
658,-1896,-1,92,-4595,23,-44,-19,17
659,-1896,-1,94,-4596,23,-44,-20,17
660,-1894,-1,94,-4596,23,-44,-20,17
661,-1893,-2,94,-4595,23,-45,-19,17
662,-1894,-3,96,-4597,23,-44,-20,17
663,-1895,-3,97,-4597,23,-44,-19,17
664,-1895,-2,97,-4597,23,-44,-19,17
665,-1894,-2,96,-4596,23,-44,-19,17
666,-1894,-3,96,-4596,23,-44,-19,17
667,-1895,-3,97,-4596,23,-44,-20,17
668,-1895,-2,97,-4594,23,-44,-20,17
669,-1893,-3,98,-4594,23,-44,-20,17
670,-1894,-2,96,-4595,23,-44,-20,17
671,-1893,-2,97,-4596,23,-44,-20,17
672,-1894,-1,96,-4596,23,-44,-20,17
673,-1894,0,94,-4595,23,-44,-20,17
674,-1894,-1,92,-4595,23,-44,-20,17
675,-1892,-1,92,-4594,23,-44,-20,17
676,-1892,-1,92,-4593,23,-44,-20,17
677,-1893,-1,93,-4593,23,-44,-19,17
678,-1893,-2,92,-4594,23,-44,-20,17
679,-1892,-1,93,-4592,23,-44,-20,17
680,-1894,-2,93,-4592,23,-44,-20,17
681,-1895,-2,94,-4592,23,-44,-20,17
682,-1896,-3,93,-4592,23,-44,-20,17
683,-1895,-3,93,-4593,23,-44,-20,17
684,-1895,-3,94,-4592,23,-44,-20,17
685,-1895,-3,94,-4591,23,-44,-20,17
686,-1894,-3,95,-4591,23,-44,-20,17
687,-1895,-3,95,-4593,23,-44,-20,17
688,-1894,-2,95,-4593,23,-44,-20,17
689,-1893,-3,94,-4593,23,-44,-20,17
690,-1894,-3,93,-4594,23,-44,-20,17
691,-1894,-4,92,-4595,23,-44,-20,17
692,-1894,-4,92,-4595,23,-44,-20,17
693,-1893,-3,92,-4595,23,-44,-20,17
694,-1894,-2,93,-4595,23,-44,-20,17
695,-1895,-2,93,-4596,23,-44,-19,17
696,-1895,-2,90,-4596,23,-44,-19,17
697,-1894,-3,93,-4595,23,-44,-20,17
698,-1894,-2,95,-4596,23,-44,-20,17
699,-1895,-2,95,-4595,23,-44,-20,17
700,-1895,-1,96,-4593,23,-44,-20,17
701,-1894,-1,95,-4595,23,-44,-20,17
702,-1894,0,93,-4595,23,-44,-20,17
703,-1896,-1,93,-4593,23,-44,-20,17
704,-1896,-1,93,-4594,23,-44,-20,17
705,-1895,0,93,-4596,23,-44,-20,17
706,-1896,-1,93,-4595,23,-45,-20,17
707,-1896,-1,92,-4593,23,-45,-20,17
708,-1896,-1,91,-4593,23,-44,-20,17
709,-1895,-2,92,-4595,23,-44,-20,17
710,-1895,-1,92,-4595,23,-44,-19,17
711,-1893,-1,94,-4595,23,-44,-19,17
712,-1894,-1,93,-4595,23,-44,-19,17
713,-1894,-1,94,-4596,23,-44,-19,17
714,-1895,0,94,-4594,23,-44,-19,17
715,-1895,-1,94,-4595,23,-44,-20,17
716,-1895,0,93,-4596,23,-44,-20,17
717,-1896,0,93,-4598,23,-44,-20,17
718,-1896,0,93,-4598,23,-44,-20,17
719,-1895,-2,92,-4597,23,-44,-20,17
720,-1895,-2,93,-4597,23,-44,-20,17
721,-1896,-3,92,-4596,23,-44,-20,17
722,-1896,-3,93,-4595,23,-44,-20,17
723,-1895,-2,92,-4595,23,-44,-20,17
724,-1894,-2,94,-4595,23,-44,-20,17
725,-1895,-3,95,-4595,23,-44,-20,17
726,-1894,-1,93,-4595,23,-44,-21,17
727,-1894,-1,92,-4593,23,-44,-21,17
728,-1895,-1,96,-4594,23,-44,-21,17
729,-1895,-1,95,-4594,23,-44,-20,17
730,-1895,-1,95,-4595,23,-44,-20,17
731,-1895,-2,95,-4594,23,-44,-20,17
732,-1896,-3,94,-4594,23,-44,-20,17
733,-1896,-3,94,-4595,23,-44,-20,17
734,-1896,-3,94,-4594,23,-44,-20,17
735,-1897,-2,94,-4595,23,-44,-20,17
736,-1895,-1,93,-4597,23,-44,-20,17
737,-1896,-2,93,-4598,23,-44,-20,17
738,-1895,-2,93,-4596,23,-44,-20,17
739,-1895,-3,94,-4597,23,-44,-20,17
740,-1894,-3,95,-4597,23,-44,-20,17
741,-1894,-3,95,-4597,23,-44,-20,17
742,-1894,-3,95,-4598,23,-44,-19,17
743,-1895,-1,94,-4598,23,-44,-19,17
744,-1894,-1,94,-4597,23,-44,-19,17
745,-1894,-1,93,-4596,23,-44,-20,17
746,-1894,0,92,-4595,23,-44,-20,17
747,-1896,0,93,-4596,23,-44,-20,17
748,-1895,-2,90,-4596,23,-44,-19,17
749,-1896,-1,90,-4595,23,-44,-19,17
750,-1896,-3,93,-4592,23,-44,-19,17
751,-1896,-3,92,-4591,23,-44,-20,17
752,-1896,-3,92,-4592,23,-44,-20,17
753,-1896,-3,93,-4594,23,-44,-20,17
754,-1896,-2,93,-4593,23,-44,-20,17
755,-1896,-3,93,-4594,23,-44,-20,17
756,-1896,-4,93,-4594,23,-44,-20,17
757,-1896,-3,94,-4593,23,-44,-21,17
758,-1897,-3,93,-4591,23,-44,-20,17
759,-1896,-4,94,-4593,23,-44,-20,17
760,-1896,-4,94,-4594,23,-44,-20,17
761,-1895,-4,95,-4593,23,-44,-20,17
762,-1895,-4,94,-4593,23,-44,-20,17
763,-1896,-3,95,-4592,23,-44,-20,17
764,-1895,-3,95,-4592,23,-44,-20,17
765,-1895,-3,95,-4594,23,-44,-20,17
766,-1893,-4,95,-4593,23,-44,-20,17
767,-1894,-4,95,-4593,23,-44,-20,18
768,-1893,-4,95,-4595,23,-44,-20,18
769,-1893,-4,96,-4594,23,-44,-20,18
770,-1893,-3,97,-4593,23,-44,-20,17
771,-1894,-2,98,-4592,23,-44,-20,17
772,-1894,-2,96,-4594,23,-44,-20,18
773,-1894,-2,95,-4594,23,-44,-20,18
774,-1895,-1,96,-4594,23,-44,-20,17
775,-1895,-1,95,-4594,23,-44,-19,17
776,-1897,-2,95,-4595,23,-44,-20,17
777,-1896,-1,95,-4595,23,-44,-19,17
778,-1897,-1,96,-4594,23,-44,-20,17
779,-1898,-1,96,-4594,23,-44,-20,17
780,-1898,-1,95,-4593,23,-44,-20,17
781,-1896,-1,97,-4594,23,-44,-20,17
782,-1896,-2,95,-4593,23,-44,-20,17
783,-1896,-2,95,-4594,23,-44,-20,17
784,-1896,-2,95,-4594,23,-44,-20,17
785,-1896,-2,96,-4594,23,-44,-20,17
786,-1895,-2,97,-4594,23,-44,-20,17
787,-1896,-2,96,-4595,23,-44,-19,17
788,-1895,-1,97,-4595,23,-44,-20,17
789,-1896,-1,98,-4594,23,-44,-19,17
790,-1895,-1,96,-4594,23,-44,-20,17
791,-1894,-2,97,-4594,23,-44,-20,17
792,-1896,-2,98,-4593,23,-44,-20,17
793,-1896,-2,98,-4593,23,-44,-20,17
794,-1896,-2,97,-4595,23,-44,-20,17
795,-1897,-3,97,-4593,23,-44,-20,17
796,-1897,-3,97,-4594,23,-44,-20,17
797,-1896,-3,96,-4594,23,-44,-20,17
798,-1894,-1,94,-4595,23,-44,-20,17
799,-1895,-1,94,-4595,23,-44,-20,17
800,-1895,-2,94,-4595,23,-44,-20,17
801,-1895,-1,95,-4593,23,-44,-20,17
802,-1895,-2,96,-4594,23,-44,-20,17
803,-1896,-2,95,-4594,23,-44,-20,17
804,-1895,-2,94,-4595,23,-44,-20,17
805,-1895,-3,92,-4597,23,-43,-20,17
806,-1894,-2,92,-4595,23,-44,-20,17
807,-1896,-2,91,-4595,23,-44,-20,17
808,-1896,-3,92,-4595,23,-44,-20,17
809,-1895,-2,91,-4595,23,-44,-20,17
810,-1895,-1,93,-4594,23,-44,-20,17
811,-1895,-2,93,-4595,23,-44,-20,17
812,-1895,-1,91,-4595,23,-44,-20,17
813,-1894,-1,90,-4596,23,-44,-20,17
814,-1893,-3,92,-4595,23,-44,-20,16
815,-1894,-2,92,-4595,23,-44,-20,17
816,-1894,-3,94,-4596,23,-44,-20,17
817,-1893,-3,93,-4595,23,-44,-20,17
818,-1893,-4,92,-4596,23,-44,-20,17
819,-1893,-3,93,-4597,23,-44,-20,17
820,-1894,-2,92,-4596,23,-44,-20,17
821,-1895,-1,93,-4596,23,-44,-20,17
822,-1895,-1,92,-4596,23,-44,-20,17
823,-1895,-1,94,-4598,23,-44,-20,17
824,-1895,-1,95,-4599,23,-44,-20,17
825,-1895,-2,95,-4598,23,-45,-20,17
826,-1895,-2,95,-4598,23,-44,-20,17
827,-1894,-2,95,-4598,23,-44,-20,17
828,-1894,-2,94,-4598,23,-44,-20,17
829,-1894,-2,92,-4597,23,-44,-20,17
830,-1894,-3,92,-4597,23,-44,-20,17
831,-1894,-3,92,-4596,23,-44,-20,17
832,-1895,-3,92,-4595,23,-44,-20,17
833,-1895,-2,93,-4594,23,-44,-19,17
834,-1895,-2,95,-4594,23,-44,-20,17
835,-1895,-1,93,-4593,23,-44,-19,17
836,-1896,-1,93,-4593,23,-44,-19,17
837,-1895,-1,93,-4593,23,-44,-19,17
838,-1895,-2,92,-4594,23,-44,-19,17
839,-1895,-2,93,-4595,23,-44,-20,17
840,-1896,-2,91,-4596,23,-44,-19,17
841,-1896,-2,91,-4596,23,-44,-19,17
842,-1896,-2,91,-4596,23,-44,-20,17
843,-1896,-2,95,-4594,23,-44,-20,17
844,-1895,-3,95,-4594,23,-44,-20,17
845,-1895,-2,93,-4596,23,-44,-20,17
846,-1896,-2,93,-4596,23,-44,-19,17
847,-1896,-2,93,-4594,23,-44,-19,17
848,-1895,-2,94,-4594,23,-44,-20,17
849,-1896,-2,93,-4594,23,-44,-20,17
850,-1895,-3,92,-4593,23,-44,-20,17
851,-1894,-2,93,-4593,23,-44,-20,17
852,-1895,-2,94,-4592,23,-44,-20,17
853,-1895,-2,93,-4592,23,-44,-20,17
854,-1895,-1,93,-4590,23,-44,-20,17
855,-1894,-1,94,-4591,23,-44,-20,17
856,-1895,-1,94,-4590,23,-44,-20,17
857,-1894,-1,95,-4592,23,-44,-20,17
858,-1894,-2,94,-4592,23,-44,-20,17
859,-1895,-2,94,-4595,23,-44,-20,17
860,-1895,-2,94,-4594,23,-44,-20,17
861,-1895,-1,94,-4594,23,-44,-20,17
862,-1894,-2,94,-4594,23,-44,-20,17
863,-1894,-1,94,-4595,23,-44,-20,17
864,-1894,-1,95,-4595,23,-44,-20,17
865,-1893,-1,95,-4596,23,-44,-20,17
866,-1893,-2,94,-4594,23,-44,-20,17
867,-1893,-2,93,-4594,23,-44,-20,18
868,-1893,-3,93,-4595,23,-44,-20,17
869,-1895,-2,95,-4593,23,-44,-20,17
870,-1895,-1,95,-4593,23,-44,-20,17
871,-1895,-2,95,-4594,23,-44,-20,17
872,-1895,-1,95,-4592,23,-44,-20,17
873,-1895,-2,95,-4593,23,-44,-19,17
874,-1895,-2,94,-4593,23,-44,-20,17
875,-1896,-2,94,-4593,23,-44,-20,17
876,-1896,-1,93,-4594,23,-44,-20,17
877,-1895,-2,93,-4592,23,-44,-20,17
878,-1895,-3,95,-4593,23,-44,-20,17
879,-1895,-3,94,-4593,23,-44,-20,17
880,-1894,-3,95,-4593,23,-44,-20,17
881,-1895,-2,93,-4594,23,-44,-20,17
882,-1894,-2,93,-4594,23,-44,-20,17
883,-1894,-3,95,-4594,23,-44,-20,17
884,-1896,-2,96,-4593,23,-44,-20,17
885,-1895,-3,98,-4593,23,-44,-20,17
886,-1894,-2,97,-4593,23,-44,-20,17
887,-1893,-1,97,-4594,23,-44,-19,17
888,-1895,-2,96,-4594,23,-44,-20,17
889,-1895,-2,96,-4594,23,-44,-20,17
890,-1896,-2,95,-4594,23,-44,-19,17
891,-1896,-2,96,-4594,23,-44,-20,17
892,-1894,-1,96,-4593,23,-44,-20,17
893,-1895,-3,97,-4594,23,-44,-19,17
894,-1895,-2,96,-4593,23,-44,-20,17
895,-1894,-2,96,-4595,23,-44,-19,17
896,-1896,-1,95,-4594,23,-44,-19,17
897,-1896,-3,94,-4595,23,-44,-19,17
898,-1897,-3,93,-4594,23,-45,-19,16
899,-1897,-3,94,-4593,23,-44,-19,16
900,-1896,-3,95,-4595,23,-44,-19,16
901,-1894,-2,94,-4593,23,-44,-20,16
902,-1894,-1,96,-4595,23,-44,-20,16
903,-1894,0,96,-4595,23,-44,-20,17
904,-1895,0,94,-4594,23,-44,-20,17
905,-1896,1,92,-4595,23,-44,-20,17
906,-1897,1,92,-4594,23,-44,-20,17
907,-1897,0,91,-4594,23,-44,-20,17
908,-1897,-1,91,-4593,23,-44,-20,17
909,-1897,-1,92,-4593,23,-44,-20,17
910,-1897,-1,95,-4595,23,-43,-20,17
911,-1897,-1,95,-4592,23,-43,-20,17
912,-1898,-2,94,-4592,23,-43,-20,17
913,-1899,-1,93,-4592,23,-43,-20,17
914,-1899,-1,93,-4593,23,-43,-20,17
915,-1897,0,92,-4594,23,-43,-20,17
916,-1897,-1,94,-4595,23,-44,-20,17
917,-1896,-1,93,-4595,23,-44,-20,17
918,-1896,0,94,-4596,23,-44,-20,17
919,-1897,-1,96,-4598,23,-44,-20,17
920,-1896,-3,97,-4597,23,-44,-20,17
921,-1895,-3,96,-4596,23,-44,-20,17
922,-1895,-3,95,-4597,23,-44,-20,17
923,-1895,-2,95,-4595,23,-44,-20,17
924,-1895,-3,97,-4596,23,-44,-20,17
925,-1895,-2,97,-4595,23,-44,-20,17
926,-1895,-2,97,-4597,23,-44,-20,17
927,-1896,-2,97,-4596,23,-44,-20,17
928,-1895,-2,97,-4597,23,-44,-20,17
929,-1895,-2,94,-4597,23,-44,-20,17
930,-1896,-3,94,-4598,23,-44,-20,17
931,-1895,-3,93,-4598,23,-44,-20,17
932,-1896,-2,95,-4599,23,-44,-20,17
933,-1896,-3,97,-4595,23,-44,-19,17
934,-1897,-2,95,-4595,23,-44,-20,17
935,-1896,-2,96,-4596,23,-44,-20,17
936,-1897,-1,95,-4597,23,-44,-20,17
937,-1897,0,97,-4596,23,-44,-20,17
938,-1896,1,97,-4595,23,-44,-19,17
939,-1896,0,96,-4594,23,-44,-19,18
940,-1896,-1,96,-4594,23,-44,-20,18
941,-1895,-2,96,-4593,23,-44,-20,18
942,-1895,-2,94,-4593,23,-44,-20,18
943,-1896,-1,93,-4594,23,-44,-20,17
944,-1896,0,93,-4594,23,-44,-20,17
945,-1895,1,94,-4592,23,-44,-20,17
946,-1896,-1,94,-4593,23,-44,-20,17
947,-1896,-1,93,-4593,23,-44,-20,17
948,-1896,-2,93,-4595,23,-44,-20,17
949,-1895,-2,93,-4595,23,-45,-20,17
950,-1895,-2,94,-4596,23,-44,-20,17
951,-1896,-2,93,-4596,23,-44,-20,17
952,-1896,-3,94,-4596,23,-44,-20,17
953,-1896,-3,94,-4596,23,-44,-20,17
954,-1895,-2,95,-4596,23,-44,-20,17
955,-1895,-2,96,-4597,23,-44,-20,17
956,-1896,-2,96,-4596,23,-44,-20,17
957,-1896,-2,96,-4596,23,-44,-20,17
958,-1896,-3,96,-4597,23,-44,-20,17
959,-1897,-3,96,-4595,23,-44,-20,17
960,-1897,-3,95,-4596,23,-44,-20,17
961,-1896,-2,94,-4596,23,-44,-20,17
962,-1895,-3,93,-4594,23,-44,-20,17
963,-1894,-3,93,-4595,23,-44,-20,17
964,-1895,-2,91,-4596,23,-44,-20,17
965,-1895,-2,91,-4596,23,-44,-20,17
966,-1895,-2,92,-4595,23,-44,-20,17
967,-1895,-3,94,-4594,23,-44,-20,17
968,-1895,-2,93,-4593,23,-44,-20,17
969,-1894,-2,94,-4595,23,-44,-20,17
970,-1894,-1,94,-4596,23,-44,-21,17
971,-1894,-1,95,-4596,23,-44,-20,17
972,-1894,-1,94,-4596,23,-44,-20,17
973,-1895,-1,95,-4595,23,-44,-20,18
974,-1895,-2,93,-4594,23,-44,-20,18
975,-1895,-1,92,-4594,23,-44,-20,17
976,-1895,-1,91,-4593,23,-44,-20,17
977,-1895,-1,92,-4593,23,-44,-20,18
978,-1895,-1,92,-4593,23,-44,-20,17
979,-1895,-2,93,-4593,23,-44,-20,17
980,-1894,-2,94,-4591,23,-44,-20,17
981,-1895,-2,93,-4593,23,-44,-20,17
982,-1894,-2,94,-4594,23,-45,-20,17
983,-1895,-3,95,-4592,23,-44,-20,17
984,-1894,-3,94,-4594,23,-44,-19,17
985,-1893,-4,95,-4594,23,-45,-19,17
986,-1894,-4,95,-4590,23,-44,-20,17
987,-1893,-4,95,-4590,23,-44,-20,17
988,-1894,-4,95,-4591,23,-44,-20,17
989,-1893,-4,94,-4591,23,-44,-20,17
990,-1895,-5,93,-4590,23,-44,-20,17
991,-1894,-4,93,-4590,23,-44,-20,17
992,-1893,-3,92,-4590,23,-44,-20,17
993,-1893,-1,92,-4592,23,-44,-20,17
994,-1893,-2,93,-4594,23,-44,-20,17
995,-1894,-4,93,-4593,23,-44,-20,17
996,-1894,-3,94,-4593,23,-44,-20,17
997,-1894,-4,95,-4594,23,-44,-20,17
998,-1894,-3,93,-4595,23,-44,-20,17
