,acc_X,acc_Y,acc_Z,temp,tempC,gyr_X,gyr_Y,gyr_Z
0,-3794,7,200,-4706,23,-44,-19,17
1,-3783,-9,184,-4704,23,-43,-19,17
2,-3783,0,169,-4702,23,-44,-19,17
3,-3784,-14,162,-4704,23,-44,-20,16
4,-3792,-8,174,-4700,23,-43,-19,17
5,-3796,-8,184,-4695,23,-44,-20,17
6,-3792,10,202,-4699,23,-43,-20,17
7,-3784,2,187,-4700,23,-44,-19,16
8,-3785,-7,185,-4700,23,-43,-19,17
9,-3793,-10,178,-4697,23,-43,-19,17
10,-3781,-9,173,-4705,23,-44,-19,18
11,-3787,0,180,-4701,23,-44,-20,17
12,-3788,-3,186,-4706,23,-43,-20,17
13,-3788,-7,177,-4702,23,-42,-19,18
14,-3790,-8,195,-4709,23,-43,-20,16
15,-3786,0,199,-4699,23,-44,-19,17
16,-3797,-6,181,-4701,23,-44,-19,17
17,-3787,-8,183,-4698,23,-44,-21,16
18,-3795,-5,195,-4695,23,-43,-20,17
19,-3794,-15,188,-4700,23,-43,-20,16
20,-3789,-10,188,-4703,23,-44,-20,17
21,-3792,-9,183,-4697,23,-44,-22,17
22,-3786,-5,194,-4703,23,-45,-19,18
23,-3791,0,199,-4703,23,-44,-20,19
24,-3790,-2,187,-4706,23,-43,-19,16
25,-3781,16,183,-4710,23,-45,-20,17
26,-3785,1,173,-4699,23,-45,-19,16
27,-3785,-8,193,-4701,23,-43,-19,18
28,-3796,-10,190,-4700,23,-43,-21,17
29,-3781,-9,184,-4700,23,-45,-18,18
30,-3795,-18,183,-4707,23,-45,-19,17
31,-3793,10,181,-4704,23,-43,-18,18
32,-3782,-5,201,-4706,23,-45,-19,17
33,-3796,5,194,-4707,23,-44,-18,17
34,-3791,-6,184,-4705,23,-45,-20,17
35,-3784,3,202,-4700,23,-44,-19,16
36,-3793,0,187,-4694,23,-43,-21,17
37,-3781,-8,193,-4699,23,-43,-18,17
38,-3783,-10,182,-4704,23,-45,-19,17
39,-3789,-5,196,-4696,23,-44,-19,17
40,-3798,-4,211,-4696,23,-44,-19,17
41,-3779,1,183,-4700,23,-44,-19,16
42,-3779,-1,187,-4703,23,-44,-19,17
43,-3783,7,193,-4701,23,-43,-20,18
44,-3790,0,179,-4699,23,-45,-19,17
45,-3796,14,204,-4694,23,-44,-19,16
46,-3783,-10,194,-4704,23,-43,-20,18
47,-3803,-9,177,-4693,23,-42,-19,17
48,-3790,-2,181,-4706,23,-44,-19,16
49,-3784,-12,179,-4701,23,-43,-20,17
50,-3784,-7,185,-4704,23,-44,-20,18
51,-3794,-15,180,-4703,23,-45,-19,17
52,-3794,0,188,-4696,23,-42,-20,17
53,-3801,-9,189,-4695,23,-43,-19,16
54,-3792,6,173,-4699,23,-45,-19,17
55,-3797,-5,182,-4697,23,-46,-21,17
56,-3782,-11,180,-4698,23,-45,-20,17
57,-3788,-3,167,-4700,23,-44,-21,17
58,-3791,-5,165,-4708,23,-44,-20,18
59,-3792,-1,189,-4703,23,-44,-19,16
60,-3788,7,188,-4707,23,-45,-20,16
61,-3790,15,192,-4700,23,-45,-18,17
62,-3779,1,173,-4703,23,-44,-19,17
63,-3787,-3,198,-4691,23,-44,-20,17
64,-3797,5,200,-4701,23,-43,-19,16
65,-3787,4,185,-4703,23,-44,-19,17
66,-3799,-10,185,-4701,23,-45,-19,17
67,-3789,-9,197,-4697,23,-43,-18,16
68,-3795,-7,191,-4699,23,-44,-18,16
69,-3786,0,179,-4691,23,-44,-19,17
70,-3793,-5,194,-4702,23,-44,-21,17
71,-3785,-4,195,-4704,23,-43,-19,16
72,-3783,-4,193,-4703,23,-43,-18,19
73,-3784,-4,173,-4699,23,-43,-20,17
74,-3783,1,177,-4702,23,-44,-18,16
75,-3787,3,183,-4694,23,-43,-21,17
76,-3780,-8,196,-4698,23,-44,-21,17
77,-3795,5,206,-4691,23,-42,-19,16
78,-3785,4,184,-4697,23,-44,-19,16
79,-3779,9,183,-4701,23,-43,-20,16
80,-3799,-15,178,-4697,23,-43,-20,17
81,-3789,-2,180,-4698,23,-44,-20,18
82,-3782,-8,195,-4700,23,-44,-19,17
83,-3776,-4,199,-4701,23,-44,-19,16
84,-3786,-3,192,-4697,23,-43,-19,17
85,-3797,-6,181,-4697,23,-44,-19,17
86,-3790,-12,192,-4704,23,-44,-20,16
87,-3782,-5,185,-4700,23,-44,-18,17
88,-3789,-13,176,-4702,23,-43,-20,17
89,-3786,-10,188,-4701,23,-43,-19,16
90,-3783,2,209,-4702,23,-44,-19,17
91,-3781,7,193,-4695,23,-43,-20,16
92,-3793,-9,180,-4699,23,-44,-19,18
93,-3785,-1,192,-4702,23,-44,-20,17
94,-3795,-4,164,-4703,23,-45,-19,17
95,-3795,-10,174,-4709,23,-44,-20,17
96,-3789,2,181,-4705,23,-43,-20,18
97,-3791,7,201,-4693,23,-44,-19,18
98,-3788,4,197,-4696,23,-43,-20,17
99,-3798,-7,183,-4695,23,-44,-19,16
100,-3785,4,195,-4701,23,-44,-18,16
101,-3783,-3,187,-4696,23,-44,-20,17
102,-3783,-5,168,-4700,23,-43,-21,17
103,-3789,-5,175,-4705,23,-44,-19,17
104,-3804,-7,175,-4698,23,-43,-20,17
105,-3782,-2,193,-4696,23,-45,-19,17
106,-3789,7,190,-4697,23,-44,-20,17
107,-3786,7,197,-4700,23,-44,-20,17
108,-3784,1,192,-4700,23,-42,-20,18
109,-3793,-5,195,-4697,23,-44,-20,17
110,-3797,-2,193,-4698,23,-43,-19,18
111,-3786,-3,201,-4705,23,-45,-20,18
112,-3785,-11,182,-4697,23,-44,-20,18
113,-3793,-11,177,-4704,23,-44,-19,18
114,-3783,-5,192,-4707,23,-44,-20,17
115,-3780,-12,181,-4697,23,-44,-19,16
116,-3787,-14,190,-4688,23,-44,-21,17
117,-3791,-7,188,-4700,23,-43,-20,17
118,-3785,-2,203,-4696,23,-43,-19,18
119,-3788,-4,199,-4693,23,-43,-20,18
120,-3781,-1,194,-4700,23,-44,-18,16
121,-3800,-5,165,-4696,23,-43,-20,18
122,-3794,-9,205,-4704,23,-44,-19,17
123,-3783,-9,193,-4697,23,-43,-19,17
124,-3791,-2,192,-4701,23,-43,-19,16
125,-3790,1,199,-4695,23,-44,-19,16
126,-3789,-8,195,-4705,23,-42,-19,17
127,-3776,3,196,-4698,23,-43,-19,18
128,-3783,-3,191,-4702,23,-44,-19,16
129,-3789,3,192,-4702,23,-45,-20,16
130,-3786,-13,199,-4708,23,-43,-19,17
131,-3778,-1,196,-4692,23,-45,-19,18
132,-3791,-4,192,-4705,23,-42,-19,18
133,-3774,10,194,-4699,23,-43,-19,16
134,-3791,-3,188,-4698,23,-44,-18,17
135,-3785,5,181,-4698,23,-44,-19,17
136,-3789,-6,180,-4700,23,-44,-20,18
137,-3784,-3,199,-4697,23,-44,-19,17
138,-3785,0,189,-4698,23,-45,-19,17
139,-3790,-4,191,-4699,23,-44,-20,16
140,-3800,-2,189,-4697,23,-45,-18,16
141,-3794,0,178,-4693,23,-42,-18,16
142,-3783,-9,196,-4689,23,-44,-20,16
143,-3791,1,187,-4698,23,-43,-21,18
144,-3801,-6,181,-4697,23,-43,-20,17
145,-3795,2,188,-4698,23,-43,-19,17
146,-3792,-4,171,-4701,23,-45,-18,17
147,-3789,5,188,-4701,23,-43,-18,17
148,-3796,4,182,-4703,23,-44,-19,17
149,-3784,-5,190,-4698,23,-44,-20,17
150,-3792,-10,202,-4701,23,-43,-19,17
151,-3785,-18,193,-4699,23,-43,-18,16
152,-3784,-7,184,-4702,23,-44,-19,17
153,-3783,0,172,-4704,23,-45,-21,17
154,-3793,6,193,-4707,23,-43,-19,17
155,-3795,-4,190,-4704,23,-45,-20,17
156,-3790,4,196,-4699,23,-43,-19,17
157,-3788,5,181,-4703,23,-43,-20,17
158,-3792,-7,174,-4705,23,-45,-20,17
159,-3790,-2,186,-4705,23,-43,-19,17
160,-3796,-6,195,-4706,23,-45,-19,18
161,-3785,1,185,-4702,23,-44,-19,17
162,-3783,-9,187,-4697,23,-44,-20,16
163,-3783,0,196,-4700,23,-43,-19,17
164,-3785,4,194,-4708,23,-44,-19,18
165,-3783,-2,178,-4712,23,-42,-18,17
166,-3794,-2,189,-4705,23,-45,-20,18
167,-3801,-3,186,-4700,23,-45,-20,17
168,-3790,-9,188,-4700,23,-44,-19,17
169,-3781,-3,190,-4699,23,-43,-19,16
170,-3780,-7,191,-4705,23,-43,-20,17
171,-3794,3,189,-4702,23,-42,-20,17
172,-3789,-6,181,-4700,23,-43,-19,17
173,-3794,-4,182,-4705,23,-44,-18,16
174,-3795,-6,178,-4696,23,-44,-20,16
175,-3793,-2,184,-4703,23,-42,-20,18
176,-3781,-6,194,-4704,23,-45,-18,18
177,-3781,-7,208,-4706,23,-45,-19,17
178,-3785,-1,194,-4703,23,-44,-21,17
179,-3783,-3,183,-4707,23,-43,-20,17
180,-3793,-6,182,-4702,23,-43,-19,17
181,-3791,-7,188,-4694,23,-44,-18,17
182,-3785,-1,196,-4694,23,-43,-18,19
183,-3791,-6,176,-4700,23,-45,-19,17
184,-3790,-13,186,-4706,23,-44,-20,18
185,-3792,-8,196,-4703,23,-44,-20,18
186,-3779,-2,188,-4705,23,-44,-20,16
187,-3782,-15,182,-4700,23,-43,-19,17
188,-3781,-4,183,-4691,23,-44,-19,17
189,-3788,-7,204,-4700,23,-43,-20,18
190,-3789,-10,186,-4696,23,-43,-20,17
191,-3796,-4,189,-4695,23,-44,-19,17
192,-3791,-7,197,-4703,23,-42,-20,18
193,-3786,-11,188,-4698,23,-43,-20,17
194,-3781,-12,181,-4697,23,-45,-20,17
195,-3793,-9,178,-4700,23,-45,-19,17
196,-3794,-3,196,-4699,23,-44,-18,17
197,-3785,-7,199,-4691,23,-43,-19,16
198,-3788,-5,187,-4706,23,-43,-20,17
199,-3788,-12,171,-4706,23,-42,-20,17
200,-3791,-3,183,-4700,23,-44,-19,16
201,-3785,-14,185,-4711,23,-44,-20,17
202,-3786,-5,192,-4697,23,-44,-22,18
203,-3788,5,190,-4699,23,-45,-22,17
204,-3795,-4,179,-4698,23,-44,-21,17
205,-3790,-9,199,-4696,23,-43,-20,17
206,-3781,-1,198,-4707,23,-42,-19,18
207,-3785,-4,176,-4705,23,-43,-21,17
208,-3786,-1,190,-4702,23,-44,-19,16
209,-3781,1,204,-4701,23,-44,-19,17
210,-3780,-5,171,-4706,23,-44,-18,18
211,-3794,-2,188,-4701,23,-42,-18,17
212,-3777,-2,174,-4706,23,-45,-17,17
213,-3789,-2,177,-4706,23,-44,-20,17
214,-3787,3,189,-4700,23,-43,-19,18
215,-3786,1,188,-4698,23,-42,-20,17
216,-3789,2,188,-4702,23,-44,-21,16
217,-3789,-5,194,-4697,23,-43,-21,15
218,-3794,-5,192,-4696,23,-43,-19,17
219,-3790,-9,195,-4701,23,-44,-19,17
220,-3789,-1,184,-4704,23,-45,-20,18
221,-3782,-3,180,-4706,23,-44,-19,17
222,-3789,-6,187,-4703,23,-43,-18,18
223,-3794,-6,181,-4701,23,-44,-20,16
224,-3792,0,192,-4696,23,-44,-21,17
225,-3790,-1,183,-4695,23,-45,-20,18
226,-3784,9,175,-4704,23,-44,-20,16
227,-3778,7,177,-4695,23,-44,-20,17
228,-3791,-4,175,-4698,23,-43,-20,15
229,-3796,3,191,-4701,23,-45,-19,18
230,-3789,-9,186,-4690,23,-45,-21,16
231,-3790,-13,180,-4701,23,-45,-20,17
232,-3782,-15,200,-4705,23,-43,-21,17
233,-3781,2,193,-4702,23,-45,-18,17
234,-3780,-6,200,-4700,23,-44,-20,18
235,-3790,-3,178,-4705,23,-44,-20,18
236,-3794,-5,194,-4702,23,-43,-20,16
237,-3793,0,180,-4696,23,-43,-19,17
238,-3789,-8,179,-4707,23,-43,-20,16
239,-3790,-11,195,-4694,23,-44,-19,18
240,-3792,-9,188,-4706,23,-44,-19,18
241,-3791,-4,188,-4699,23,-44,-19,17
242,-3783,-7,167,-4702,23,-44,-20,16
243,-3788,-5,185,-4699,23,-43,-21,17
244,-3791,-3,189,-4700,23,-43,-20,17
245,-3780,-5,199,-4703,23,-44,-20,18
246,-3783,3,180,-4709,23,-44,-19,16
247,-3787,0,187,-4703,23,-45,-20,18
248,-3785,-6,177,-4715,23,-43,-20,17
249,-3776,-11,189,-4705,23,-43,-21,17
250,-3789,1,188,-4700,23,-45,-19,17
251,-3799,2,177,-4702,23,-44,-20,17
252,-3796,0,179,-4699,23,-43,-19,16
253,-3791,-1,201,-4706,23,-44,-19,16
254,-3791,-3,199,-4705,23,-43,-19,17
255,-3796,-7,188,-4701,23,-44,-17,17
256,-3779,8,190,-4693,23,-44,-18,17
257,-3784,-6,190,-4699,23,-43,-19,17
258,-3789,-4,196,-4702,23,-45,-18,17
259,-3779,2,194,-4701,23,-45,-19,16
260,-3790,5,193,-4690,23,-45,-21,19
261,-3782,0,183,-4708,23,-45,-20,16
262,-3776,-9,185,-4702,23,-44,-19,17
263,-3776,-1,193,-4704,23,-44,-20,17
264,-3785,1,190,-4704,23,-44,-20,16
265,-3790,-3,176,-4709,23,-44,-20,17
266,-3784,2,195,-4702,23,-44,-20,18
267,-3778,-8,187,-4704,23,-45,-20,17
268,-3795,-9,180,-4704,23,-43,-20,17
269,-3789,1,188,-4703,23,-44,-19,18
270,-3796,-7,160,-4697,23,-44,-19,18
271,-3796,-6,175,-4710,23,-43,-19,17
272,-3784,-2,189,-4709,23,-45,-18,18
273,-3798,-11,177,-4701,23,-44,-20,17
274,-3790,3,183,-4696,23,-43,-19,16
275,-3794,-2,166,-4706,23,-43,-19,17
276,-3788,-12,187,-4702,23,-44,-18,17
277,-3784,-1,181,-4707,23,-45,-19,17
278,-3787,3,183,-4704,23,-44,-20,16
279,-3782,-10,190,-4704,23,-43,-18,17
280,-3785,0,192,-4707,23,-44,-20,17
281,-3780,-7,191,-4702,23,-44,-19,17
282,-3789,-7,192,-4706,23,-45,-19,17
283,-3787,0,206,-4710,23,-44,-18,17
284,-3787,0,198,-4697,23,-43,-19,16
285,-3778,-8,191,-4701,23,-43,-19,17
286,-3787,-18,184,-4697,23,-43,-18,18
287,-3792,2,168,-4696,23,-43,-19,16
288,-3794,-8,194,-4700,23,-44,-19,18
289,-3786,-5,186,-4692,23,-43,-20,17
290,-3792,-6,181,-4708,23,-43,-19,17
291,-3785,-17,182,-4707,23,-44,-21,17
292,-3784,2,188,-4700,23,-43,-20,17
293,-3787,-21,203,-4706,23,-43,-20,17
294,-3780,-6,203,-4701,23,-44,-19,17
295,-3784,-2,202,-4702,23,-44,-18,18
296,-3789,4,205,-4704,23,-44,-20,16
297,-3788,1,197,-4707,23,-43,-21,17
298,-3788,3,180,-4705,23,-45,-20,17
299,-3809,-4,179,-4702,23,-43,-19,16
300,-3792,-8,195,-4698,23,-44,-19,17
301,-3782,-11,190,-4701,23,-44,-19,18
302,-3792,-8,182,-4699,23,-45,-20,17
303,-3780,-11,187,-4705,23,-45,-19,18
304,-3799,-16,171,-4700,23,-44,-19,17
305,-3784,2,200,-4691,23,-44,-19,17
306,-3787,6,193,-4700,23,-44,-20,17
307,-3793,-10,198,-4703,23,-44,-20,16
308,-3779,-13,190,-4699,23,-45,-19,16
309,-3788,-1,200,-4699,23,-44,-18,16
310,-3786,-6,179,-4708,23,-43,-19,17
311,-3784,-1,197,-4699,23,-44,-19,17
312,-3802,-7,204,-4703,23,-43,-19,16
313,-3797,2,194,-4698,23,-44,-19,16
314,-3794,2,177,-4699,23,-43,-19,17
315,-3779,-10,189,-4705,23,-43,-20,17
316,-3785,4,179,-4693,23,-43,-20,17
317,-3794,11,195,-4695,23,-44,-19,18
318,-3789,-7,199,-4698,23,-44,-19,16
319,-3794,-1,183,-4691,23,-45,-19,18
320,-3781,3,199,-4700,23,-44,-18,16
321,-3779,-3,188,-4700,23,-44,-19,17
322,-3778,1,182,-4699,23,-43,-18,17
323,-3787,-2,184,-4706,23,-43,-19,17
324,-3794,-6,185,-4697,23,-43,-20,17
325,-3798,2,188,-4702,23,-43,-22,16
326,-3788,3,190,-4699,23,-43,-20,17
327,-3782,-15,171,-4699,23,-43,-20,17
328,-3785,2,186,-4702,23,-45,-20,16
329,-3798,-8,188,-4708,23,-43,-19,17
330,-3788,-4,172,-4698,23,-43,-20,16
331,-3792,12,183,-4693,23,-44,-20,17
332,-3791,-2,186,-4693,23,-44,-20,17
333,-3790,-3,165,-4703,23,-45,-20,16
334,-3779,-5,190,-4695,23,-44,-19,17
335,-3780,-4,198,-4702,23,-43,-21,17
336,-3786,-7,179,-4689,23,-44,-20,17
337,-3784,0,177,-4689,23,-43,-21,17
338,-3779,-9,188,-4695,23,-45,-19,18
339,-3795,-16,189,-4695,23,-42,-19,16
340,-3794,-1,206,-4694,23,-44,-20,16
341,-3789,-9,196,-4696,23,-43,-20,17
342,-3783,-6,192,-4702,23,-44,-21,17
343,-3788,-10,192,-4701,23,-44,-19,17
344,-3789,-3,160,-4698,23,-43,-19,19
345,-3792,-7,182,-4700,23,-43,-20,18
346,-3786,3,193,-4702,23,-45,-20,17
347,-3778,0,188,-4701,23,-44,-19,17
348,-3782,-4,183,-4694,23,-44,-19,18
349,-3796,-5,195,-4697,23,-45,-19,16
350,-3798,-4,190,-4700,23,-43,-19,17
351,-3786,-8,195,-4700,23,-45,-18,17
352,-3776,-9,181,-4693,23,-44,-20,17
353,-3801,-4,186,-4694,23,-44,-21,17
354,-3792,0,186,-4696,23,-42,-19,17
355,-3786,-5,187,-4698,23,-45,-19,18
356,-3774,4,199,-4696,23,-43,-20,19
357,-3785,0,198,-4697,23,-45,-19,18
358,-3790,3,174,-4702,23,-43,-19,17
359,-3791,8,192,-4706,23,-44,-19,17
360,-3782,-2,190,-4700,23,-43,-20,16
361,-3799,-13,181,-4701,23,-44,-20,17
362,-3796,-12,192,-4695,23,-44,-20,16
363,-3788,-6,207,-4694,23,-45,-20,17
364,-3785,0,190,-4691,23,-43,-21,17
365,-3783,0,192,-4696,23,-44,-20,18
366,-3786,0,178,-4703,23,-45,-20,17
367,-3786,2,189,-4704,23,-44,-21,17
368,-3780,-3,181,-4700,23,-44,-19,17
369,-3786,-8,176,-4703,23,-43,-20,17
370,-3781,0,194,-4701,23,-43,-20,18
371,-3794,3,196,-4694,23,-44,-20,16
372,-3785,6,193,-4697,23,-44,-19,17
373,-3787,4,185,-4696,23,-44,-19,17
374,-3779,-8,183,-4699,23,-44,-20,17
375,-3786,-9,181,-4695,23,-44,-19,16
376,-3787,-10,188,-4704,23,-43,-20,18
377,-3781,1,188,-4702,23,-44,-20,17
378,-3783,0,186,-4699,23,-44,-20,18
379,-3788,4,185,-4691,23,-44,-20,17
380,-3784,-16,186,-4698,23,-45,-20,18
381,-3784,-1,199,-4699,23,-43,-19,18
382,-3804,1,191,-4693,23,-44,-19,17
383,-3780,1,193,-4699,23,-44,-20,18
384,-3790,8,172,-4698,23,-43,-20,17
385,-3776,7,188,-4692,23,-44,-20,17
386,-3791,-1,168,-4688,23,-44,-19,16
387,-3797,-3,173,-4696,23,-43,-18,18
388,-3791,-7,206,-4702,23,-43,-19,18
389,-3788,4,188,-4692,23,-43,-20,18
390,-3791,2,177,-4699,23,-43,-20,17
391,-3787,1,192,-4697,23,-44,-19,18
392,-3784,-3,182,-4688,23,-44,-19,17
393,-3793,-9,183,-4693,23,-45,-20,18
394,-3785,-2,174,-4702,23,-43,-19,18
395,-3783,-11,179,-4691,23,-44,-20,15
396,-3773,-5,177,-4694,23,-43,-19,17
397,-3779,-4,187,-4691,23,-44,-19,17
398,-3789,-11,195,-4696,23,-43,-20,17
399,-3786,-4,191,-4693,23,-45,-20,17
400,-3798,-12,172,-4688,23,-44,-19,16
401,-3792,-9,186,-4694,23,-44,-18,17
402,-3789,-13,193,-4691,23,-45,-19,18
403,-3789,-14,197,-4700,23,-44,-20,17
404,-3783,-6,198,-4698,23,-43,-20,17
405,-3793,-13,175,-4697,23,-44,-20,17
406,-3781,-7,194,-4695,23,-43,-20,17
407,-3782,4,183,-4696,23,-44,-20,17
408,-3793,-8,214,-4702,23,-45,-19,17
409,-3793,1,197,-4692,23,-45,-19,17
410,-3792,-7,173,-4702,23,-45,-19,17
411,-3786,-10,185,-4699,23,-44,-20,17
412,-3796,-5,189,-4704,23,-44,-20,16
413,-3785,1,187,-4694,23,-44,-20,16
414,-3785,-1,181,-4701,23,-43,-20,17
415,-3792,-14,195,-4699,23,-43,-18,17
416,-3794,1,176,-4698,23,-42,-20,16
417,-3794,-2,189,-4699,23,-44,-20,16
418,-3792,5,174,-4696,23,-44,-20,16
419,-3790,-3,170,-4702,23,-44,-20,18
420,-3782,-13,181,-4699,23,-45,-18,18
421,-3790,-5,176,-4692,23,-43,-19,18
422,-3786,-7,184,-4705,23,-44,-20,18
423,-3785,-5,181,-4697,23,-44,-20,17
424,-3793,-7,188,-4697,23,-44,-18,19
425,-3792,-3,172,-4692,23,-44,-19,17
426,-3788,3,198,-4690,23,-44,-19,17
427,-3792,-16,183,-4696,23,-44,-20,16
428,-3791,-7,173,-4694,23,-43,-18,18
429,-3791,5,195,-4701,23,-43,-19,18
430,-3797,-7,188,-4697,23,-43,-19,17
431,-3783,2,181,-4703,23,-44,-18,17
432,-3789,-8,195,-4699,23,-44,-20,18
433,-3787,-7,191,-4701,23,-44,-21,17
434,-3792,-11,192,-4699,23,-44,-19,17
435,-3805,-9,194,-4705,23,-43,-19,17
436,-3793,2,194,-4699,23,-44,-20,17
437,-3792,-12,195,-4701,23,-45,-19,17
438,-3788,-4,187,-4694,23,-45,-18,16
439,-3784,1,184,-4693,23,-44,-19,16
440,-3800,-14,164,-4694,23,-44,-19,17
441,-3787,-5,201,-4701,23,-44,-20,18
442,-3792,-8,183,-4697,23,-43,-20,17
443,-3788,4,190,-4698,23,-43,-21,19
444,-3785,0,186,-4699,23,-44,-19,16
445,-3791,0,205,-4695,23,-44,-20,17
446,-3791,0,193,-4695,23,-44,-19,18
447,-3784,-4,189,-4694,23,-43,-19,18
448,-3787,-5,193,-4693,23,-45,-19,17
449,-3778,5,177,-4694,23,-44,-18,17
450,-3784,-5,185,-4691,23,-44,-18,18
451,-3782,-3,190,-4696,23,-44,-19,17
452,-3783,2,185,-4698,23,-45,-19,17
453,-3781,-2,183,-4695,23,-44,-21,17
454,-3780,-6,168,-4696,23,-44,-19,18
455,-3783,-10,185,-4689,23,-43,-20,17
456,-3788,-14,196,-4691,23,-43,-19,17
457,-3788,-1,184,-4694,23,-43,-20,17
458,-3783,-1,189,-4690,23,-43,-21,17
459,-3792,-2,180,-4695,23,-43,-19,17
460,-3787,2,170,-4688,23,-44,-19,17
461,-3786,-7,170,-4695,23,-44,-18,17
462,-3780,3,192,-4698,23,-44,-20,16
463,-3797,-5,189,-4693,23,-43,-20,17
464,-3797,-2,196,-4703,23,-45,-19,18
465,-3780,-3,188,-4702,23,-43,-20,18
466,-3785,-14,193,-4694,23,-44,-21,18
467,-3779,-9,189,-4698,23,-44,-18,16
468,-3793,-2,180,-4698,23,-43,-18,16
469,-3785,-6,179,-4686,23,-44,-18,17
470,-3799,-14,188,-4698,23,-44,-18,17
471,-3775,-5,184,-4701,23,-44,-19,17
472,-3784,-3,180,-4697,23,-44,-20,17
473,-3790,-10,200,-4697,23,-45,-20,17
474,-3789,3,201,-4695,23,-44,-19,17
475,-3792,-8,186,-4694,23,-45,-18,17
476,-3793,-9,202,-4685,23,-45,-19,16
477,-3781,6,190,-4689,23,-44,-19,17
478,-3785,-10,189,-4695,23,-43,-19,17
479,-3792,-13,191,-4693,23,-44,-19,18
480,-3790,-14,187,-4695,23,-44,-20,17
481,-3779,-5,197,-4687,23,-44,-20,16
482,-3789,-4,187,-4686,23,-43,-21,18
483,-3793,4,185,-4695,23,-44,-20,17
484,-3785,-5,183,-4697,23,-44,-20,18
485,-3784,-4,187,-4695,23,-44,-19,18
486,-3784,-11,175,-4693,23,-43,-19,17
487,-3793,-3,184,-4696,23,-44,-19,18
488,-3788,1,192,-4696,23,-44,-20,16
489,-3792,-3,198,-4694,23,-45,-23,17
490,-3783,-6,193,-4697,23,-44,-20,18
491,-3794,-5,191,-4689,23,-45,-20,18
492,-3792,0,179,-4694,23,-44,-21,17
493,-3789,7,192,-4697,23,-43,-18,18
494,-3800,7,193,-4695,23,-44,-19,17
495,-3779,-4,192,-4694,23,-43,-19,18
496,-3783,-6,182,-4694,23,-44,-19,17
497,-3784,-6,197,-4698,23,-45,-19,17
498,-3791,1,177,-4701,23,-44,-19,16
499,-3788,-11,176,-4692,23,-44,-19,16
500,-3792,-11,181,-4694,23,-43,-20,17
501,-3789,-3,199,-4700,23,-45,-20,16
502,-3783,-4,204,-4694,23,-44,-19,18
503,-3786,6,190,-4689,23,-43,-20,18
504,-3789,-5,186,-4695,23,-44,-20,17
505,-3784,-2,192,-4699,23,-44,-20,18
506,-3793,-4,190,-4697,23,-44,-20,18
507,-3788,3,187,-4688,23,-45,-19,17
508,-3786,-8,186,-4696,23,-43,-20,16
509,-3792,-8,196,-4697,23,-44,-20,17
510,-3790,-16,212,-4691,23,-43,-19,16
511,-3792,1,186,-4698,23,-44,-20,18
512,-3782,-2,172,-4699,23,-44,-21,18
513,-3787,-17,198,-4698,23,-43,-20,18
514,-3784,-8,185,-4692,23,-45,-19,18
515,-3794,1,198,-4707,23,-43,-20,18
516,-3792,2,184,-4707,23,-43,-19,18
517,-3805,-9,190,-4695,23,-44,-20,17
518,-3806,-14,160,-4697,23,-42,-19,17
519,-3801,-8,183,-4695,23,-44,-19,17
520,-3800,0,188,-4693,23,-43,-19,17
521,-3786,1,195,-4694,23,-45,-19,18
522,-3789,-3,189,-4693,23,-43,-20,18
523,-3788,-10,195,-4701,23,-44,-20,17
524,-3792,-4,196,-4704,23,-45,-20,16
525,-3782,-4,210,-4700,23,-44,-18,17
526,-3792,-19,194,-4698,23,-44,-19,17
527,-3786,-7,185,-4690,23,-44,-20,17
528,-3783,4,188,-4694,23,-43,-19,17
529,-3789,2,186,-4703,23,-44,-21,19
530,-3793,-8,177,-4700,23,-45,-20,17
531,-3787,3,198,-4697,23,-44,-20,17
532,-3777,-3,188,-4702,23,-43,-19,16
533,-3786,-11,188,-4702,23,-43,-19,16
534,-3787,-1,195,-4701,23,-44,-19,16
535,-3783,-12,188,-4694,23,-44,-20,17
536,-3785,-5,193,-4689,23,-43,-20,18
537,-3774,-5,190,-4696,23,-42,-20,17
538,-3788,-8,199,-4695,23,-45,-21,17
539,-3788,-4,175,-4699,23,-44,-18,18
540,-3772,3,191,-4702,23,-46,-19,17
541,-3786,5,193,-4700,23,-44,-20,16
542,-3802,-17,180,-4690,23,-44,-19,17
543,-3791,-2,182,-4699,23,-44,-20,17
544,-3781,-5,184,-4698,23,-43,-19,17
545,-3788,3,188,-4692,23,-44,-19,16
546,-3790,6,177,-4693,23,-43,-19,16
547,-3777,-2,185,-4691,23,-44,-20,17
548,-3789,-12,196,-4691,23,-43,-19,18
549,-3788,-11,191,-4698,23,-43,-19,17
550,-3795,-2,186,-4690,23,-43,-19,17
551,-3790,-6,185,-4696,23,-43,-21,18
552,-3786,-6,194,-4693,23,-43,-20,18
553,-3791,-3,191,-4702,23,-44,-20,17
554,-3792,-8,173,-4696,23,-44,-21,17
555,-3796,-1,174,-4693,23,-44,-20,15
556,-3787,4,197,-4693,23,-43,-20,17
557,-3795,-2,192,-4700,23,-43,-20,17
558,-3788,-9,189,-4692,23,-44,-20,16
559,-3796,-1,193,-4695,23,-44,-21,17
560,-3791,-5,194,-4683,23,-45,-20,17
561,-3793,0,183,-4687,23,-43,-19,18
562,-3793,-5,191,-4699,23,-45,-19,17
563,-3788,2,179,-4696,23,-44,-19,17
564,-3792,-6,187,-4697,23,-44,-21,18
565,-3790,-5,187,-4687,23,-44,-20,17
566,-3793,-5,185,-4690,23,-44,-20,16
567,-3788,1,199,-4697,23,-42,-19,18
568,-3789,5,187,-4696,23,-45,-19,16
569,-3786,-6,181,-4694,23,-45,-19,16
570,-3801,-4,182,-4696,23,-44,-19,16
571,-3790,-15,202,-4700,23,-44,-19,17
572,-3794,-4,200,-4698,23,-44,-19,16
573,-3784,-9,189,-4703,23,-45,-20,16
574,-3792,-11,175,-4698,23,-45,-19,17
575,-3791,-4,190,-4692,23,-44,-20,17
576,-3779,1,196,-4697,23,-44,-19,17
577,-3796,-5,191,-4691,23,-43,-20,17
578,-3794,2,185,-4693,23,-43,-19,18
579,-3796,-4,190,-4699,23,-45,-20,16
580,-3790,-11,189,-4690,23,-44,-18,17
581,-3786,-9,190,-4697,23,-44,-20,18
582,-3788,-13,180,-4695,23,-45,-20,17
583,-3794,-5,174,-4690,23,-44,-19,17
584,-3785,-1,191,-4690,23,-43,-20,17
585,-3784,-3,189,-4699,23,-43,-18,16
586,-3799,-5,179,-4692,23,-43,-20,17
587,-3795,-6,184,-4691,23,-44,-18,17
588,-3790,-3,189,-4695,23,-44,-19,18
589,-3787,-2,190,-4698,23,-44,-19,17
590,-3788,-8,183,-4701,23,-43,-20,16
591,-3791,-4,182,-4699,23,-44,-20,17
592,-3790,-9,208,-4695,23,-44,-20,17
593,-3789,-7,193,-4688,23,-42,-18,17
594,-3791,13,179,-4702,23,-43,-18,17
595,-3786,7,202,-4697,23,-43,-19,17
596,-3793,-11,193,-4693,23,-43,-20,17
597,-3803,0,196,-4692,23,-45,-19,17
598,-3789,6,180,-4692,23,-43,-20,17
599,-3781,-5,195,-4689,23,-44,-20,17
600,-3799,-4,190,-4696,23,-44,-19,18
601,-3798,-3,174,-4696,23,-44,-19,17
602,-3783,3,193,-4700,23,-43,-19,17
603,-3799,5,188,-4699,23,-45,-18,18
604,-3788,-11,185,-4691,23,-43,-20,17
605,-3798,2,193,-4690,23,-43,-20,17
606,-3794,5,200,-4692,23,-45,-19,17
607,-3792,-1,172,-4696,23,-43,-19,18
608,-3785,5,194,-4695,23,-44,-20,18
609,-3796,-11,199,-4695,23,-42,-20,18
610,-3794,-5,184,-4686,23,-43,-20,17
611,-3796,-9,178,-4697,23,-42,-20,17
612,-3783,-23,185,-4692,23,-44,-20,18
613,-3786,2,180,-4698,23,-44,-20,17
614,-3790,-4,186,-4690,23,-44,-20,18
615,-3795,5,185,-4692,23,-44,-19,17
616,-3784,-5,191,-4687,23,-43,-19,16
617,-3783,6,186,-4691,23,-44,-18,16
618,-3788,-9,192,-4696,23,-44,-20,16
619,-3789,-7,189,-4688,23,-43,-20,16
620,-3791,5,179,-4688,23,-44,-20,17
621,-3788,8,192,-4696,23,-43,-22,17
622,-3782,-3,172,-4690,23,-43,-20,17
623,-3791,-9,195,-4692,23,-44,-19,17
624,-3789,-16,167,-4694,23,-44,-19,17
625,-3789,2,178,-4690,23,-44,-20,18
626,-3789,5,190,-4700,23,-44,-20,18
627,-3786,-5,181,-4697,23,-43,-20,17
628,-3790,-9,194,-4690,23,-43,-20,18
629,-3783,-15,174,-4694,23,-44,-20,16
630,-3781,0,197,-4695,23,-45,-20,17
631,-3786,-2,191,-4684,23,-43,-20,17
632,-3786,-4,203,-4690,23,-43,-18,17
633,-3790,-8,181,-4697,23,-45,-18,17
634,-3792,-13,194,-4691,23,-43,-19,18
635,-3774,-3,181,-4693,23,-43,-19,18
636,-3781,-9,182,-4690,23,-43,-19,18
637,-3781,-10,175,-4697,23,-43,-19,17
638,-3783,5,181,-4689,23,-44,-21,18
639,-3781,-3,178,-4679,23,-45,-19,18
640,-3793,2,192,-4683,23,-43,-21,17
641,-3779,8,190,-4691,23,-44,-19,17
642,-3784,6,182,-4688,23,-43,-19,17
643,-3801,-4,189,-4692,23,-42,-21,18
644,-3796,-2,178,-4691,23,-43,-20,18
645,-3797,-6,170,-4686,23,-44,-20,17
646,-3786,-4,197,-4690,23,-45,-19,17
647,-3791,-2,190,-4689,23,-44,-20,18
648,-3782,-14,175,-4695,23,-44,-20,15
649,-3787,1,184,-4690,23,-44,-18,17
650,-3789,-2,185,-4697,23,-43,-18,18
651,-3786,-1,177,-4694,23,-43,-20,16
652,-3794,-3,188,-4691,23,-43,-19,17
653,-3787,-2,180,-4702,23,-45,-19,18
654,-3787,-8,179,-4697,23,-44,-19,17
655,-3789,-4,199,-4689,23,-43,-21,17
656,-3796,-9,190,-4683,23,-44,-20,16
657,-3786,-13,176,-4694,23,-43,-20,16
658,-3781,3,174,-4689,23,-43,-19,18
659,-3789,-5,197,-4692,23,-43,-19,16
660,-3795,2,190,-4700,23,-44,-20,17
661,-3799,-2,194,-4702,23,-43,-20,17
662,-3809,-7,187,-4697,23,-44,-18,16
663,-3792,1,201,-4689,23,-44,-19,16
664,-3800,-15,183,-4695,23,-44,-19,17
665,-3787,-3,186,-4697,23,-45,-20,17
666,-3778,-10,189,-4698,23,-44,-20,18
667,-3786,2,195,-4703,23,-44,-20,18
668,-3785,-9,193,-4692,23,-44,-19,18
669,-3793,-8,195,-4694,23,-44,-19,18
670,-3788,2,192,-4692,23,-43,-18,16
671,-3785,-6,193,-4695,23,-44,-20,18
672,-3796,-4,194,-4699,23,-44,-20,18
673,-3801,-8,192,-4693,23,-43,-18,17
674,-3794,-4,186,-4695,23,-44,-19,18
675,-3786,0,189,-4698,23,-44,-19,17
676,-3786,-4,197,-4700,23,-44,-19,17
677,-3791,5,188,-4685,23,-44,-19,18
678,-3791,-6,183,-4695,23,-44,-20,17
679,-3795,-11,172,-4698,23,-45,-20,17
680,-3798,-2,186,-4686,23,-44,-19,17
681,-3792,-1,178,-4700,23,-44,-20,17
682,-3799,-9,172,-4696,23,-44,-20,17
683,-3775,-5,182,-4689,23,-43,-19,17
684,-3773,-11,181,-4693,23,-43,-20,18
685,-3798,-8,178,-4698,23,-42,-19,16
686,-3789,-2,181,-4699,23,-43,-19,18
687,-3796,-1,207,-4697,23,-45,-21,18
688,-3786,-4,194,-4697,23,-43,-20,17
689,-3796,-2,206,-4692,23,-44,-21,17
690,-3795,-12,176,-4703,23,-44,-19,17
691,-3791,-4,191,-4695,23,-44,-21,17
692,-3790,-4,190,-4689,23,-44,-20,16
693,-3791,-3,187,-4695,23,-45,-20,17
694,-3783,-7,189,-4698,23,-43,-20,17
695,-3790,-11,191,-4700,23,-43,-20,17
696,-3783,-1,197,-4684,23,-45,-19,17
697,-3787,-3,190,-4692,23,-44,-19,18
698,-3791,-7,172,-4685,23,-45,-19,17
699,-3790,-3,182,-4690,23,-44,-20,17
700,-3786,2,182,-4697,23,-43,-20,16
701,-3778,-6,171,-4694,23,-45,-19,17
702,-3786,1,184,-4695,23,-44,-19,16
703,-3787,-6,202,-4696,23,-44,-21,16
704,-3796,-13,184,-4691,23,-44,-20,17
705,-3799,-7,186,-4693,23,-43,-19,17
706,-3792,-3,193,-4690,23,-44,-18,16
707,-3783,-2,185,-4689,23,-43,-19,18
708,-3780,-3,184,-4694,23,-44,-19,17
709,-3780,2,178,-4694,23,-44,-20,17
710,-3786,-5,199,-4689,23,-44,-19,17
711,-3789,1,192,-4701,23,-44,-19,18
712,-3782,-8,188,-4691,23,-44,-19,18
713,-3792,-5,184,-4691,23,-44,-19,17
714,-3793,1,186,-4698,23,-42,-19,17
715,-3796,-10,174,-4695,23,-44,-20,18
716,-3792,-7,182,-4688,23,-44,-21,18
717,-3792,1,185,-4697,23,-44,-20,17
718,-3795,1,169,-4692,23,-43,-19,17
719,-3789,-9,172,-4689,23,-45,-18,17
720,-3781,-7,182,-4692,23,-44,-20,17
721,-3794,-2,188,-4690,23,-44,-18,16
722,-3773,-15,186,-4686,23,-44,-19,17
723,-3795,-12,184,-4691,23,-44,-18,17
724,-3796,-10,184,-4686,23,-42,-18,17
725,-3785,2,183,-4695,23,-43,-20,16
726,-3785,-9,174,-4700,23,-43,-20,17
727,-3796,0,197,-4691,23,-43,-18,17
728,-3793,-4,201,-4701,23,-43,-20,17
729,-3789,-14,190,-4689,23,-43,-19,18
730,-3785,1,192,-4691,23,-43,-18,16
731,-3785,-6,192,-4694,23,-44,-20,18
732,-3786,-3,178,-4691,23,-45,-19,17
733,-3786,3,191,-4694,23,-43,-20,17
734,-3791,-10,190,-4687,23,-43,-20,18
735,-3783,8,189,-4700,23,-44,-20,18
736,-3789,-4,212,-4695,23,-45,-19,17
737,-3782,-16,186,-4694,23,-44,-19,18
738,-3787,-16,182,-4693,23,-43,-19,17
739,-3791,10,182,-4699,23,-43,-19,17
740,-3792,-3,182,-4687,23,-44,-20,17
741,-3786,-7,195,-4691,23,-44,-20,16
742,-3793,-13,193,-4691,23,-44,-19,17
743,-3793,-12,186,-4687,23,-44,-19,17
744,-3786,-7,176,-4692,23,-45,-18,17
745,-3784,1,186,-4690,23,-44,-20,17
746,-3786,1,200,-4687,23,-43,-20,17
747,-3778,-17,174,-4688,23,-43,-20,17
748,-3790,-3,184,-4693,23,-42,-20,18
749,-3795,0,193,-4692,23,-43,-19,17
750,-3794,2,188,-4691,23,-43,-20,16
751,-3791,-3,188,-4696,23,-43,-21,18
752,-3788,-2,185,-4695,23,-43,-19,17
753,-3787,3,187,-4691,23,-44,-19,17
754,-3782,-1,184,-4691,23,-44,-19,16
755,-3788,0,183,-4684,23,-43,-18,16
756,-3795,-3,194,-4684,23,-44,-18,16
757,-3789,3,188,-4693,23,-44,-21,18
758,-3796,0,186,-4694,23,-42,-20,17
759,-3797,0,185,-4693,23,-43,-20,17
760,-3796,-5,182,-4697,23,-44,-19,17
761,-3780,-5,191,-4690,23,-44,-20,18
762,-3793,0,207,-4689,23,-44,-20,17
763,-3788,-1,202,-4690,23,-44,-19,18
764,-3790,-2,194,-4699,23,-44,-19,17
765,-3784,-10,189,-4691,23,-44,-18,16
766,-3798,3,185,-4696,23,-43,-22,17
767,-3792,-6,198,-4696,23,-44,-20,17
768,-3777,-1,199,-4688,23,-44,-19,17
769,-3792,-9,188,-4690,23,-43,-20,18
770,-3803,-8,183,-4692,23,-44,-20,18
771,-3799,-9,171,-4691,23,-44,-20,17
772,-3784,-7,180,-4700,23,-44,-19,18
773,-3792,-11,185,-4693,23,-43,-18,17
774,-3795,2,171,-4699,23,-44,-20,17
775,-3782,-2,185,-4696,23,-44,-19,17
776,-3784,-5,202,-4695,23,-43,-20,17
777,-3788,-4,199,-4694,23,-44,-20,17
778,-3786,1,185,-4694,23,-43,-20,18
779,-3798,5,184,-4697,23,-44,-19,17
780,-3805,-7,184,-4691,23,-44,-18,17
781,-3792,-1,201,-4696,23,-43,-20,17
782,-3789,-3,179,-4700,23,-44,-18,17
783,-3798,-1,191,-4693,23,-43,-20,16
784,-3800,-3,188,-4690,23,-43,-19,17
785,-3787,3,183,-4688,23,-43,-19,16
786,-3801,0,181,-4701,23,-44,-20,16
787,-3786,-2,168,-4699,23,-44,-20,17
788,-3788,-1,185,-4689,23,-44,-20,16
789,-3784,-5,182,-4701,23,-44,-21,16
790,-3792,-13,197,-4692,23,-43,-20,17
791,-3800,1,175,-4699,23,-44,-19,18
792,-3778,1,175,-4693,23,-43,-21,18
793,-3776,-15,183,-4698,23,-43,-20,18
794,-3792,0,206,-4689,23,-42,-18,17
795,-3786,-2,192,-4691,23,-43,-19,17
796,-3783,-10,193,-4688,23,-43,-19,17
797,-3792,-10,187,-4686,23,-44,-20,16
798,-3786,-4,191,-4693,23,-43,-18,17
799,-3797,-2,184,-4684,23,-44,-18,17
800,-3787,-3,193,-4695,23,-43,-21,16
801,-3803,1,194,-4686,23,-44,-20,18
802,-3788,-3,200,-4689,23,-43,-21,17
803,-3777,-3,182,-4690,23,-45,-19,16
804,-3786,4,180,-4689,23,-43,-19,17
805,-3794,-6,191,-4690,23,-43,-19,18
806,-3802,-1,188,-4693,23,-43,-19,19
807,-3785,-12,184,-4690,23,-43,-19,18
808,-3797,-13,198,-4692,23,-43,-20,17
809,-3781,-9,188,-4684,23,-44,-19,16
810,-3786,-4,188,-4690,23,-44,-18,17
811,-3772,-3,178,-4693,23,-44,-18,18
812,-3782,-2,179,-4690,23,-44,-20,19
813,-3786,-5,190,-4691,23,-44,-20,17
814,-3795,-1,195,-4698,23,-44,-19,17
815,-3783,15,182,-4696,23,-44,-19,18
816,-3784,-6,180,-4683,23,-44,-19,16
817,-3798,-3,182,-4686,23,-43,-19,17
818,-3782,0,200,-4686,23,-44,-19,18
819,-3780,6,174,-4690,23,-45,-19,17
820,-3797,-2,184,-4688,23,-45,-20,16
821,-3797,-6,204,-4693,23,-43,-20,18
822,-3786,2,195,-4688,23,-44,-19,16
823,-3782,-6,186,-4697,23,-43,-19,17
824,-3776,-6,186,-4696,23,-44,-20,16
825,-3784,-8,189,-4692,23,-43,-19,18
826,-3785,-10,190,-4694,23,-42,-20,17
827,-3793,-3,178,-4690,23,-43,-20,18
828,-3779,2,203,-4696,23,-44,-21,17
829,-3785,-3,200,-4692,23,-42,-20,17
830,-3782,-7,184,-4688,23,-44,-20,18
831,-3778,0,194,-4689,23,-44,-19,18
832,-3792,-1,186,-4698,23,-44,-19,16
833,-3783,0,176,-4697,23,-43,-20,17
834,-3778,3,187,-4693,23,-43,-20,18
835,-3779,2,194,-4693,23,-43,-20,18
836,-3792,-2,186,-4689,23,-44,-19,16
837,-3790,-2,175,-4689,23,-44,-19,17
838,-3782,0,192,-4692,23,-44,-20,17
839,-3792,1,184,-4694,23,-44,-20,17
840,-3796,-5,188,-4692,23,-44,-19,18
841,-3794,-4,194,-4687,23,-44,-20,17
842,-3783,3,174,-4687,23,-43,-21,17
843,-3783,-11,194,-4689,23,-43,-20,17
844,-3790,1,184,-4692,23,-44,-19,17
845,-3797,-6,191,-4689,23,-43,-20,17
846,-3786,3,188,-4685,23,-43,-19,17
847,-3795,-19,205,-4684,23,-44,-19,16
848,-3794,-4,183,-4689,23,-43,-19,18
849,-3778,3,182,-4688,23,-42,-20,18
850,-3791,-1,180,-4685,23,-44,-19,17
851,-3784,-13,192,-4687,23,-45,-21,18
852,-3797,-9,185,-4693,23,-42,-20,18
853,-3786,-10,187,-4688,23,-42,-19,18
854,-3799,-7,195,-4690,23,-44,-20,17
855,-3791,-4,172,-4695,23,-43,-19,17
856,-3787,-2,188,-4691,23,-45,-18,18
857,-3786,-18,188,-4697,23,-44,-18,16
858,-3793,4,182,-4687,23,-44,-21,17
859,-3783,-2,190,-4693,23,-43,-18,18
860,-3788,9,189,-4690,23,-43,-20,17
861,-3806,0,189,-4694,23,-43,-19,16
862,-3793,7,185,-4694,23,-43,-19,16
863,-3791,2,184,-4693,23,-43,-18,17
864,-3789,-2,192,-4700,23,-44,-20,17
865,-3785,-12,203,-4701,23,-43,-19,18
866,-3792,-6,187,-4702,23,-43,-19,17
867,-3785,-2,182,-4691,23,-44,-20,16
868,-3783,-5,183,-4696,23,-44,-20,16
869,-3778,-14,182,-4693,23,-43,-20,17
870,-3798,-10,185,-4689,23,-43,-20,17
871,-3792,-9,195,-4696,23,-44,-20,18
872,-3787,-4,193,-4690,23,-42,-19,16
873,-3793,-6,180,-4692,23,-44,-20,17
874,-3779,1,171,-4688,23,-43,-20,15
875,-3791,-5,190,-4685,23,-44,-20,16
876,-3782,1,180,-4696,23,-44,-21,18
877,-3791,-2,176,-4693,23,-45,-21,16
878,-3793,3,188,-4693,23,-42,-19,17
879,-3794,-2,178,-4692,23,-43,-21,17
880,-3790,-2,193,-4689,23,-45,-21,17
881,-3793,1,183,-4685,23,-44,-19,17
882,-3796,-10,180,-4695,23,-44,-20,17
883,-3791,-5,185,-4688,23,-43,-20,17
884,-3793,-1,185,-4694,23,-44,-20,17
885,-3787,2,193,-4687,23,-45,-20,17
886,-3786,17,184,-4686,23,-43,-19,17
887,-3787,-1,187,-4682,23,-44,-19,16
888,-3785,0,190,-4693,23,-43,-20,17
889,-3784,0,186,-4690,23,-44,-20,17
890,-3785,2,196,-4696,23,-44,-18,18
891,-3789,2,180,-4688,23,-45,-20,18
892,-3788,-10,197,-4694,23,-45,-19,18
893,-3786,-3,188,-4690,23,-43,-19,18
894,-3786,-2,204,-4689,23,-43,-19,17
895,-3791,7,181,-4687,23,-43,-21,17
896,-3797,-11,186,-4695,23,-43,-20,17
897,-3782,-5,187,-4701,23,-44,-19,17
898,-3788,0,183,-4692,23,-45,-18,17
899,-3781,-11,185,-4691,23,-43,-21,17
900,-3794,-7,178,-4685,23,-43,-20,17
901,-3794,-11,181,-4686,23,-44,-19,17
902,-3791,1,191,-4687,23,-43,-20,18
903,-3783,-2,194,-4688,23,-43,-19,18
904,-3779,-5,196,-4694,23,-44,-19,18
905,-3789,-9,184,-4689,23,-44,-19,16
906,-3790,-1,177,-4689,23,-43,-20,17
907,-3790,4,187,-4685,23,-44,-19,18
908,-3776,-4,188,-4692,23,-44,-19,18
909,-3788,-5,192,-4698,23,-43,-19,17
910,-3792,-2,194,-4694,23,-44,-20,18
911,-3784,-4,180,-4691,23,-44,-19,17
912,-3785,-7,187,-4684,23,-45,-18,17
913,-3787,-8,184,-4691,23,-43,-21,17
914,-3782,-13,176,-4696,23,-42,-20,17
915,-3795,-8,182,-4690,23,-43,-20,18
916,-3787,-1,187,-4695,23,-44,-19,16
917,-3794,2,183,-4685,23,-44,-21,16
918,-3789,7,206,-4687,23,-43,-19,17
919,-3789,6,191,-4691,23,-43,-21,17
920,-3784,-7,202,-4690,23,-44,-20,17
921,-3781,-2,178,-4689,23,-44,-19,17
922,-3795,6,183,-4691,23,-43,-20,17
923,-3784,4,191,-4691,23,-43,-20,18
924,-3789,-4,211,-4686,23,-44,-19,17
925,-3792,4,185,-4686,23,-45,-20,16
926,-3787,-5,192,-4691,23,-43,-19,17
927,-3783,-11,192,-4687,23,-44,-21,18
928,-3791,-3,188,-4694,23,-45,-20,18
929,-3791,1,192,-4686,23,-45,-18,17
930,-3785,-9,170,-4693,23,-44,-19,18
931,-3791,-7,192,-4687,23,-45,-19,17
932,-3794,-13,194,-4690,23,-44,-20,17
933,-3788,6,193,-4693,23,-44,-20,17
934,-3787,-10,182,-4685,23,-44,-20,17
935,-3786,-4,191,-4690,23,-44,-20,16
936,-3783,-2,187,-4683,23,-44,-18,17
937,-3792,-7,176,-4688,23,-44,-19,17
938,-3786,-7,175,-4688,23,-45,-19,17
939,-3794,-9,197,-4681,23,-44,-19,17
940,-3783,0,185,-4700,23,-43,-20,17
941,-3793,-5,188,-4693,23,-44,-20,17
942,-3780,-3,191,-4690,23,-43,-19,17
943,-3790,-1,200,-4691,23,-43,-19,17
944,-3792,-4,182,-4702,23,-44,-20,17
945,-3783,1,194,-4692,23,-44,-21,17
946,-3792,-16,217,-4692,23,-45,-21,17
947,-3786,-6,178,-4684,23,-43,-19,17
948,-3793,-4,185,-4686,23,-44,-20,18
949,-3791,-17,198,-4689,23,-44,-19,16
950,-3783,2,185,-4694,23,-44,-17,17
951,-3793,-8,186,-4688,23,-44,-19,17
952,-3785,3,176,-4697,23,-42,-19,17
953,-3791,-3,186,-4693,23,-42,-18,17
954,-3787,1,189,-4691,23,-43,-19,17
955,-3778,5,181,-4690,23,-44,-19,17
956,-3789,-4,202,-4687,23,-44,-20,16
957,-3790,-10,182,-4688,23,-44,-21,17
958,-3793,-7,192,-4692,23,-43,-20,17
959,-3787,-6,185,-4691,23,-44,-19,17
960,-3788,-13,177,-4690,23,-44,-20,17
961,-3785,-4,173,-4689,23,-44,-19,17
962,-3792,-2,186,-4686,23,-42,-19,18
963,-3789,-6,190,-4698,23,-44,-19,17
964,-3794,-1,195,-4690,23,-44,-20,18
965,-3786,4,183,-4695,23,-44,-18,18
966,-3791,-1,184,-4687,23,-44,-18,17
967,-3788,-5,191,-4681,23,-44,-20,18
968,-3795,-5,200,-4691,23,-44,-19,17
969,-3801,7,196,-4685,23,-46,-19,17
970,-3782,-7,198,-4689,23,-44,-19,18
971,-3783,-10,178,-4686,23,-44,-19,18
972,-3788,-2,188,-4694,23,-44,-20,16
973,-3798,-2,182,-4693,23,-43,-20,17
974,-3794,1,185,-4700,23,-44,-19,16
975,-3782,5,188,-4693,23,-45,-20,17
976,-3790,-12,180,-4688,23,-43,-21,17
977,-3783,-14,165,-4689,23,-43,-19,16
978,-3782,-7,186,-4689,23,-43,-19,18
979,-3781,-3,189,-4687,23,-43,-20,17
980,-3780,-12,184,-4700,23,-44,-19,17
981,-3791,-1,180,-4687,23,-44,-19,16
982,-3797,0,185,-4693,23,-45,-19,17
983,-3783,-14,176,-4687,23,-44,-19,17
984,-3790,-7,191,-4687,23,-44,-19,17
985,-3791,-9,201,-4687,23,-44,-19,17
986,-3790,-3,186,-4693,23,-44,-20,17
987,-3785,-5,200,-4696,23,-45,-21,19
988,-3800,-8,191,-4691,23,-45,-18,17
989,-3784,-6,199,-4693,23,-44,-20,17
990,-3785,-6,200,-4689,23,-44,-19,17
991,-3788,-9,210,-4687,23,-43,-20,16
992,-3790,-6,186,-4696,23,-44,-19,16
993,-3792,-13,196,-4697,23,-43,-19,18
994,-3795,-2,172,-4692,23,-43,-20,18
995,-3791,2,178,-4690,23,-43,-20,18
996,-3781,4,196,-4695,23,-44,-19,18
997,-3800,3,194,-4693,23,-44,-20,17
998,-3791,-6,181,-4688,23,-43,-21,17
