,acc_X,acc_Y,acc_Z,temp,tempC,gyr_X,gyr_Y,gyr_Z
0,-1893,-2,92,-4916,22,-44,-19,17
1,-1893,-2,92,-4916,22,-43,-19,17
2,-1894,-3,91,-4915,22,-44,-19,17
3,-1894,-3,90,-4915,22,-44,-19,17
4,-1894,-5,90,-4915,22,-44,-19,17
5,-1892,-3,89,-4913,22,-44,-19,17
6,-1892,-3,89,-4914,22,-43,-19,17
7,-1893,-3,90,-4915,22,-44,-19,17
8,-1894,-4,91,-4915,22,-44,-19,17
9,-1895,-4,91,-4913,22,-44,-19,17
10,-1895,-3,92,-4913,22,-44,-19,17
11,-1894,-3,93,-4913,22,-44,-19,17
12,-1893,-2,91,-4914,22,-44,-19,17
13,-1892,0,92,-4913,22,-44,-19,17
14,-1892,0,94,-4914,22,-43,-19,17
15,-1893,-1,93,-4913,22,-43,-19,17
16,-1895,-1,93,-4914,22,-43,-19,17
17,-1894,-1,94,-4913,22,-43,-19,17
18,-1895,-2,94,-4910,22,-43,-19,17
19,-1894,-1,94,-4910,22,-44,-19,17
20,-1894,-1,94,-4909,22,-44,-20,17
21,-1894,-2,93,-4909,22,-44,-20,17
22,-1894,-3,94,-4908,22,-44,-20,17
23,-1894,-3,95,-4908,22,-44,-20,17
24,-1894,-2,95,-4908,22,-43,-20,17
25,-1893,-3,94,-4907,22,-43,-20,17
26,-1892,-2,93,-4908,22,-43,-20,17
27,-1891,-3,93,-4908,22,-43,-20,17
28,-1893,-4,95,-4906,22,-43,-20,17
29,-1892,-4,93,-4905,22,-43,-20,17
30,-1893,-3,93,-4905,22,-43,-19,17
31,-1894,-4,93,-4903,22,-43,-20,17
32,-1895,-2,93,-4902,22,-43,-19,17
33,-1894,-2,93,-4901,22,-43,-19,17
34,-1894,-1,92,-4903,22,-43,-19,17
35,-1893,-2,93,-4903,22,-43,-20,17
36,-1894,-4,93,-4901,22,-43,-20,17
37,-1895,-4,93,-4900,22,-43,-20,17
38,-1895,-4,91,-4901,22,-43,-20,17
39,-1895,-2,91,-4902,22,-43,-19,17
40,-1895,-2,91,-4902,22,-43,-20,17
41,-1894,-1,90,-4901,22,-43,-19,17
42,-1893,-1,91,-4901,22,-43,-20,17
43,-1893,-1,91,-4901,22,-43,-20,17
44,-1893,-2,91,-4900,22,-43,-20,17
45,-1894,-2,90,-4900,22,-43,-20,16
46,-1894,-2,87,-4900,22,-43,-20,17
47,-1895,-3,89,-4898,22,-44,-19,17
48,-1894,-3,90,-4898,22,-44,-20,17
49,-1895,-2,90,-4897,22,-44,-19,17
50,-1895,-2,90,-4898,22,-44,-19,17
51,-1894,-2,89,-4898,22,-44,-19,17
52,-1893,-1,90,-4897,22,-44,-19,17
53,-1893,0,90,-4896,22,-44,-19,17
54,-1892,1,90,-4896,22,-44,-19,17
55,-1892,1,93,-4897,22,-44,-19,17
56,-1892,1,92,-4897,22,-44,-19,17
57,-1892,1,93,-4898,22,-44,-19,17
58,-1892,0,94,-4899,22,-44,-19,17
59,-1893,0,94,-4899,22,-44,-19,17
60,-1893,-2,93,-4899,22,-44,-19,17
61,-1893,-2,91,-4898,22,-44,-19,17
62,-1894,-2,91,-4899,22,-44,-19,17
63,-1895,-2,91,-4898,22,-43,-19,17
64,-1894,-1,92,-4898,22,-43,-19,17
65,-1895,-2,91,-4899,22,-43,-20,17
66,-1896,-2,92,-4896,22,-43,-19,17
67,-1896,-1,93,-4896,22,-43,-19,17
68,-1896,-1,93,-4895,22,-43,-19,17
69,-1896,-2,95,-4894,22,-43,-19,17
70,-1895,-1,94,-4895,22,-43,-20,17
71,-1895,-2,94,-4894,22,-43,-19,17
72,-1894,-2,94,-4894,22,-43,-19,17
73,-1895,-1,93,-4892,22,-43,-19,17
74,-1895,-1,94,-4893,22,-43,-19,17
75,-1895,-2,93,-4895,22,-43,-19,17
76,-1896,-2,94,-4896,22,-43,-19,17
77,-1894,-3,94,-4896,22,-43,-19,17
78,-1894,-3,93,-4897,22,-43,-19,17
79,-1893,-4,93,-4897,22,-43,-19,17
80,-1893,-2,94,-4896,22,-44,-19,17
81,-1892,-2,94,-4896,22,-44,-19,17
82,-1893,-1,92,-4894,22,-44,-20,17
83,-1893,-1,94,-4895,22,-44,-20,17
84,-1893,-1,94,-4894,22,-43,-20,17
85,-1894,-1,93,-4894,22,-43,-20,17
86,-1894,-1,94,-4894,22,-43,-20,17
87,-1894,-1,94,-4893,22,-43,-20,17
88,-1894,-1,93,-4892,22,-43,-19,17
89,-1893,-1,92,-4890,22,-43,-19,17
90,-1893,-1,91,-4890,22,-43,-19,17
91,-1895,-1,91,-4889,22,-43,-19,17
92,-1895,0,92,-4888,22,-43,-20,17
93,-1895,0,91,-4889,22,-43,-19,17
94,-1894,-1,90,-4889,22,-43,-19,17
95,-1894,-1,92,-4889,22,-43,-19,17
96,-1895,-2,94,-4890,22,-43,-19,17
97,-1894,-1,94,-4889,22,-43,-19,17
98,-1895,-2,92,-4889,22,-43,-19,17
99,-1895,-2,92,-4887,22,-43,-19,17
100,-1894,-3,92,-4888,22,-43,-19,16
101,-1895,-4,92,-4888,22,-44,-19,16
102,-1895,-3,93,-4889,22,-44,-19,17
103,-1894,-4,92,-4891,22,-44,-19,17
104,-1893,-4,93,-4892,22,-44,-19,17
105,-1893,-2,95,-4893,22,-44,-19,17
106,-1894,-2,92,-4891,22,-43,-19,17
107,-1893,-2,93,-4889,22,-44,-19,17
108,-1893,-3,92,-4889,22,-44,-19,17
109,-1893,-2,93,-4888,22,-44,-19,17
110,-1894,-3,94,-4888,22,-44,-19,17
111,-1893,-1,93,-4888,22,-44,-19,17
112,-1894,-1,93,-4888,22,-44,-19,17
113,-1893,-1,93,-4887,22,-43,-19,17
114,-1893,-2,93,-4888,22,-44,-19,17
115,-1893,-2,94,-4889,22,-44,-19,17
116,-1894,-3,94,-4890,22,-43,-19,17
117,-1895,-2,92,-4889,22,-44,-19,17
118,-1895,-3,91,-4889,22,-44,-19,17
119,-1895,-2,90,-4889,22,-44,-19,17
120,-1895,-2,88,-4890,22,-44,-19,17
121,-1894,-2,89,-4890,22,-44,-19,17
122,-1894,-2,91,-4887,22,-43,-19,17
123,-1894,-2,90,-4886,22,-43,-19,17
124,-1895,-2,90,-4886,22,-43,-19,17
125,-1896,-2,90,-4885,22,-43,-19,17
126,-1896,-3,90,-4883,22,-43,-19,17
127,-1896,-3,92,-4885,22,-43,-20,17
128,-1896,-2,91,-4885,22,-43,-20,17
129,-1895,-1,93,-4884,22,-43,-19,17
130,-1893,0,95,-4884,22,-44,-19,17
131,-1894,-1,95,-4884,22,-44,-20,17
132,-1895,-2,93,-4884,22,-43,-20,17
133,-1896,-3,94,-4885,22,-43,-20,17
134,-1895,-3,92,-4885,22,-44,-20,17
135,-1895,-2,94,-4884,22,-43,-20,17
136,-1896,-2,94,-4883,22,-43,-19,17
137,-1895,-1,92,-4883,22,-43,-20,17
138,-1894,-2,92,-4882,22,-43,-20,17
139,-1895,-1,93,-4882,22,-44,-20,17
140,-1894,0,94,-4882,22,-43,-20,17
141,-1894,-1,94,-4882,22,-44,-20,17
142,-1894,-3,95,-4881,22,-44,-20,17
143,-1894,-4,96,-4880,22,-44,-20,17
144,-1895,-4,95,-4882,22,-43,-19,17
145,-1896,-4,94,-4881,22,-43,-19,17
146,-1895,-2,93,-4880,22,-43,-19,17
147,-1896,-2,93,-4878,22,-43,-19,17
148,-1895,-1,93,-4878,22,-43,-19,17
149,-1893,-1,93,-4877,22,-43,-19,17
150,-1894,-2,93,-4876,22,-43,-19,17
151,-1894,0,92,-4877,22,-43,-19,17
152,-1893,-1,94,-4878,22,-43,-19,17
153,-1892,-2,93,-4880,22,-43,-20,17
154,-1893,-2,91,-4879,22,-43,-19,17
155,-1893,-2,94,-4876,22,-43,-19,17
156,-1894,-3,93,-4876,22,-43,-20,17
157,-1894,-3,92,-4876,22,-43,-20,17
158,-1894,-4,93,-4878,22,-44,-20,17
159,-1895,-4,94,-4877,22,-43,-19,17
160,-1894,-3,94,-4877,22,-43,-19,17
161,-1894,-3,97,-4879,22,-44,-19,17
162,-1894,-3,97,-4878,22,-43,-19,17
163,-1895,-1,96,-4878,22,-44,-19,17
164,-1894,-2,94,-4878,22,-44,-19,17
165,-1895,-2,95,-4878,22,-44,-19,17
166,-1894,-2,96,-4879,22,-43,-19,17
167,-1895,-3,96,-4879,22,-43,-19,17
168,-1894,-1,96,-4878,22,-43,-19,17
169,-1894,-1,95,-4879,22,-43,-19,17
170,-1894,-1,94,-4878,22,-43,-19,17
171,-1895,-1,94,-4879,22,-43,-19,17
172,-1895,-2,92,-4878,22,-43,-19,17
173,-1894,-1,93,-4879,22,-44,-19,17
174,-1894,0,94,-4879,22,-44,-19,17
175,-1894,-1,93,-4878,22,-44,-19,17
176,-1893,-1,94,-4876,22,-44,-19,17
177,-1893,-2,94,-4878,22,-44,-19,17
178,-1894,-2,92,-4877,22,-44,-19,17
179,-1894,-3,92,-4878,22,-44,-19,17
180,-1894,-2,92,-4877,22,-44,-19,17
181,-1894,-1,92,-4877,22,-43,-19,17
182,-1894,-3,92,-4877,22,-43,-19,17
183,-1894,-2,93,-4879,22,-43,-19,17
184,-1893,-2,93,-4878,22,-43,-19,17
185,-1893,-2,93,-4877,22,-43,-19,17
186,-1893,-2,93,-4878,22,-43,-19,17
187,-1894,-1,94,-4877,22,-43,-19,17
188,-1894,-2,93,-4876,22,-43,-19,17
189,-1894,-3,94,-4875,22,-43,-20,17
190,-1893,-2,93,-4875,22,-43,-19,17
191,-1893,-1,92,-4876,22,-43,-19,17
192,-1894,0,93,-4876,22,-43,-19,17
193,-1894,-1,92,-4875,22,-44,-19,17
194,-1895,-2,92,-4876,22,-44,-19,17
195,-1895,-1,93,-4875,22,-43,-19,17
196,-1894,0,93,-4874,22,-43,-19,17
197,-1895,0,91,-4876,22,-43,-19,17
198,-1896,0,91,-4874,22,-43,-19,17
199,-1895,0,89,-4874,22,-43,-19,17
200,-1894,0,91,-4873,22,-43,-19,17
201,-1894,0,92,-4873,22,-43,-19,17
202,-1893,0,93,-4873,22,-43,-19,17
203,-1893,0,94,-4873,22,-43,-19,17
204,-1893,0,94,-4874,22,-43,-19,17
205,-1894,1,93,-4873,22,-43,-19,17
206,-1894,0,93,-4874,22,-43,-19,17
207,-1894,0,92,-4875,22,-43,-19,17
208,-1895,0,93,-4874,22,-44,-19,17
209,-1895,-1,94,-4873,22,-43,-19,17
210,-1895,-1,93,-4873,22,-43,-19,17
211,-1894,-2,91,-4871,22,-43,-19,17
212,-1894,-2,92,-4872,22,-43,-19,17
213,-1894,-3,91,-4871,22,-43,-20,17
214,-1895,-2,89,-4872,22,-43,-20,17
215,-1895,-1,90,-4873,22,-43,-20,17
216,-1894,-1,90,-4872,22,-43,-20,17
217,-1894,0,89,-4873,22,-43,-20,17
218,-1895,-1,90,-4871,22,-43,-20,17
219,-1894,-1,92,-4872,22,-43,-20,17
220,-1896,-1,92,-4873,22,-43,-20,17
221,-1895,-2,94,-4874,22,-43,-20,17
222,-1895,-2,93,-4873,22,-43,-20,17
223,-1895,-2,94,-4873,22,-43,-20,17
224,-1895,-1,94,-4872,22,-43,-20,17
225,-1895,-2,94,-4871,22,-44,-20,17
226,-1893,-2,94,-4873,22,-43,-19,17
227,-1894,-3,95,-4872,22,-44,-19,17
228,-1894,-3,93,-4873,22,-43,-19,17
229,-1894,-3,94,-4872,22,-44,-19,17
230,-1895,-3,94,-4873,22,-44,-19,17
231,-1894,-2,94,-4869,22,-44,-19,17
232,-1894,-3,92,-4869,22,-44,-20,17
233,-1894,-2,92,-4869,22,-44,-19,17
234,-1894,-2,91,-4870,22,-44,-20,17
235,-1895,-2,93,-4871,22,-44,-20,17
236,-1895,-3,93,-4868,22,-44,-20,17
237,-1895,-3,92,-4867,22,-44,-20,17
238,-1895,-3,95,-4867,22,-44,-20,17
239,-1895,-2,96,-4868,22,-44,-19,17
240,-1895,-2,98,-4869,22,-43,-20,17
241,-1895,-2,98,-4869,22,-43,-20,17
242,-1894,-3,98,-4870,22,-43,-20,17
243,-1894,-2,99,-4870,22,-43,-20,17
244,-1894,-2,99,-4870,22,-43,-20,17
245,-1894,-2,99,-4868,22,-44,-20,17
246,-1895,-3,98,-4866,22,-44,-20,17
247,-1895,-3,98,-4866,22,-44,-20,17
248,-1894,-3,95,-4867,22,-44,-20,17
249,-1893,-1,93,-4867,22,-44,-20,17
250,-1894,-1,92,-4869,22,-44,-19,17
251,-1893,-1,93,-4869,22,-44,-20,17
252,-1894,-2,94,-4870,22,-44,-20,17
253,-1893,-2,94,-4870,22,-44,-20,17
254,-1893,-3,94,-4871,22,-44,-20,17
255,-1894,-2,93,-4870,22,-44,-20,17
256,-1895,-2,94,-4869,22,-44,-20,17
257,-1895,-2,93,-4869,22,-44,-20,17
258,-1895,-1,94,-4868,22,-44,-20,17
259,-1897,-1,96,-4866,22,-44,-20,17
260,-1895,-1,94,-4865,22,-44,-20,17
261,-1897,-1,95,-4865,22,-44,-20,17
262,-1897,-2,94,-4865,22,-44,-20,17
263,-1897,-1,95,-4863,22,-44,-20,17
264,-1897,-2,94,-4864,22,-44,-20,16
265,-1897,-1,94,-4863,22,-44,-20,16
266,-1897,0,93,-4864,22,-44,-20,16
267,-1897,-1,92,-4863,22,-44,-20,16
268,-1896,-2,92,-4861,22,-44,-19,16
269,-1896,-3,92,-4862,22,-44,-20,16
270,-1897,-2,92,-4864,22,-44,-20,16
271,-1895,-2,92,-4864,22,-43,-19,16
272,-1895,0,91,-4864,22,-43,-20,16
273,-1895,0,91,-4864,22,-43,-20,16
274,-1895,-1,91,-4863,22,-43,-20,17
275,-1894,1,90,-4864,22,-44,-20,17
276,-1895,1,92,-4864,22,-44,-20,17
277,-1894,1,92,-4865,22,-44,-20,16
278,-1895,0,92,-4865,22,-44,-20,16
279,-1894,1,90,-4867,22,-44,-20,16
280,-1896,0,90,-4867,22,-44,-20,17
281,-1895,0,91,-4865,22,-44,-19,17
282,-1895,-1,90,-4864,22,-43,-19,17
283,-1894,-2,88,-4865,22,-43,-20,17
284,-1894,-2,89,-4864,22,-43,-20,17
285,-1893,-3,90,-4864,22,-43,-20,17
286,-1893,-2,90,-4863,22,-43,-19,17
287,-1894,-3,90,-4862,22,-43,-19,17
288,-1894,-2,90,-4864,22,-43,-19,17
289,-1895,-1,92,-4863,22,-43,-19,17
290,-1895,-1,92,-4862,22,-43,-19,17
291,-1895,0,92,-4861,22,-44,-19,17
292,-1894,-1,92,-4862,22,-44,-19,17
293,-1896,-2,92,-4860,22,-43,-19,17
294,-1896,-2,94,-4860,22,-43,-19,17
295,-1896,-3,92,-4858,22,-44,-19,17
296,-1896,-4,92,-4860,22,-44,-19,17
297,-1895,-3,92,-4861,22,-43,-19,16
298,-1895,-3,91,-4861,22,-43,-19,17
299,-1895,-1,91,-4861,22,-43,-19,17
300,-1895,-1,89,-4862,22,-44,-19,17
301,-1896,-1,89,-4862,22,-44,-19,17
302,-1895,0,90,-4863,22,-44,-19,17
303,-1895,-1,93,-4864,22,-44,-20,17
304,-1896,-1,92,-4864,22,-43,-19,17
305,-1895,-2,91,-4863,22,-44,-20,17
306,-1895,-3,92,-4862,22,-44,-19,17
307,-1893,-3,93,-4862,22,-43,-19,17
308,-1894,-2,94,-4861,22,-44,-19,17
309,-1893,-2,95,-4860,22,-44,-19,17
310,-1894,-1,94,-4861,22,-44,-19,17
311,-1895,-2,92,-4861,22,-44,-19,17
312,-1895,-2,91,-4859,22,-44,-20,17
313,-1896,-2,89,-4859,22,-44,-20,17
314,-1895,-1,88,-4858,22,-44,-20,17
315,-1895,-2,87,-4857,22,-44,-20,17
316,-1895,-3,88,-4858,22,-44,-20,17
317,-1895,-3,90,-4860,22,-43,-20,17
318,-1895,-4,90,-4860,22,-44,-20,17
319,-1896,-4,91,-4859,22,-43,-20,17
320,-1895,-4,91,-4858,22,-44,-20,17
321,-1895,-2,92,-4858,22,-44,-19,17
322,-1894,-3,90,-4857,22,-44,-20,17
323,-1895,-3,91,-4856,22,-44,-20,17
324,-1895,-2,91,-4855,22,-44,-20,17
325,-1894,-2,90,-4857,22,-44,-19,17
326,-1894,-2,89,-4856,22,-44,-20,17
327,-1894,-2,89,-4856,22,-44,-19,17
328,-1894,-3,89,-4855,22,-44,-20,17
329,-1894,-3,90,-4857,22,-44,-19,17
330,-1894,-2,89,-4857,22,-44,-19,17
331,-1895,-2,91,-4857,22,-44,-19,17
332,-1894,-2,90,-4858,22,-44,-19,17
333,-1894,-1,91,-4859,22,-43,-19,17
334,-1894,-2,91,-4858,22,-44,-19,17
335,-1894,-2,92,-4858,22,-44,-19,17
336,-1895,-2,93,-4859,22,-44,-19,17
337,-1895,-1,93,-4857,22,-44,-19,17
338,-1894,-3,93,-4857,22,-43,-19,17
339,-1894,-3,95,-4858,22,-43,-20,17
340,-1894,-3,96,-4859,22,-43,-20,17
341,-1894,-2,94,-4858,22,-43,-20,17
342,-1894,-3,93,-4857,22,-43,-20,17
343,-1894,-3,91,-4858,22,-43,-20,17
344,-1895,-4,90,-4859,22,-43,-19,17
345,-1894,-2,91,-4859,22,-43,-19,17
346,-1893,-2,92,-4857,22,-43,-19,17
347,-1893,-2,92,-4858,22,-43,-19,17
348,-1892,-1,94,-4857,22,-43,-19,17
349,-1892,-2,95,-4857,22,-43,-19,17
350,-1893,-1,95,-4858,22,-44,-19,17
351,-1893,-1,95,-4858,22,-43,-19,17
352,-1893,-2,93,-4857,22,-43,-19,17
353,-1893,-2,91,-4857,22,-43,-19,17
354,-1892,-3,92,-4856,22,-43,-19,17
355,-1893,-3,92,-4855,22,-43,-20,17
356,-1894,-3,92,-4854,22,-43,-19,17
357,-1894,-3,93,-4854,22,-43,-19,17
358,-1895,-4,94,-4854,22,-43,-19,17
359,-1894,-4,92,-4855,22,-43,-19,17
360,-1894,-4,94,-4853,22,-43,-19,17
361,-1894,-3,94,-4852,22,-44,-19,17
362,-1894,-3,94,-4851,22,-43,-19,17
363,-1894,-3,93,-4853,22,-43,-19,17
364,-1893,-3,92,-4853,22,-43,-19,17
365,-1894,-3,93,-4854,22,-44,-19,17
366,-1896,-4,91,-4852,22,-44,-19,17
367,-1895,-3,92,-4851,22,-44,-19,17
368,-1895,-3,93,-4851,22,-44,-19,17
369,-1896,-3,91,-4851,22,-44,-19,17
370,-1895,-2,92,-4851,22,-44,-19,17
371,-1895,-1,94,-4852,22,-44,-19,17
372,-1894,-1,93,-4853,22,-44,-19,17
373,-1895,-1,93,-4852,22,-43,-19,17
374,-1894,-1,94,-4853,22,-43,-19,17
375,-1894,-1,94,-4852,22,-43,-19,16
376,-1894,-2,94,-4851,22,-43,-19,17
377,-1893,-1,93,-4853,22,-43,-19,16
378,-1893,-1,93,-4852,22,-43,-19,17
379,-1893,-2,94,-4854,22,-43,-19,17
380,-1893,-2,93,-4855,22,-44,-19,17
381,-1895,-3,93,-4854,22,-44,-19,17
382,-1895,-3,93,-4855,22,-44,-19,17
383,-1895,-2,91,-4854,22,-44,-19,17
384,-1895,-1,93,-4854,22,-44,-19,16
385,-1896,-3,93,-4854,22,-43,-19,17
386,-1896,-3,92,-4855,22,-43,-19,17
387,-1896,-3,92,-4854,22,-44,-19,17
388,-1896,-4,91,-4855,22,-44,-19,17
389,-1895,-3,90,-4855,22,-43,-19,17
390,-1896,-3,90,-4856,22,-43,-19,16
391,-1896,-2,89,-4855,22,-43,-20,17
392,-1896,-3,89,-4855,22,-43,-19,17
393,-1894,-3,90,-4853,22,-44,-19,17
394,-1894,-3,90,-4854,22,-43,-19,17
395,-1895,-1,91,-4851,22,-43,-19,17
396,-1895,-1,91,-4850,22,-44,-19,17
397,-1895,-1,92,-4849,22,-44,-20,17
398,-1895,0,93,-4849,22,-44,-20,17
399,-1895,-1,92,-4851,22,-44,-20,17
400,-1895,-1,90,-4850,22,-44,-19,17
401,-1896,-1,92,-4848,22,-43,-19,17
402,-1895,-1,91,-4849,22,-44,-19,17
403,-1894,-1,93,-4849,22,-44,-20,17
404,-1896,-1,91,-4849,22,-44,-20,17
405,-1895,-1,92,-4850,22,-44,-20,17
406,-1895,-1,92,-4850,22,-44,-20,17
407,-1896,-1,93,-4850,22,-44,-20,17
408,-1896,-1,93,-4850,22,-44,-20,17
409,-1895,-1,92,-4849,22,-44,-20,17
410,-1894,-1,92,-4849,22,-44,-20,17
411,-1896,-2,92,-4848,22,-44,-20,17
412,-1896,-3,92,-4848,22,-44,-20,17
413,-1895,-2,93,-4849,22,-44,-20,17
414,-1895,-1,91,-4850,22,-44,-20,17
415,-1894,-2,90,-4851,22,-44,-20,17
416,-1894,-2,91,-4851,22,-44,-20,17
417,-1894,-2,91,-4849,22,-44,-19,17
418,-1895,-3,91,-4850,22,-44,-20,17
419,-1895,-4,91,-4850,22,-44,-19,17
420,-1895,-2,90,-4851,22,-44,-19,17
421,-1896,-3,90,-4850,22,-44,-19,17
422,-1896,-3,90,-4849,22,-44,-20,17
423,-1895,-3,91,-4850,22,-44,-19,17
424,-1895,-3,93,-4851,22,-43,-19,17
425,-1894,-1,92,-4851,22,-43,-19,17
426,-1895,-1,93,-4851,22,-44,-19,17
427,-1895,0,92,-4852,22,-44,-19,17
428,-1895,0,93,-4853,22,-44,-19,17
429,-1895,-1,94,-4852,22,-44,-19,17
430,-1894,-1,93,-4851,22,-43,-19,17
431,-1893,-2,93,-4851,22,-43,-19,17
432,-1892,-3,93,-4853,22,-44,-19,17
433,-1893,-3,93,-4854,22,-44,-19,17
434,-1892,-3,93,-4853,22,-44,-19,17
435,-1894,-3,92,-4852,22,-44,-19,17
436,-1894,-2,93,-4850,22,-44,-19,17
437,-1893,-1,93,-4850,22,-44,-19,17
438,-1894,-1,93,-4850,22,-43,-19,17
439,-1893,-2,94,-4847,22,-43,-19,17
440,-1894,0,93,-4847,22,-44,-19,17
441,-1894,0,92,-4848,22,-43,-19,17
442,-1894,0,91,-4848,22,-43,-19,17
443,-1893,0,91,-4849,22,-43,-19,17
444,-1893,0,89,-4850,22,-43,-19,17
445,-1894,-2,90,-4851,22,-43,-20,17
446,-1894,-2,92,-4850,22,-43,-20,17
447,-1895,-1,91,-4850,22,-44,-20,17
448,-1895,-2,92,-4851,22,-43,-20,17
449,-1895,-2,92,-4849,22,-44,-20,17
450,-1894,-2,92,-4850,22,-44,-20,17
451,-1893,-1,89,-4849,22,-43,-19,17
452,-1894,-1,91,-4847,22,-44,-19,17
453,-1894,-2,91,-4847,22,-43,-19,17
454,-1893,-2,93,-4849,22,-44,-20,17
455,-1893,-2,94,-4848,22,-44,-20,17
456,-1893,-1,93,-4848,22,-43,-20,17
457,-1894,-1,93,-4847,22,-44,-20,17
458,-1893,-2,92,-4847,22,-44,-20,17
459,-1895,-2,94,-4848,22,-43,-19,16
460,-1895,-2,93,-4849,22,-44,-19,17
461,-1895,-2,94,-4846,22,-44,-19,17
462,-1895,-3,95,-4847,22,-44,-19,17
463,-1896,-3,95,-4848,22,-44,-19,16
464,-1895,-4,95,-4849,22,-44,-19,17
465,-1895,-3,93,-4848,22,-44,-20,16
466,-1896,-2,95,-4849,22,-44,-20,16
467,-1896,-2,94,-4849,22,-44,-20,16
468,-1896,-2,93,-4849,22,-44,-20,17
469,-1896,-1,93,-4849,22,-44,-19,17
470,-1895,-2,91,-4849,22,-44,-19,17
471,-1895,-1,91,-4848,22,-43,-19,17
472,-1895,-2,88,-4849,22,-44,-19,17
473,-1894,-4,91,-4848,22,-44,-19,17
474,-1893,-4,91,-4848,22,-44,-20,17
475,-1894,-4,91,-4848,22,-44,-20,17
476,-1894,-4,92,-4848,22,-43,-20,17
477,-1894,-4,93,-4844,22,-43,-20,16
478,-1894,-2,93,-4845,22,-44,-20,16
479,-1893,-3,92,-4844,22,-43,-20,16
480,-1893,-3,94,-4844,22,-43,-19,16
481,-1893,-3,93,-4846,22,-43,-19,16
482,-1893,-2,92,-4848,22,-43,-19,16
483,-1894,-2,92,-4848,22,-43,-19,17
484,-1894,-2,92,-4849,22,-43,-19,17
485,-1894,-2,93,-4847,22,-43,-19,16
486,-1895,-2,93,-4849,22,-43,-20,16
487,-1895,-3,92,-4847,22,-43,-20,17
488,-1896,-3,93,-4848,22,-43,-20,17
489,-1895,-2,93,-4848,22,-43,-20,17
490,-1894,-1,94,-4846,22,-43,-20,17
491,-1895,-2,93,-4846,22,-43,-20,17
492,-1896,-3,95,-4846,22,-43,-20,17
493,-1896,-4,95,-4847,22,-43,-20,17
494,-1895,-4,94,-4846,22,-43,-20,17
495,-1894,-2,94,-4848,22,-43,-20,17
496,-1893,-3,93,-4847,22,-44,-19,16
497,-1894,-3,92,-4848,22,-44,-19,17
498,-1894,-2,92,-4850,22,-44,-20,17
499,-1894,-2,92,-4847,22,-44,-20,17
500,-1895,-4,93,-4849,22,-44,-20,17
501,-1895,-3,93,-4849,22,-44,-19,17
502,-1895,-2,94,-4848,22,-43,-20,17
503,-1894,-2,92,-4847,22,-43,-20,17
504,-1894,-2,92,-4847,22,-43,-20,17
505,-1894,-2,91,-4848,22,-43,-20,17
506,-1894,-1,92,-4847,22,-43,-20,17
507,-1894,0,92,-4847,22,-43,-20,17
508,-1894,-1,91,-4846,22,-44,-20,17
509,-1895,-2,89,-4846,22,-43,-20,16
510,-1896,-1,89,-4846,22,-44,-20,16
511,-1895,-2,89,-4845,22,-44,-20,16
512,-1894,-3,91,-4846,22,-44,-20,16
513,-1894,-2,91,-4847,22,-44,-19,16
514,-1895,-1,92,-4846,22,-44,-20,16
515,-1893,-1,91,-4844,22,-44,-20,17
516,-1893,-1,90,-4843,22,-44,-20,16
517,-1894,-2,92,-4841,22,-44,-20,17
518,-1894,-2,92,-4840,22,-44,-20,16
519,-1894,-3,91,-4841,22,-44,-20,17
520,-1893,-2,90,-4842,22,-44,-19,16
521,-1893,-2,91,-4843,22,-44,-20,16
522,-1894,-1,92,-4844,22,-44,-20,16
523,-1895,-2,92,-4842,22,-44,-20,16
524,-1895,-2,94,-4840,22,-44,-20,17
525,-1893,-1,92,-4842,22,-44,-20,16
526,-1894,-1,92,-4841,22,-44,-20,16
527,-1894,-2,91,-4839,22,-43,-20,16
528,-1894,0,90,-4839,22,-43,-19,17
529,-1894,-2,91,-4839,22,-44,-19,17
530,-1895,-2,92,-4839,22,-43,-19,17
531,-1896,-2,93,-4841,22,-44,-19,17
532,-1896,-1,93,-4841,22,-44,-19,17
533,-1895,-1,92,-4839,22,-44,-19,17
534,-1896,-1,92,-4836,22,-44,-19,17
535,-1894,-1,93,-4836,22,-44,-19,17
536,-1894,-1,93,-4837,22,-44,-19,17
537,-1894,-2,92,-4838,22,-44,-20,17
538,-1893,-2,93,-4837,22,-44,-19,17
539,-1893,-1,92,-4837,22,-43,-19,17
540,-1893,-1,93,-4836,22,-44,-19,17
541,-1893,-1,92,-4837,22,-44,-19,17
542,-1894,-1,91,-4838,22,-44,-19,17
543,-1894,0,91,-4838,22,-43,-19,17
544,-1895,-1,92,-4839,22,-44,-19,17
545,-1894,0,92,-4837,22,-44,-19,16
546,-1893,-2,92,-4838,22,-44,-19,17
547,-1894,-2,94,-4838,22,-44,-19,17
548,-1893,-3,93,-4840,22,-44,-19,17
549,-1894,-3,93,-4839,22,-44,-19,17
550,-1895,-3,93,-4839,22,-44,-19,17
551,-1895,-4,94,-4838,22,-44,-19,17
552,-1894,-2,93,-4839,22,-44,-19,17
553,-1893,-2,91,-4839,22,-44,-19,17
554,-1893,-1,91,-4837,22,-44,-19,17
555,-1893,-1,92,-4836,22,-44,-19,17
556,-1893,-1,92,-4835,22,-43,-19,17
557,-1894,0,91,-4836,22,-43,-19,17
558,-1893,0,91,-4838,22,-44,-20,17
559,-1895,-1,92,-4837,22,-44,-20,17
560,-1894,0,95,-4837,22,-44,-20,17
561,-1894,0,92,-4835,22,-43,-20,17
562,-1896,-1,91,-4836,22,-43,-20,17
563,-1896,-2,90,-4834,22,-43,-20,17
564,-1895,-1,91,-4835,22,-43,-19,17
565,-1894,-1,91,-4836,22,-43,-20,17
566,-1893,-2,91,-4835,22,-43,-19,17
567,-1894,-2,92,-4836,22,-43,-20,17
568,-1894,-2,91,-4835,22,-43,-20,17
569,-1894,-1,91,-4835,22,-43,-20,16
570,-1893,-1,88,-4834,22,-43,-20,16
571,-1894,0,90,-4837,22,-43,-20,17
572,-1894,0,92,-4835,22,-43,-20,16
573,-1893,-1,92,-4833,22,-43,-20,17
574,-1891,-1,92,-4836,22,-44,-20,17
575,-1892,-1,89,-4835,22,-44,-20,17
576,-1892,-1,89,-4834,22,-44,-19,17
577,-1892,-1,90,-4833,22,-44,-20,17
578,-1892,-1,90,-4833,22,-43,-20,17
579,-1893,-1,91,-4834,22,-43,-20,17
580,-1893,0,91,-4835,22,-43,-20,16
581,-1892,-1,90,-4835,22,-43,-20,17
582,-1892,-2,91,-4837,22,-43,-20,17
583,-1893,-2,91,-4838,22,-43,-20,17
584,-1894,-3,92,-4838,22,-43,-20,17
585,-1894,-3,91,-4838,22,-44,-20,17
586,-1895,-2,91,-4838,22,-44,-20,17
587,-1894,-2,92,-4837,22,-44,-20,17
588,-1893,-3,91,-4837,22,-44,-20,17
589,-1892,-3,90,-4838,22,-44,-19,17
590,-1893,-2,90,-4839,22,-44,-20,17
591,-1893,-3,92,-4838,22,-44,-20,17
592,-1893,-3,92,-4838,22,-44,-20,17
593,-1893,-2,91,-4836,22,-44,-19,17
594,-1893,-4,90,-4837,22,-44,-19,17
595,-1893,-4,90,-4836,22,-44,-19,17
596,-1893,-4,91,-4838,22,-44,-19,17
597,-1893,-3,92,-4837,22,-44,-19,17
598,-1893,-2,92,-4837,22,-44,-19,17
599,-1893,-2,92,-4835,22,-43,-19,17
600,-1895,-1,93,-4836,22,-43,-20,17
601,-1895,-1,92,-4835,22,-44,-20,17
602,-1896,-3,91,-4835,22,-44,-20,17
603,-1895,-4,91,-4835,22,-44,-20,17
604,-1894,-4,92,-4835,22,-44,-20,17
605,-1893,-3,93,-4833,22,-44,-20,16
606,-1893,-4,92,-4831,22,-44,-19,17
607,-1893,-3,91,-4830,22,-44,-19,17
608,-1893,-3,89,-4831,22,-44,-19,16
609,-1894,-3,89,-4832,22,-44,-19,16
610,-1894,-2,89,-4831,22,-44,-19,17
611,-1894,-2,88,-4833,22,-44,-20,17
612,-1895,-3,91,-4832,22,-44,-20,17
613,-1894,-1,91,-4833,22,-44,-20,17
614,-1895,-1,90,-4835,22,-44,-20,16
615,-1894,-1,92,-4835,22,-44,-20,16
616,-1894,-1,93,-4835,22,-44,-20,17
617,-1894,-1,91,-4835,22,-44,-20,17
618,-1894,-1,90,-4834,22,-44,-20,17
619,-1894,-1,90,-4835,22,-44,-20,17
620,-1895,-1,89,-4834,22,-44,-19,17
621,-1896,-1,88,-4832,22,-44,-20,17
622,-1896,-1,90,-4833,22,-44,-20,17
623,-1895,-2,90,-4833,22,-44,-20,17
624,-1894,-2,90,-4834,22,-44,-20,17
625,-1892,-3,91,-4833,22,-44,-20,16
626,-1893,-3,93,-4834,22,-44,-20,17
627,-1893,-4,93,-4835,22,-43,-20,17
628,-1893,-3,91,-4835,22,-43,-20,17
629,-1894,-2,90,-4835,22,-43,-20,17
630,-1894,-3,91,-4835,22,-43,-20,17
631,-1894,-4,90,-4835,22,-43,-19,17
632,-1895,-4,90,-4835,22,-43,-19,17
633,-1894,-3,91,-4835,22,-44,-20,17
634,-1895,-2,89,-4834,22,-43,-20,17
635,-1893,-3,92,-4835,22,-43,-20,17
636,-1894,-3,92,-4834,22,-43,-20,17
637,-1895,-2,93,-4835,22,-43,-20,17
638,-1895,-3,94,-4835,22,-44,-20,17
639,-1895,-1,95,-4835,22,-44,-19,17
640,-1895,-2,94,-4838,22,-44,-19,17
641,-1895,-2,95,-4839,22,-43,-20,17
642,-1894,-1,95,-4837,22,-43,-20,17
643,-1894,-1,95,-4833,22,-43,-20,17
644,-1894,0,97,-4833,22,-44,-20,17
645,-1892,0,95,-4833,22,-44,-20,17
646,-1893,0,94,-4831,22,-44,-20,17
647,-1893,-1,94,-4832,22,-44,-20,17
648,-1894,-1,94,-4834,22,-44,-20,17
649,-1894,-1,93,-4834,22,-44,-20,17
650,-1893,-1,93,-4835,22,-44,-20,17
651,-1894,-2,91,-4834,22,-44,-20,17
652,-1892,-1,91,-4833,22,-44,-20,17
653,-1894,0,91,-4834,22,-44,-19,17
654,-1894,-2,90,-4831,22,-43,-20,17
655,-1892,-3,90,-4831,22,-43,-20,17
656,-1893,-1,90,-4832,22,-43,-20,17
657,-1895,-2,91,-4832,22,-43,-20,17
658,-1894,-2,92,-4833,22,-43,-20,17
659,-1893,-2,92,-4834,22,-43,-20,17
660,-1893,-2,93,-4834,22,-44,-20,17
661,-1893,-4,93,-4834,22,-44,-19,17
662,-1893,-3,92,-4835,22,-44,-20,17
663,-1893,-2,91,-4835,22,-44,-20,17
664,-1892,-1,91,-4835,22,-44,-20,17
665,-1892,-1,93,-4834,22,-44,-20,17
666,-1892,-1,94,-4833,22,-44,-19,17
667,-1892,-1,92,-4835,22,-44,-19,16
668,-1893,-1,92,-4835,22,-44,-19,17
669,-1894,-1,92,-4832,22,-44,-19,16
670,-1894,-1,92,-4832,22,-43,-20,17
671,-1895,-2,93,-4832,22,-44,-19,17
672,-1895,-3,91,-4831,22,-44,-19,17
673,-1893,-3,92,-4831,22,-44,-19,17
674,-1894,-3,93,-4833,22,-44,-19,17
675,-1894,-3,92,-4833,22,-44,-19,17
676,-1893,-2,93,-4833,22,-44,-19,17
677,-1893,-3,93,-4832,22,-44,-19,17
678,-1892,-2,92,-4830,22,-44,-19,17
679,-1891,-2,92,-4830,22,-43,-19,17
680,-1892,-2,93,-4831,22,-43,-19,17
681,-1893,-2,92,-4830,22,-43,-19,17
682,-1891,-3,91,-4832,22,-43,-20,17
683,-1892,-3,92,-4831,22,-44,-20,17
684,-1893,-1,92,-4829,22,-43,-20,17
685,-1894,-2,92,-4831,22,-43,-20,16
686,-1894,-2,91,-4832,22,-44,-20,16
687,-1894,-2,91,-4833,22,-44,-20,16
688,-1895,-1,89,-4832,22,-44,-19,17
689,-1895,-1,89,-4833,22,-43,-20,17
690,-1894,-1,89,-4834,22,-44,-20,17
691,-1894,-1,90,-4835,22,-44,-20,17
692,-1893,-2,91,-4833,22,-44,-20,17
693,-1895,-3,91,-4831,22,-43,-19,17
694,-1895,-3,91,-4830,22,-44,-19,17
695,-1895,-2,91,-4828,22,-43,-19,17
696,-1896,-1,90,-4827,22,-44,-19,17
697,-1896,-1,90,-4828,22,-43,-19,17
698,-1896,-2,91,-4827,22,-43,-19,17
699,-1895,-2,92,-4829,22,-43,-19,17
700,-1894,-2,91,-4830,22,-43,-19,17
701,-1894,-1,92,-4833,22,-43,-20,16
702,-1894,-1,92,-4834,22,-43,-20,17
703,-1893,-2,91,-4831,22,-43,-20,17
704,-1895,-1,92,-4830,22,-43,-20,17
705,-1895,-2,92,-4830,22,-43,-20,17
706,-1895,-1,95,-4831,22,-44,-19,16
707,-1895,-2,96,-4828,22,-44,-19,16
708,-1895,-2,95,-4828,22,-44,-19,16
709,-1896,-1,94,-4829,22,-44,-19,16
710,-1895,-3,93,-4830,22,-44,-19,17
711,-1895,-3,89,-4831,22,-43,-19,16
712,-1895,-3,88,-4832,22,-43,-19,17
713,-1895,-2,88,-4831,22,-43,-19,17
714,-1894,-2,89,-4830,22,-44,-19,17
715,-1893,-2,90,-4833,22,-44,-19,17
716,-1892,-2,91,-4833,22,-44,-19,17
717,-1893,-4,93,-4832,22,-44,-19,16
718,-1893,-3,94,-4833,22,-44,-19,17
719,-1893,-3,93,-4833,22,-44,-19,16
720,-1893,-2,92,-4831,22,-44,-19,16
721,-1892,-2,92,-4831,22,-44,-19,16
722,-1892,-3,92,-4832,22,-44,-19,17
723,-1893,-2,92,-4834,22,-43,-19,16
724,-1894,-3,91,-4834,22,-43,-19,17
725,-1893,-3,94,-4833,22,-44,-19,17
726,-1893,-3,92,-4834,22,-43,-20,17
727,-1894,-2,93,-4835,22,-44,-20,17
728,-1895,-3,93,-4837,22,-44,-20,17
729,-1895,-2,91,-4836,22,-44,-20,17
730,-1895,-3,91,-4835,22,-44,-20,17
731,-1896,-2,89,-4834,22,-44,-20,17
732,-1896,-3,91,-4832,22,-44,-20,17
733,-1895,-2,91,-4833,22,-44,-20,17
734,-1895,-3,91,-4832,22,-44,-20,17
735,-1894,-3,92,-4829,22,-44,-20,17
736,-1895,-3,92,-4831,22,-44,-20,17
737,-1896,-3,93,-4831,22,-44,-20,17
738,-1895,-3,92,-4830,22,-43,-19,17
739,-1894,-3,92,-4830,22,-44,-20,17
740,-1894,-1,89,-4832,22,-44,-20,17
741,-1894,-1,90,-4832,22,-44,-20,17
742,-1893,0,90,-4832,22,-43,-20,17
743,-1894,0,91,-4832,22,-43,-20,17
744,-1894,0,91,-4833,22,-43,-20,17
745,-1894,-1,91,-4832,22,-43,-20,17
746,-1893,-1,92,-4832,22,-43,-19,17
747,-1893,-1,91,-4833,22,-43,-19,17
748,-1892,-1,90,-4835,22,-43,-19,17
749,-1891,-2,90,-4833,22,-43,-19,17
750,-1892,-3,92,-4834,22,-43,-20,17
751,-1892,-2,91,-4836,22,-43,-20,17
752,-1892,-2,91,-4836,22,-44,-20,17
753,-1894,-3,91,-4835,22,-44,-20,17
754,-1894,-3,90,-4834,22,-43,-20,16
755,-1895,-4,90,-4834,22,-44,-20,16
756,-1895,-4,90,-4833,22,-44,-20,17
757,-1895,-4,92,-4832,22,-44,-20,17
758,-1894,-3,92,-4832,22,-44,-20,17
759,-1894,-4,91,-4833,22,-44,-20,16
760,-1893,-3,91,-4832,22,-43,-20,17
761,-1893,-1,92,-4832,22,-44,-20,17
762,-1894,0,93,-4832,22,-44,-20,17
763,-1896,-1,93,-4831,22,-44,-20,17
764,-1895,-1,93,-4832,22,-44,-20,17
765,-1895,-1,93,-4831,22,-44,-20,16
766,-1895,0,93,-4831,22,-44,-20,16
767,-1895,-1,92,-4832,22,-44,-20,16
768,-1895,-2,89,-4829,22,-44,-20,16
769,-1895,-2,89,-4829,22,-44,-20,17
770,-1894,-1,90,-4829,22,-44,-20,16
771,-1895,-2,90,-4831,22,-44,-19,17
772,-1896,-2,92,-4831,22,-44,-20,17
773,-1897,-3,92,-4831,22,-44,-20,17
774,-1896,-3,92,-4831,22,-44,-20,17
775,-1897,-4,91,-4831,22,-44,-20,17
776,-1895,-4,92,-4831,22,-44,-19,17
777,-1895,-4,92,-4829,22,-44,-19,17
778,-1896,-3,90,-4830,22,-44,-20,16
779,-1894,-1,91,-4829,22,-44,-20,16
780,-1894,-2,92,-4828,22,-44,-20,16
781,-1893,-3,91,-4829,22,-44,-20,16
782,-1892,-3,91,-4830,22,-44,-19,17
783,-1893,-3,92,-4831,22,-44,-19,17
784,-1893,-2,93,-4829,22,-44,-19,17
785,-1894,-2,94,-4828,22,-44,-19,17
786,-1893,-2,94,-4829,22,-44,-19,17
787,-1895,-2,94,-4828,22,-44,-19,17
788,-1893,-3,94,-4827,22,-44,-19,17
789,-1893,-3,92,-4827,22,-44,-19,17
790,-1893,-3,93,-4827,22,-44,-19,17
791,-1893,-2,94,-4827,22,-44,-19,17
792,-1895,-2,95,-4827,22,-44,-19,16
793,-1894,-1,96,-4829,22,-44,-19,17
794,-1894,-1,95,-4830,22,-44,-19,17
795,-1893,-2,95,-4829,22,-44,-19,17
796,-1893,-2,96,-4829,22,-44,-19,17
797,-1893,-1,96,-4828,22,-44,-19,17
798,-1893,-1,96,-4828,22,-44,-19,17
799,-1894,0,96,-4828,22,-44,-19,17
800,-1894,-1,95,-4828,22,-44,-19,17
801,-1893,-1,93,-4828,22,-44,-19,17
802,-1893,-2,92,-4828,22,-44,-19,17
803,-1894,-2,92,-4828,22,-44,-19,17
804,-1894,-3,94,-4830,22,-44,-19,17
805,-1894,-3,95,-4829,22,-44,-20,17
806,-1894,-3,95,-4831,22,-44,-19,17
807,-1893,-2,94,-4829,22,-44,-19,17
808,-1895,-2,92,-4828,22,-44,-19,17
809,-1894,-3,92,-4828,22,-44,-19,17
810,-1894,-3,92,-4828,22,-44,-19,17
811,-1894,-4,91,-4828,22,-44,-19,17
812,-1894,-5,92,-4828,22,-44,-19,17
813,-1895,-4,94,-4825,22,-44,-19,17
814,-1893,-3,92,-4825,22,-44,-19,17
815,-1894,-3,93,-4826,22,-44,-20,17
816,-1895,-2,93,-4825,22,-43,-19,17
817,-1894,-1,91,-4825,22,-43,-20,17
818,-1893,-3,91,-4826,22,-43,-20,17
819,-1893,-1,92,-4824,22,-44,-20,16
820,-1894,-2,92,-4824,22,-44,-19,16
821,-1894,-2,93,-4825,22,-43,-19,16
822,-1894,-2,92,-4825,22,-43,-20,17
823,-1893,-3,92,-4825,22,-44,-19,17
824,-1894,-1,92,-4826,22,-44,-19,17
825,-1894,-2,92,-4824,22,-44,-19,17
826,-1894,-2,93,-4826,22,-44,-19,17
827,-1893,-2,92,-4826,22,-44,-19,17
828,-1893,-3,93,-4826,22,-44,-19,17
829,-1893,-2,92,-4827,22,-44,-19,17
830,-1894,-2,93,-4827,22,-44,-19,17
831,-1894,-2,92,-4825,22,-44,-20,17
832,-1894,-2,92,-4825,22,-43,-19,17
833,-1894,-2,92,-4824,22,-44,-19,17
834,-1895,-1,92,-4825,22,-44,-19,17
835,-1896,-1,93,-4825,22,-44,-20,17
836,-1896,-1,92,-4824,22,-44,-20,17
837,-1896,-1,91,-4824,22,-44,-20,17
838,-1896,-1,90,-4823,22,-44,-20,17
839,-1897,-2,91,-4823,22,-44,-20,17
840,-1896,-2,92,-4825,22,-44,-20,17
841,-1895,-2,93,-4824,22,-44,-20,17
842,-1895,-2,91,-4824,22,-44,-20,17
843,-1895,-1,92,-4825,22,-44,-20,17
844,-1894,-2,93,-4826,22,-44,-20,17
845,-1895,-2,92,-4826,22,-44,-20,17
846,-1894,-2,91,-4826,22,-43,-20,17
847,-1894,-3,91,-4827,22,-43,-20,17
848,-1894,-3,88,-4825,22,-43,-20,17
849,-1894,-2,89,-4827,22,-44,-20,17
850,-1895,-1,90,-4827,22,-44,-20,17
851,-1894,-1,92,-4826,22,-43,-19,17
852,-1894,-2,93,-4827,22,-44,-19,17
853,-1894,-2,93,-4826,22,-43,-20,17
854,-1895,-3,93,-4824,22,-44,-19,16
855,-1895,-3,93,-4826,22,-44,-19,16
856,-1896,-2,95,-4827,22,-44,-19,17
857,-1896,-2,93,-4827,22,-44,-20,17
858,-1895,-3,92,-4826,22,-44,-20,17
859,-1894,-3,91,-4824,22,-44,-20,16
860,-1894,-2,91,-4826,22,-44,-20,17
861,-1894,-2,90,-4826,22,-44,-20,17
862,-1894,-1,91,-4827,22,-43,-20,17
863,-1895,-3,90,-4827,22,-44,-19,17
864,-1895,-4,91,-4825,22,-44,-20,17
865,-1895,-4,91,-4825,22,-44,-20,17
866,-1894,-4,92,-4826,22,-44,-20,17
867,-1894,-4,93,-4826,22,-44,-20,17
868,-1893,-4,92,-4825,22,-44,-20,17
869,-1894,-4,91,-4823,22,-44,-20,17
870,-1895,-4,90,-4824,22,-44,-20,16
871,-1895,-4,91,-4823,22,-44,-20,16
872,-1896,-3,92,-4823,22,-44,-20,17
873,-1896,-2,92,-4823,22,-44,-20,17
874,-1896,-3,94,-4823,22,-44,-20,17
875,-1895,-2,94,-4822,22,-44,-20,17
876,-1895,-2,92,-4822,22,-44,-20,16
877,-1895,-1,91,-4823,22,-44,-20,17
878,-1894,-1,90,-4823,22,-44,-20,17
879,-1893,-1,90,-4824,22,-44,-20,17
880,-1894,0,89,-4823,22,-44,-20,17
881,-1895,0,90,-4823,22,-44,-19,17
882,-1894,1,92,-4823,22,-44,-19,17
883,-1895,1,90,-4823,22,-44,-19,17
884,-1895,0,91,-4823,22,-43,-20,17
885,-1893,-1,91,-4823,22,-44,-20,17
886,-1894,-1,92,-4823,22,-44,-20,17
887,-1894,-2,93,-4823,22,-43,-20,17
888,-1894,-1,92,-4824,22,-43,-20,17
889,-1895,-1,92,-4823,22,-43,-20,17
890,-1896,-2,92,-4823,22,-43,-19,16
891,-1895,-1,93,-4824,22,-44,-19,16
892,-1894,-1,92,-4825,22,-44,-19,16
893,-1894,-1,90,-4825,22,-44,-19,17
894,-1893,-1,89,-4825,22,-44,-20,17
895,-1894,-2,86,-4826,22,-44,-20,17
896,-1894,-2,88,-4826,22,-44,-19,17
897,-1894,-2,88,-4825,22,-44,-20,17
898,-1894,-3,89,-4824,22,-44,-19,17
899,-1894,-2,89,-4823,22,-44,-19,17
900,-1895,-1,91,-4823,22,-44,-19,17
901,-1895,0,90,-4822,22,-44,-19,17
902,-1894,-1,89,-4822,22,-43,-19,17
903,-1895,-2,91,-4822,22,-44,-19,17
904,-1895,-1,93,-4823,22,-44,-19,17
905,-1895,-1,95,-4824,22,-43,-20,17
906,-1896,-1,94,-4825,22,-44,-20,17
907,-1896,-1,94,-4824,22,-43,-20,17
908,-1897,-1,94,-4825,22,-43,-20,16
909,-1896,0,92,-4824,22,-44,-20,16
910,-1896,-1,93,-4823,22,-44,-20,16
911,-1895,-1,92,-4822,22,-44,-20,16
912,-1895,-1,92,-4824,22,-44,-20,17
913,-1894,-1,92,-4823,22,-43,-19,17
914,-1893,-1,91,-4825,22,-43,-19,17
915,-1893,-1,93,-4825,22,-43,-19,17
916,-1893,-2,91,-4825,22,-44,-20,17
917,-1893,-1,90,-4825,22,-44,-20,17
918,-1894,-2,90,-4824,22,-44,-20,17
919,-1894,-3,92,-4824,22,-44,-20,17
920,-1894,-2,91,-4821,22,-44,-20,17
921,-1893,-2,93,-4823,22,-44,-20,17
922,-1894,-2,95,-4822,22,-44,-20,17
923,-1894,-3,95,-4822,22,-44,-20,17
924,-1895,-3,95,-4822,22,-44,-20,17
925,-1896,-3,94,-4823,22,-44,-20,17
926,-1894,-3,92,-4824,22,-44,-20,17
927,-1894,-3,92,-4824,22,-44,-20,17
928,-1895,-3,94,-4825,22,-44,-20,16
929,-1895,-3,94,-4824,22,-44,-20,16
930,-1896,-3,94,-4823,22,-44,-19,16
931,-1895,-3,92,-4821,22,-43,-19,16
932,-1895,-3,93,-4822,22,-43,-19,16
933,-1895,-3,93,-4822,22,-43,-19,16
934,-1895,-2,93,-4824,22,-44,-20,17
935,-1895,-1,93,-4825,22,-43,-20,17
936,-1895,-1,92,-4825,22,-44,-20,17
937,-1895,-2,91,-4824,22,-43,-20,17
938,-1894,-2,91,-4826,22,-43,-20,17
939,-1895,-2,92,-4827,22,-44,-19,17
940,-1895,-2,92,-4825,22,-44,-20,17
941,-1895,-3,92,-4826,22,-44,-20,16
942,-1896,-3,94,-4828,22,-44,-19,17
943,-1896,-3,94,-4827,22,-44,-19,17
944,-1897,-3,94,-4827,22,-44,-19,16
945,-1896,-3,94,-4826,22,-44,-19,17
946,-1896,-3,93,-4823,22,-43,-19,17
947,-1895,-4,93,-4821,22,-43,-19,17
948,-1894,-2,94,-4823,22,-43,-20,17
949,-1895,-1,94,-4823,22,-43,-20,17
950,-1894,-2,93,-4821,22,-43,-19,17
951,-1893,-2,95,-4823,22,-44,-19,16
952,-1892,-2,93,-4824,22,-44,-19,16
953,-1893,-2,92,-4823,22,-44,-19,17
954,-1893,-3,92,-4825,22,-44,-19,17
955,-1894,-2,92,-4826,22,-44,-19,17
956,-1893,-1,92,-4826,22,-44,-19,17
957,-1893,0,92,-4825,22,-44,-19,17
958,-1893,0,93,-4823,22,-44,-19,16
959,-1893,0,94,-4824,22,-44,-19,17
960,-1895,1,95,-4823,22,-44,-20,17
961,-1895,1,93,-4822,22,-44,-20,17
962,-1896,1,92,-4825,22,-44,-20,16
963,-1898,1,93,-4825,22,-44,-20,17
964,-1896,1,94,-4825,22,-43,-20,16
965,-1895,0,93,-4825,22,-44,-20,17
966,-1895,-1,92,-4824,22,-43,-20,17
967,-1895,-2,92,-4823,22,-44,-20,17
968,-1894,-2,91,-4822,22,-43,-20,17
969,-1894,-1,92,-4822,22,-43,-20,17
970,-1894,-2,90,-4823,22,-44,-20,17
971,-1893,-2,90,-4824,22,-44,-19,17
972,-1893,-3,90,-4822,22,-43,-19,16
973,-1896,-2,91,-4825,22,-44,-19,16
974,-1895,-2,92,-4825,22,-44,-20,16
975,-1895,-2,92,-4826,22,-43,-19,17
976,-1896,-2,92,-4824,22,-43,-19,17
977,-1896,-2,95,-4821,22,-43,-19,17
978,-1897,-2,95,-4819,22,-44,-19,17
979,-1897,-1,94,-4821,22,-44,-19,17
980,-1898,-2,93,-4821,22,-44,-20,17
981,-1896,0,92,-4823,22,-44,-20,16
982,-1895,0,91,-4823,22,-44,-20,16
983,-1895,-2,92,-4822,22,-44,-20,16
984,-1895,-1,91,-4822,22,-44,-19,16
985,-1896,-2,90,-4823,22,-44,-19,16
986,-1897,-3,91,-4823,22,-44,-19,16
987,-1896,-3,91,-4824,22,-44,-19,16
988,-1895,-3,91,-4823,22,-44,-19,16
989,-1895,-4,94,-4822,22,-44,-19,16
990,-1895,-4,94,-4822,22,-44,-19,17
991,-1895,-3,96,-4823,22,-44,-19,17
992,-1895,-3,94,-4824,22,-44,-19,17
993,-1894,-3,94,-4824,22,-44,-20,17
994,-1894,-4,94,-4823,22,-44,-20,17
995,-1894,-4,93,-4823,22,-44,-20,17
