,acc_X,acc_Y,acc_Z,temp,tempC,gyr_X,gyr_Y,gyr_Z
0,-3788,-2,184,-4629,23,-87,-39,35
1,-3791,-4,188,-4629,23,-87,-38,34
2,-3791,-3,191,-4626,23,-87,-37,34
3,-3793,-3,200,-4630,23,-87,-38,34
4,-3791,-2,198,-4630,23,-88,-38,34
5,-3788,-3,194,-4631,23,-88,-38,34
6,-3790,-4,194,-4628,23,-88,-37,34
7,-3795,-5,187,-4627,23,-88,-38,33
8,-3792,-2,184,-4625,23,-89,-38,33
9,-3789,-7,183,-4626,23,-88,-38,33
10,-3789,-6,191,-4625,23,-88,-38,33
11,-3789,-5,188,-4627,23,-88,-39,34
12,-3787,-3,188,-4630,23,-88,-39,35
13,-3791,-4,185,-4629,23,-89,-38,35
14,-3790,-4,187,-4630,23,-89,-39,35
15,-3790,-1,190,-4629,23,-89,-38,33
16,-3791,0,186,-4627,23,-89,-38,34
17,-3792,-2,186,-4627,23,-89,-38,34
18,-3794,-3,183,-4626,23,-89,-39,34
19,-3794,1,188,-4626,23,-90,-39,34
20,-3793,2,185,-4627,23,-88,-39,34
21,-3798,4,186,-4623,23,-88,-40,35
22,-3795,2,184,-4625,23,-88,-39,35
23,-3793,-2,184,-4625,23,-88,-39,36
24,-3793,-5,186,-4627,23,-87,-37,36
25,-3795,-1,185,-4624,23,-88,-38,35
26,-3796,-3,189,-4627,23,-87,-38,36
27,-3794,-6,193,-4628,23,-89,-39,34
28,-3793,-3,185,-4625,23,-88,-38,34
29,-3793,-2,185,-4628,23,-87,-39,34
30,-3793,-3,192,-4627,23,-88,-39,34
31,-3792,-5,193,-4626,23,-88,-39,34
32,-3787,-8,187,-4623,23,-88,-39,35
33,-3793,-7,188,-4622,23,-88,-38,36
34,-3793,-4,182,-4623,23,-87,-38,36
35,-3787,-5,182,-4623,23,-88,-38,35
36,-3791,2,183,-4624,23,-88,-38,35
37,-3795,-2,183,-4625,23,-88,-38,35
38,-3791,-3,186,-4628,23,-87,-37,35
39,-3791,-4,190,-4627,23,-88,-36,34
40,-3786,-5,190,-4626,23,-89,-38,34
41,-3787,-6,185,-4623,23,-89,-39,35
42,-3791,-3,185,-4624,23,-88,-38,35
43,-3792,-4,188,-4627,23,-88,-38,35
44,-3793,-3,179,-4628,23,-87,-38,36
45,-3791,-1,183,-4627,23,-87,-38,36
46,-3789,-6,189,-4627,23,-87,-39,35
47,-3789,-8,187,-4629,23,-87,-38,34
48,-3788,-8,182,-4630,23,-87,-38,35
49,-3787,-3,182,-4630,23,-87,-38,35
50,-3789,-3,183,-4630,23,-88,-37,35
51,-3786,0,186,-4629,23,-88,-39,35
52,-3785,-3,188,-4630,23,-88,-39,35
53,-3793,-5,191,-4628,23,-88,-38,35
54,-3791,-1,188,-4626,23,-87,-39,35
55,-3789,-5,189,-4624,23,-87,-38,35
56,-3790,-1,184,-4627,23,-88,-39,34
57,-3792,-1,188,-4625,23,-88,-38,35
58,-3793,-1,193,-4629,23,-88,-37,35
59,-3796,0,190,-4629,23,-88,-37,34
60,-3790,-2,191,-4629,23,-89,-37,35
61,-3791,2,196,-4628,23,-88,-37,34
62,-3790,-2,198,-4626,23,-88,-38,34
63,-3791,-1,190,-4627,23,-88,-38,34
64,-3789,-5,196,-4628,23,-88,-38,34
65,-3789,-8,197,-4627,23,-88,-38,34
66,-3788,-8,202,-4629,23,-87,-38,34
67,-3788,-6,199,-4629,23,-88,-38,35
68,-3788,-6,193,-4625,23,-87,-38,34
69,-3787,-4,193,-4627,23,-87,-39,34
70,-3784,-1,192,-4627,23,-87,-38,34
71,-3788,1,194,-4628,23,-87,-37,35
72,-3792,-1,190,-4629,23,-88,-38,36
73,-3792,-2,187,-4629,23,-88,-38,35
74,-3791,0,189,-4628,23,-88,-39,35
75,-3794,-3,191,-4626,23,-87,-40,34
76,-3793,-3,187,-4630,23,-88,-40,36
77,-3787,0,191,-4628,23,-87,-39,35
78,-3788,-2,192,-4628,23,-86,-39,35
79,-3787,0,194,-4631,23,-87,-40,34
80,-3787,4,199,-4630,23,-88,-40,34
81,-3784,2,191,-4628,23,-87,-38,34
82,-3787,2,186,-4628,23,-88,-37,35
83,-3786,1,184,-4627,23,-87,-38,34
84,-3783,0,186,-4629,23,-88,-38,35
85,-3783,1,185,-4630,23,-89,-38,35
86,-3787,-1,188,-4631,23,-87,-38,35
87,-3788,2,182,-4631,23,-87,-38,35
88,-3791,-4,185,-4629,23,-87,-39,35
89,-3789,-4,185,-4626,23,-87,-40,34
90,-3792,-5,184,-4626,23,-87,-39,34
91,-3791,-6,188,-4627,23,-88,-39,34
92,-3792,-5,186,-4628,23,-87,-38,33
93,-3789,-2,183,-4627,23,-87,-39,34
94,-3790,-2,187,-4624,23,-86,-40,35
95,-3791,-2,181,-4627,23,-87,-39,35
96,-3788,-3,184,-4626,23,-87,-39,35
97,-3787,-3,184,-4629,23,-88,-39,34
98,-3787,0,188,-4631,23,-88,-38,34
99,-3786,0,190,-4631,23,-88,-39,35
100,-3788,0,193,-4631,23,-87,-38,35
101,-3785,-4,190,-4630,23,-86,-39,35
102,-3786,-3,185,-4630,23,-87,-39,35
103,-3786,-2,183,-4629,23,-87,-38,35
104,-3790,-2,185,-4630,23,-87,-38,34
105,-3786,0,187,-4630,23,-87,-38,35
106,-3788,-7,184,-4629,23,-87,-38,35
107,-3787,-3,192,-4627,23,-87,-39,34
108,-3788,-1,191,-4627,23,-86,-38,34
109,-3785,1,192,-4630,23,-86,-39,35
110,-3786,-3,186,-4630,23,-88,-39,35
111,-3792,-5,189,-4632,23,-88,-40,35
112,-3791,-5,189,-4629,23,-88,-38,35
113,-3793,-3,184,-4629,23,-88,-38,34
114,-3788,2,186,-4628,23,-88,-38,34
115,-3785,-3,184,-4630,23,-88,-39,34
116,-3788,-1,180,-4626,23,-88,-38,34
117,-3789,-1,185,-4629,23,-88,-38,34
118,-3787,2,190,-4630,23,-88,-38,34
119,-3784,0,190,-4628,23,-88,-39,35
120,-3788,0,188,-4628,23,-87,-40,34
121,-3785,-3,191,-4629,23,-88,-38,34
122,-3785,-2,187,-4628,23,-88,-38,35
123,-3785,-3,187,-4627,23,-89,-38,35
124,-3783,-5,193,-4625,23,-88,-39,34
125,-3788,-2,195,-4624,23,-87,-39,35
126,-3789,-2,193,-4624,23,-87,-39,34
127,-3786,-2,191,-4623,23,-87,-38,35
128,-3788,-4,191,-4628,23,-87,-39,34
129,-3788,-7,195,-4627,23,-87,-38,35
130,-3789,-6,200,-4628,23,-87,-39,36
131,-3784,-5,201,-4628,23,-89,-38,35
132,-3785,-1,193,-4630,23,-89,-38,35
133,-3783,0,193,-4628,23,-89,-39,35
134,-3788,-3,190,-4630,23,-89,-38,35
135,-3791,-6,190,-4627,23,-88,-38,35
136,-3788,-7,187,-4625,23,-88,-38,35
137,-3780,-8,189,-4627,23,-89,-38,34
138,-3782,-8,187,-4628,23,-88,-38,35
139,-3787,-8,186,-4624,23,-88,-37,34
140,-3787,-8,185,-4625,23,-87,-37,34
141,-3785,-10,193,-4627,23,-86,-37,35
142,-3785,-6,191,-4625,23,-86,-38,35
143,-3781,-9,193,-4623,23,-86,-37,35
144,-3785,-7,194,-4624,23,-88,-38,36
145,-3789,-6,188,-4622,23,-87,-39,37
146,-3790,-5,189,-4624,23,-87,-38,36
147,-3791,-2,188,-4624,23,-87,-39,36
148,-3789,-1,192,-4626,23,-86,-40,34
149,-3792,-4,189,-4627,23,-87,-39,35
150,-3794,-3,185,-4630,23,-87,-38,35
151,-3785,-3,183,-4628,23,-88,-38,34
152,-3788,-1,189,-4627,23,-88,-38,34
153,-3789,4,185,-4628,23,-87,-39,34
154,-3790,-1,181,-4628,23,-87,-39,34
155,-3792,-2,186,-4628,23,-88,-38,34
156,-3796,2,186,-4626,23,-87,-38,33
157,-3794,0,186,-4628,23,-88,-38,35
158,-3791,-5,182,-4628,23,-87,-39,34
159,-3791,-7,183,-4629,23,-88,-39,34
160,-3793,-6,183,-4631,23,-88,-39,34
161,-3793,-4,186,-4630,23,-87,-38,34
162,-3793,-5,196,-4633,23,-87,-37,34
163,-3793,-2,192,-4628,23,-87,-38,36
164,-3789,-1,190,-4626,23,-87,-39,35
165,-3787,-2,190,-4627,23,-88,-38,35
166,-3784,-4,187,-4629,23,-88,-40,34
167,-3789,-3,192,-4628,23,-88,-39,34
168,-3788,-2,193,-4631,23,-88,-38,34
169,-3790,-1,195,-4628,23,-88,-38,34
170,-3787,-5,198,-4628,23,-87,-39,35
171,-3788,-3,202,-4628,23,-86,-37,35
172,-3791,0,199,-4627,23,-87,-38,34
173,-3788,2,194,-4626,23,-88,-37,35
174,-3788,-1,189,-4628,23,-88,-38,36
175,-3789,-1,183,-4629,23,-87,-38,35
176,-3787,5,185,-4628,23,-89,-39,36
177,-3786,0,187,-4628,23,-87,-38,35
178,-3788,-5,186,-4629,23,-87,-38,35
179,-3785,-10,183,-4630,23,-88,-39,35
180,-3787,-6,185,-4628,23,-87,-38,35
181,-3786,-2,184,-4627,23,-88,-39,35
182,-3789,0,186,-4628,23,-87,-39,34
183,-3790,-2,182,-4629,23,-87,-38,34
184,-3788,3,182,-4626,23,-88,-38,34
185,-3788,-2,186,-4624,23,-87,-38,35
186,-3788,-5,186,-4625,23,-87,-37,35
187,-3786,-8,186,-4624,23,-88,-37,35
188,-3783,-6,186,-4628,23,-88,-38,36
189,-3786,-4,193,-4628,23,-89,-39,35
190,-3787,-6,194,-4629,23,-89,-39,34
191,-3790,-8,193,-4628,23,-89,-39,33
192,-3791,-5,191,-4628,23,-88,-39,34
193,-3791,-7,193,-4629,23,-88,-38,34
194,-3789,-2,186,-4630,23,-88,-38,34
195,-3789,-2,188,-4629,23,-88,-38,33
196,-3791,0,194,-4629,23,-88,-39,35
197,-3788,-4,192,-4627,23,-89,-39,35
198,-3788,-5,187,-4625,23,-87,-38,36
199,-3789,-4,191,-4623,23,-87,-39,35
200,-3791,-5,192,-4622,23,-88,-38,34
201,-3789,-1,194,-4623,23,-87,-39,33
202,-3790,-3,194,-4622,23,-87,-38,33
203,-3791,-7,191,-4624,23,-88,-39,34
204,-3793,-8,186,-4624,23,-88,-39,35
205,-3793,-6,182,-4627,23,-87,-39,34
206,-3792,-7,182,-4624,23,-87,-38,34
207,-3793,-7,187,-4625,23,-88,-38,34
208,-3792,-5,188,-4624,23,-87,-38,34
209,-3792,-5,188,-4627,23,-88,-38,35
210,-3790,-2,189,-4624,23,-89,-38,34
211,-3788,-4,189,-4626,23,-88,-38,34
212,-3791,-1,194,-4627,23,-88,-38,35
213,-3791,1,202,-4629,23,-87,-37,35
214,-3789,-4,197,-4628,23,-87,-39,35
215,-3786,-2,190,-4628,23,-87,-40,34
216,-3789,-4,183,-4629,23,-88,-40,34
217,-3787,-7,186,-4626,23,-87,-38,35
218,-3785,-8,184,-4626,23,-87,-38,35
219,-3786,-7,184,-4626,23,-87,-39,35
220,-3787,-8,187,-4626,23,-87,-39,37
221,-3788,-3,187,-4626,23,-89,-39,36
222,-3786,-1,190,-4628,23,-87,-38,35
223,-3785,-5,190,-4624,23,-87,-38,35
224,-3785,-4,191,-4629,23,-88,-39,35
225,-3785,-3,191,-4629,23,-88,-38,35
226,-3786,-5,184,-4627,23,-88,-38,34
227,-3785,-8,185,-4629,23,-88,-38,34
228,-3786,-4,186,-4629,23,-88,-39,35
229,-3785,-3,179,-4634,23,-88,-38,35
230,-3786,0,177,-4630,23,-88,-38,35
231,-3788,1,185,-4631,23,-87,-38,35
232,-3790,-3,184,-4629,23,-88,-39,35
233,-3790,-2,191,-4629,23,-89,-39,35
234,-3789,1,187,-4630,23,-88,-39,35
235,-3795,4,185,-4628,23,-88,-39,33
236,-3798,1,187,-4628,23,-88,-38,34
237,-3797,1,186,-4626,23,-87,-38,34
238,-3792,3,184,-4625,23,-87,-39,34
239,-3791,-3,187,-4624,23,-87,-39,34
240,-3795,0,183,-4624,23,-87,-39,35
241,-3794,-1,176,-4624,23,-87,-38,35
242,-3790,-5,181,-4625,23,-88,-38,34
243,-3792,-6,179,-4627,23,-88,-38,35
244,-3792,-6,184,-4628,23,-88,-39,35
245,-3789,-4,184,-4629,23,-87,-38,35
246,-3791,-4,184,-4626,23,-87,-37,36
247,-3788,-6,185,-4628,23,-87,-38,34
248,-3787,-7,183,-4626,23,-87,-39,34
249,-3787,-6,187,-4624,23,-87,-39,35
250,-3785,-6,186,-4627,23,-86,-39,34
251,-3788,-2,190,-4625,23,-87,-39,34
252,-3789,0,188,-4628,23,-87,-39,34
253,-3789,-3,177,-4627,23,-86,-38,34
254,-3783,0,185,-4627,23,-88,-38,34
255,-3784,4,188,-4629,23,-88,-39,34
256,-3786,1,186,-4629,23,-88,-39,35
257,-3788,-3,186,-4628,23,-87,-39,35
258,-3783,0,181,-4632,23,-88,-40,35
259,-3787,0,182,-4628,23,-87,-39,34
260,-3788,-3,189,-4625,23,-88,-40,35
261,-3790,-6,194,-4627,23,-87,-40,36
262,-3793,-8,192,-4623,23,-87,-40,35
263,-3791,-9,190,-4622,23,-87,-40,35
264,-3791,-5,189,-4624,23,-87,-39,36
265,-3794,-5,190,-4626,23,-88,-40,36
266,-3794,-3,195,-4626,23,-88,-39,35
267,-3793,-4,193,-4626,23,-89,-39,34
268,-3789,-6,191,-4625,23,-88,-39,34
269,-3789,-10,190,-4623,23,-88,-38,34
270,-3787,-9,193,-4623,23,-88,-37,34
271,-3786,-7,202,-4623,23,-88,-37,34
272,-3787,-9,198,-4625,23,-87,-38,34
273,-3791,-7,200,-4624,23,-87,-38,35
274,-3793,-1,197,-4625,23,-87,-38,35
275,-3791,-3,190,-4627,23,-87,-38,34
276,-3792,0,187,-4627,23,-87,-39,35
277,-3793,-4,187,-4626,23,-88,-39,35
278,-3790,-4,187,-4628,23,-88,-39,35
279,-3790,-5,188,-4627,23,-89,-39,35
280,-3791,-3,189,-4628,23,-87,-38,36
281,-3788,-3,190,-4626,23,-88,-39,36
282,-3787,1,194,-4631,23,-88,-39,35
283,-3787,1,187,-4632,23,-87,-39,35
284,-3792,2,186,-4633,23,-87,-37,34
285,-3790,3,189,-4631,23,-87,-36,35
286,-3791,5,181,-4632,23,-87,-37,34
287,-3792,-1,182,-4633,23,-86,-38,34
288,-3789,-7,192,-4632,23,-87,-37,34
289,-3794,-6,189,-4633,23,-88,-38,34
290,-3790,-8,189,-4629,23,-87,-39,35
291,-3792,-5,188,-4629,23,-87,-38,35
292,-3791,-2,188,-4628,23,-87,-38,35
293,-3788,-1,191,-4630,23,-87,-39,35
294,-3789,-2,188,-4631,23,-87,-39,35
295,-3786,-4,187,-4630,23,-87,-38,35
296,-3782,-7,188,-4630,23,-88,-39,34
297,-3784,-8,186,-4628,23,-88,-39,35
298,-3786,-7,188,-4629,23,-87,-39,34
299,-3788,-8,188,-4626,23,-87,-40,35
300,-3786,-1,191,-4626,23,-88,-39,34
301,-3789,4,190,-4629,23,-88,-39,35
302,-3788,5,180,-4628,23,-88,-38,35
303,-3789,0,178,-4626,23,-89,-38,34
304,-3787,1,180,-4626,23,-88,-37,34
305,-3788,-1,183,-4626,23,-87,-38,35
306,-3783,-1,187,-4626,23,-87,-39,35
307,-3783,3,188,-4628,23,-87,-39,35
308,-3789,0,187,-4627,23,-87,-39,35
309,-3790,-2,192,-4628,23,-86,-39,35
310,-3790,-6,191,-4628,23,-87,-39,36
311,-3789,-2,191,-4624,23,-87,-38,35
312,-3787,-4,191,-4623,23,-87,-39,35
313,-3789,-6,190,-4625,23,-88,-39,36
314,-3792,-5,189,-4625,23,-88,-39,36
315,-3794,-1,192,-4627,23,-87,-39,36
316,-3794,-3,194,-4629,23,-87,-39,37
317,-3795,-2,189,-4629,23,-87,-39,36
318,-3791,-9,183,-4628,23,-87,-37,35
319,-3789,-8,185,-4626,23,-88,-38,35
320,-3790,-8,186,-4625,23,-87,-38,35
321,-3788,-6,185,-4625,23,-88,-37,35
322,-3788,-7,187,-4626,23,-88,-38,35
323,-3786,-9,194,-4620,23,-88,-38,35
324,-3786,-1,191,-4626,23,-87,-38,35
325,-3783,-1,186,-4625,23,-87,-38,34
326,-3784,-4,187,-4625,23,-88,-38,35
327,-3791,-2,189,-4625,23,-88,-38,36
328,-3790,-5,187,-4630,23,-88,-38,35
329,-3793,-2,187,-4630,23,-87,-39,35
330,-3787,-3,184,-4627,23,-86,-38,35
331,-3788,-3,179,-4626,23,-87,-38,35
332,-3785,-1,188,-4629,23,-88,-38,35
333,-3783,-5,185,-4628,23,-88,-39,34
334,-3788,-6,185,-4628,23,-88,-39,34
335,-3784,-1,182,-4629,23,-88,-38,34
336,-3783,-3,184,-4629,23,-88,-38,34
337,-3781,-2,191,-4629,23,-87,-39,33
338,-3786,2,187,-4626,23,-87,-38,36
339,-3788,6,185,-4624,23,-87,-39,36
340,-3790,5,182,-4622,23,-87,-38,36
341,-3788,-1,187,-4624,23,-87,-38,35
342,-3787,-2,185,-4624,23,-86,-38,35
343,-3789,1,189,-4628,23,-87,-39,34
344,-3785,-2,191,-4628,23,-87,-38,35
345,-3785,-3,186,-4626,23,-86,-38,34
346,-3785,-2,187,-4627,23,-86,-39,35
347,-3789,-2,191,-4627,23,-85,-38,35
348,-3787,-8,191,-4626,23,-87,-38,35
349,-3787,-7,187,-4628,23,-87,-38,35
350,-3788,-3,191,-4629,23,-88,-39,34
351,-3784,-7,188,-4627,23,-88,-38,35
352,-3786,-10,193,-4626,23,-89,-38,35
353,-3784,-8,193,-4622,23,-88,-37,34
354,-3784,-7,187,-4625,23,-89,-37,35
355,-3787,-5,189,-4626,23,-89,-38,35
356,-3789,-3,187,-4624,23,-88,-39,34
357,-3786,0,182,-4624,23,-88,-39,35
358,-3787,-1,190,-4626,23,-87,-39,35
359,-3783,4,190,-4630,23,-87,-39,35
360,-3785,3,190,-4628,23,-88,-39,34
361,-3786,0,191,-4628,23,-88,-38,34
362,-3790,-2,193,-4630,23,-88,-38,34
363,-3789,0,190,-4629,23,-89,-38,34
364,-3790,-2,192,-4632,23,-88,-38,35
365,-3792,0,190,-4634,23,-87,-39,35
366,-3794,-2,193,-4630,23,-88,-39,35
367,-3790,-5,188,-4629,23,-88,-39,35
368,-3791,-1,190,-4630,23,-88,-38,35
369,-3793,-1,190,-4629,23,-88,-39,35
370,-3790,-1,188,-4629,23,-88,-39,35
371,-3787,0,187,-4628,23,-88,-39,35
372,-3791,3,187,-4625,23,-88,-39,35
373,-3788,2,185,-4624,23,-88,-39,36
374,-3785,-2,184,-4626,23,-87,-38,35
375,-3786,-1,182,-4628,23,-87,-38,35
376,-3791,-5,180,-4629,23,-88,-38,36
377,-3790,-3,182,-4629,23,-88,-39,35
378,-3790,-2,185,-4629,23,-88,-38,34
379,-3787,0,189,-4626,23,-88,-38,35
380,-3788,-3,182,-4625,23,-88,-38,35
381,-3786,0,192,-4623,23,-88,-38,35
382,-3786,-1,187,-4624,23,-88,-38,35
383,-3790,2,193,-4623,23,-88,-38,35
384,-3790,1,187,-4626,23,-88,-38,35
385,-3792,0,185,-4625,23,-88,-38,35
386,-3790,2,184,-4628,23,-88,-38,35
387,-3790,-5,186,-4628,23,-87,-37,34
388,-3791,-8,186,-4631,23,-87,-39,35
389,-3792,-7,197,-4628,23,-87,-39,35
390,-3791,-3,197,-4625,23,-87,-39,35
391,-3790,-6,194,-4624,23,-87,-39,36
392,-3787,-1,191,-4625,23,-87,-39,37
393,-3791,1,193,-4626,23,-87,-39,36
394,-3789,4,194,-4628,23,-88,-38,36
395,-3789,3,183,-4626,23,-87,-38,35
396,-3786,2,191,-4623,23,-87,-38,34
397,-3784,-3,194,-4624,23,-86,-39,35
398,-3786,-4,191,-4625,23,-86,-38,35
399,-3785,-4,192,-4624,23,-87,-38,34
400,-3789,-4,192,-4624,23,-88,-38,34
401,-3789,-3,189,-4627,23,-88,-39,34
402,-3789,-6,185,-4625,23,-88,-40,34
403,-3787,-2,185,-4625,23,-87,-39,34
404,-3791,-1,190,-4625,23,-87,-39,34
405,-3791,-2,191,-4622,23,-88,-39,34
406,-3791,-3,190,-4623,23,-88,-39,35
407,-3790,-4,182,-4624,23,-88,-39,35
408,-3790,-6,184,-4621,23,-86,-38,36
409,-3790,4,183,-4623,23,-86,-38,35
410,-3789,2,186,-4622,23,-86,-38,35
411,-3790,1,187,-4620,23,-87,-37,35
412,-3789,-2,183,-4624,23,-87,-39,35
413,-3788,-2,182,-4624,23,-86,-38,35
414,-3788,-1,190,-4623,23,-87,-38,35
415,-3792,-2,186,-4622,23,-88,-38,35
416,-3787,-2,192,-4622,23,-87,-38,35
417,-3787,1,196,-4619,23,-86,-39,35
418,-3782,-3,190,-4620,23,-88,-39,36
419,-3784,0,189,-4620,23,-88,-39,35
420,-3784,-2,191,-4623,23,-87,-38,34
421,-3785,1,191,-4620,23,-87,-38,34
422,-3786,3,189,-4621,23,-88,-38,34
423,-3788,4,184,-4621,23,-88,-38,35
424,-3791,4,186,-4622,23,-87,-38,36
425,-3791,-1,182,-4624,23,-88,-37,36
426,-3792,-4,176,-4624,23,-87,-37,36
427,-3795,-5,181,-4624,23,-88,-38,35
428,-3791,-2,183,-4625,23,-89,-38,36
429,-3794,-1,181,-4624,23,-88,-38,35
430,-3792,-1,181,-4625,23,-87,-38,35
431,-3794,0,179,-4623,23,-87,-39,35
432,-3795,-5,185,-4624,23,-88,-39,35
433,-3788,-7,186,-4628,23,-87,-39,35
434,-3788,-7,189,-4630,23,-87,-39,35
435,-3789,-5,185,-4631,23,-87,-38,35
436,-3795,-4,185,-4629,23,-87,-38,36
437,-3792,-4,185,-4625,23,-86,-38,34
438,-3787,-4,188,-4624,23,-87,-38,34
439,-3785,-4,183,-4622,23,-88,-38,34
440,-3786,-6,184,-4623,23,-88,-39,35
441,-3789,-8,186,-4623,23,-88,-40,35
442,-3788,-3,187,-4626,23,-88,-39,36
443,-3788,-3,184,-4625,23,-88,-40,35
444,-3789,-6,196,-4625,23,-87,-38,35
445,-3788,-2,191,-4623,23,-88,-38,35
446,-3787,0,195,-4623,23,-88,-37,35
447,-3786,0,193,-4623,23,-88,-38,35
448,-3786,-6,193,-4620,23,-87,-38,35
449,-3783,-4,196,-4620,23,-87,-37,34
450,-3783,-1,190,-4622,23,-87,-38,34
451,-3786,0,183,-4622,23,-88,-38,34
452,-3788,-2,183,-4623,23,-87,-41,35
453,-3792,-2,178,-4624,23,-87,-39,35
454,-3790,-5,181,-4621,23,-86,-39,35
455,-3788,-3,185,-4619,23,-86,-39,35
456,-3788,-4,185,-4620,23,-88,-39,35
457,-3788,-4,185,-4621,23,-86,-39,35
458,-3787,-4,185,-4625,23,-87,-38,35
459,-3792,-4,190,-4625,23,-87,-39,35
460,-3788,-1,187,-4622,23,-88,-39,35
461,-3789,1,188,-4626,23,-88,-38,34
462,-3789,4,186,-4626,23,-88,-39,35
463,-3789,1,188,-4629,23,-87,-39,34
464,-3789,1,186,-4624,23,-87,-39,34
465,-3792,5,186,-4622,23,-88,-39,33
466,-3796,0,184,-4622,23,-87,-39,34
467,-3791,-2,188,-4625,23,-88,-39,35
468,-3786,-2,190,-4626,23,-88,-39,35
469,-3784,-4,194,-4622,23,-88,-38,34
470,-3788,-4,191,-4623,23,-87,-38,35
471,-3783,1,188,-4624,23,-87,-37,35
472,-3782,3,181,-4623,23,-88,-38,34
473,-3781,1,177,-4622,23,-88,-38,34
474,-3784,1,183,-4620,23,-89,-39,33
475,-3791,-1,180,-4620,23,-88,-39,33
476,-3791,-3,178,-4622,23,-88,-39,34
477,-3789,-1,182,-4621,23,-88,-39,35
478,-3782,-5,182,-4622,23,-87,-38,35
479,-3783,-2,186,-4624,23,-86,-38,34
480,-3786,-1,191,-4619,23,-88,-38,35
481,-3782,-3,187,-4620,23,-88,-39,34
482,-3786,-2,185,-4620,23,-88,-39,35
483,-3787,3,190,-4620,23,-88,-39,34
484,-3791,0,191,-4621,23,-87,-38,35
485,-3789,-1,193,-4618,23,-87,-39,35
486,-3791,-1,192,-4618,23,-87,-39,34
487,-3791,-4,188,-4620,23,-86,-38,35
488,-3790,0,183,-4622,23,-88,-38,35
489,-3793,-5,182,-4621,23,-88,-38,34
490,-3790,-1,185,-4619,23,-87,-38,34
491,-3787,-4,186,-4624,23,-87,-38,35
492,-3786,-2,192,-4623,23,-88,-38,34
493,-3792,-2,191,-4624,23,-88,-38,34
494,-3793,-3,188,-4623,23,-87,-38,35
495,-3789,-1,193,-4620,23,-87,-39,35
496,-3789,-1,189,-4622,23,-87,-39,36
497,-3790,0,186,-4623,23,-87,-39,35
498,-3790,-4,186,-4623,23,-88,-40,34
499,-3788,-3,189,-4623,23,-88,-39,34
500,-3790,-4,188,-4624,23,-88,-39,34
501,-3792,-5,186,-4621,23,-88,-39,34
502,-3788,-7,184,-4622,23,-88,-38,35
503,-3787,-6,193,-4619,23,-87,-38,35
504,-3789,-7,196,-4620,23,-88,-39,35
505,-3785,-2,195,-4620,23,-89,-40,35
506,-3782,0,191,-4623,23,-88,-39,35
507,-3787,-1,190,-4623,23,-88,-39,36
508,-3786,-2,188,-4621,23,-88,-39,36
509,-3786,-2,190,-4622,23,-88,-40,35
510,-3787,-2,189,-4622,23,-87,-39,34
511,-3790,1,193,-4621,23,-88,-40,35
512,-3791,0,197,-4622,23,-87,-39,35
513,-3790,-3,193,-4620,23,-87,-38,35
514,-3788,-6,196,-4620,23,-87,-38,35
515,-3789,-4,196,-4621,23,-88,-38,35
516,-3790,-8,196,-4621,23,-87,-38,35
517,-3789,-11,190,-4622,23,-87,-38,36
518,-3791,-7,202,-4620,23,-86,-37,36
519,-3786,-2,194,-4623,23,-86,-39,36
520,-3790,-1,191,-4625,23,-86,-39,36
521,-3786,3,192,-4622,23,-86,-39,35
522,-3793,2,193,-4621,23,-87,-39,34
523,-3789,-2,196,-4622,23,-87,-39,34
524,-3790,0,196,-4621,23,-88,-39,35
525,-3787,4,187,-4623,23,-88,-38,34
526,-3788,1,190,-4625,23,-87,-38,33
527,-3788,-2,191,-4623,23,-86,-38,34
528,-3782,-2,187,-4624,23,-86,-39,35
529,-3789,2,195,-4626,23,-87,-39,34
530,-3786,-1,195,-4624,23,-87,-38,34
531,-3788,-2,202,-4625,23,-88,-39,35
532,-3790,-5,194,-4620,23,-87,-39,35
533,-3789,-7,189,-4622,23,-87,-39,35
534,-3793,-5,187,-4622,23,-85,-39,35
535,-3793,-2,190,-4624,23,-87,-39,34
536,-3789,-2,193,-4626,23,-87,-39,35
537,-3792,-6,189,-4621,23,-87,-38,34
538,-3788,-6,182,-4623,23,-88,-38,35
539,-3787,-6,186,-4624,23,-87,-38,34
540,-3792,-6,186,-4625,23,-88,-38,35
541,-3790,-7,191,-4625,23,-88,-37,35
542,-3790,-3,186,-4622,23,-87,-37,35
543,-3790,-2,187,-4621,23,-88,-38,34
544,-3788,-2,187,-4627,23,-88,-39,34
545,-3785,-6,184,-4627,23,-88,-38,34
546,-3788,-2,190,-4628,23,-88,-38,34
547,-3790,-4,184,-4625,23,-89,-38,35
548,-3791,-3,183,-4625,23,-89,-38,35
549,-3795,-6,185,-4623,23,-88,-38,34
550,-3795,0,191,-4623,23,-88,-39,35
551,-3794,4,190,-4624,23,-87,-40,35
552,-3792,-1,196,-4622,23,-87,-41,35
553,-3789,-1,196,-4622,23,-88,-40,36
554,-3785,5,191,-4623,23,-88,-40,36
555,-3787,2,194,-4625,23,-88,-40,35
556,-3789,-3,188,-4625,23,-87,-39,35
557,-3790,-3,185,-4624,23,-88,-38,35
558,-3790,-6,190,-4624,23,-87,-39,34
559,-3789,-6,194,-4627,23,-87,-39,35
560,-3789,-5,191,-4625,23,-88,-39,34
561,-3791,-3,192,-4623,23,-87,-39,34
562,-3790,-1,200,-4627,23,-87,-39,34
563,-3790,-3,197,-4626,23,-87,-39,35
564,-3788,0,192,-4624,23,-88,-40,36
565,-3782,0,185,-4624,23,-86,-38,35
566,-3790,-1,185,-4622,23,-87,-38,35
567,-3792,-8,183,-4623,23,-87,-38,35
568,-3791,-6,179,-4621,23,-87,-38,36
569,-3792,1,185,-4620,23,-86,-38,35
570,-3789,-2,190,-4625,23,-87,-38,36
571,-3788,2,185,-4623,23,-87,-39,35
572,-3787,0,183,-4619,23,-86,-40,34
573,-3786,1,181,-4621,23,-87,-40,35
574,-3786,3,181,-4621,23,-87,-41,34
575,-3785,6,184,-4623,23,-87,-40,35
576,-3788,6,192,-4627,23,-86,-39,35
577,-3786,-1,185,-4626,23,-86,-39,35
578,-3785,-3,189,-4624,23,-88,-39,36
579,-3787,-1,187,-4624,23,-87,-38,36
580,-3788,1,185,-4623,23,-88,-39,36
581,-3791,1,188,-4623,23,-88,-39,36
582,-3790,-2,188,-4623,23,-86,-39,36
583,-3788,-2,185,-4621,23,-87,-40,35
584,-3791,-4,191,-4621,23,-86,-39,35
585,-3789,0,188,-4621,23,-86,-40,35
586,-3788,-6,190,-4623,23,-87,-39,36
587,-3791,-4,192,-4623,23,-87,-39,35
588,-3790,-5,201,-4623,23,-88,-39,35
589,-3791,-3,193,-4625,23,-87,-38,35
590,-3793,-7,189,-4625,23,-87,-38,36
591,-3789,-6,179,-4623,23,-87,-37,36
592,-3791,-3,185,-4623,23,-87,-38,36
593,-3790,-6,183,-4624,23,-87,-39,36
594,-3792,-3,182,-4625,23,-88,-40,36
595,-3791,-3,187,-4627,23,-88,-38,36
596,-3793,-6,193,-4629,23,-86,-39,36
597,-3787,-8,195,-4627,23,-87,-39,36
598,-3788,-5,196,-4628,23,-88,-38,36
599,-3784,-3,192,-4626,23,-87,-38,36
600,-3786,-4,195,-4626,23,-87,-37,34
601,-3789,0,190,-4623,23,-87,-37,35
602,-3788,-5,192,-4627,23,-89,-39,35
603,-3789,-4,189,-4628,23,-89,-39,34
604,-3789,-7,189,-4628,23,-89,-39,35
605,-3791,-3,188,-4625,23,-88,-40,34
606,-3787,-4,197,-4624,23,-87,-39,33
607,-3787,-5,187,-4626,23,-88,-40,34
608,-3789,-3,190,-4626,23,-89,-40,34
609,-3792,-7,189,-4625,23,-88,-38,34
610,-3790,-4,190,-4622,23,-88,-39,35
611,-3790,-4,188,-4621,23,-88,-38,35
612,-3794,-3,195,-4623,23,-87,-38,35
613,-3793,-5,195,-4622,23,-87,-39,35
614,-3791,-3,192,-4624,23,-87,-39,34
615,-3792,-2,191,-4623,23,-88,-38,34
616,-3796,-1,190,-4622,23,-87,-38,34
617,-3795,-5,195,-4621,23,-87,-38,34
618,-3793,-5,193,-4620,23,-87,-40,34
619,-3792,-3,188,-4623,23,-87,-39,34
620,-3793,-5,189,-4622,23,-88,-39,35
621,-3795,-7,187,-4621,23,-87,-39,34
622,-3794,-3,182,-4623,23,-86,-39,34
623,-3792,-5,185,-4621,23,-87,-40,34
624,-3793,-2,185,-4619,23,-88,-39,34
625,-3793,0,187,-4620,23,-88,-39,34
626,-3796,3,187,-4622,23,-87,-39,35
627,-3790,0,192,-4621,23,-87,-39,36
628,-3785,-1,199,-4624,23,-89,-38,35
629,-3783,4,200,-4622,23,-89,-40,35
630,-3782,3,195,-4619,23,-89,-39,34
631,-3784,1,193,-4626,23,-89,-39,34
632,-3787,-4,194,-4624,23,-89,-39,34
633,-3789,-6,192,-4620,23,-89,-38,35
634,-3792,-4,187,-4620,23,-88,-38,35
635,-3791,-3,184,-4621,23,-88,-39,34
636,-3786,-3,186,-4622,23,-87,-39,34
637,-3787,-6,188,-4625,23,-88,-38,33
638,-3790,-2,186,-4627,23,-87,-39,34
639,-3789,-2,185,-4626,23,-87,-38,34
640,-3790,-4,190,-4624,23,-88,-39,35
641,-3793,0,188,-4625,23,-89,-39,35
642,-3793,0,187,-4626,23,-89,-38,35
643,-3791,-1,182,-4622,23,-89,-39,36
644,-3791,-2,191,-4618,23,-89,-38,36
645,-3790,-2,191,-4620,23,-88,-38,37
646,-3791,-5,192,-4621,23,-88,-38,35
647,-3789,-3,186,-4621,23,-88,-39,35
648,-3787,1,184,-4618,23,-87,-39,35
649,-3785,-2,189,-4619,23,-87,-39,35
650,-3785,-4,187,-4618,23,-88,-39,34
651,-3784,-5,187,-4620,23,-89,-39,34
652,-3788,2,186,-4620,23,-89,-38,35
653,-3792,-1,188,-4620,23,-89,-40,35
654,-3788,-3,196,-4617,23,-87,-39,34
655,-3789,-3,194,-4619,23,-86,-38,34
656,-3792,-4,194,-4617,23,-88,-39,35
657,-3794,-6,187,-4617,23,-88,-39,35
658,-3790,-4,190,-4618,23,-87,-39,34
659,-3791,1,189,-4617,23,-88,-38,34
660,-3788,-2,188,-4614,23,-88,-38,34
661,-3788,-5,188,-4611,23,-88,-38,34
662,-3788,-5,190,-4613,23,-88,-40,34
663,-3785,-5,191,-4616,23,-87,-39,34
664,-3781,-3,192,-4618,23,-87,-39,34
665,-3784,-2,198,-4620,23,-88,-39,34
666,-3784,-3,187,-4617,23,-88,-38,34
667,-3788,-7,191,-4617,23,-88,-38,34
668,-3793,-5,194,-4619,23,-87,-38,33
669,-3792,-1,188,-4621,23,-88,-38,34
670,-3790,-2,188,-4620,23,-88,-38,35
671,-3788,-1,191,-4619,23,-88,-38,35
672,-3789,-3,190,-4619,23,-89,-38,35
673,-3788,-6,188,-4620,23,-88,-39,35
674,-3788,-6,188,-4620,23,-87,-39,35
675,-3787,-1,185,-4622,23,-88,-39,34
676,-3787,0,189,-4623,23,-87,-40,34
677,-3790,-1,187,-4621,23,-87,-39,34
678,-3786,-2,184,-4625,23,-88,-38,33
679,-3786,-1,179,-4624,23,-88,-38,34
680,-3790,-5,183,-4625,23,-86,-39,35
681,-3792,2,180,-4624,23,-87,-39,35
682,-3794,2,178,-4624,23,-87,-39,35
683,-3787,2,185,-4624,23,-86,-40,34
684,-3787,-2,187,-4627,23,-86,-39,34
685,-3788,0,192,-4624,23,-88,-39,35
686,-3790,4,197,-4620,23,-88,-39,35
687,-3790,-3,194,-4617,23,-87,-40,34
688,-3792,-1,194,-4618,23,-88,-38,34
689,-3791,-1,195,-4618,23,-89,-39,34
690,-3789,-2,192,-4618,23,-88,-40,34
691,-3791,-2,189,-4619,23,-88,-41,34
692,-3792,-5,183,-4619,23,-88,-41,35
693,-3790,-5,184,-4623,23,-88,-39,35
694,-3789,-3,187,-4626,23,-87,-39,35
695,-3785,2,186,-4625,23,-88,-38,35
696,-3787,-4,186,-4621,23,-89,-38,35
697,-3786,-2,189,-4621,23,-88,-39,35
698,-3788,-5,195,-4623,23,-89,-38,35
699,-3784,-1,198,-4621,23,-89,-38,35
700,-3787,-7,195,-4622,23,-89,-38,35
701,-3787,-7,196,-4624,23,-89,-38,34
702,-3789,-7,189,-4624,23,-87,-39,35
703,-3787,-4,189,-4624,23,-88,-39,35
704,-3786,-5,188,-4623,23,-89,-39,34
705,-3788,-5,185,-4624,23,-88,-39,34
706,-3785,-8,196,-4623,23,-87,-39,35
707,-3787,-4,188,-4623,23,-88,-39,35
708,-3786,-3,186,-4620,23,-88,-40,34
709,-3785,-2,192,-4619,23,-87,-40,34
710,-3787,-1,187,-4619,23,-88,-39,34
711,-3788,-3,185,-4618,23,-88,-38,34
712,-3790,1,180,-4617,23,-89,-38,35
713,-3791,-2,183,-4618,23,-88,-39,35
714,-3793,-3,188,-4620,23,-88,-39,35
715,-3795,-4,185,-4621,23,-88,-39,36
716,-3793,-7,190,-4621,23,-87,-39,35
717,-3791,-5,186,-4623,23,-87,-39,35
718,-3792,-4,186,-4621,23,-87,-39,35
719,-3792,-2,184,-4621,23,-87,-39,35
720,-3791,-2,187,-4619,23,-87,-39,34
721,-3793,-2,192,-4620,23,-88,-39,34
722,-3791,-4,191,-4620,23,-87,-39,33
723,-3794,-7,187,-4618,23,-88,-39,34
724,-3795,-7,193,-4621,23,-87,-40,35
725,-3792,-3,192,-4622,23,-88,-39,35
726,-3792,1,196,-4625,23,-88,-39,34
727,-3792,1,193,-4622,23,-89,-39,33
728,-3785,-1,184,-4623,23,-87,-40,34
729,-3788,-2,184,-4622,23,-86,-39,34
730,-3788,-5,189,-4622,23,-87,-38,35
731,-3790,-1,189,-4620,23,-88,-38,36
732,-3789,-2,187,-4621,23,-88,-38,35
733,-3791,0,188,-4619,23,-87,-38,35
734,-3787,0,186,-4618,23,-87,-38,35
735,-3790,-6,189,-4617,23,-86,-38,35
736,-3790,-6,194,-4617,23,-87,-38,34
737,-3789,-9,190,-4615,23,-86,-38,34
738,-3791,-5,193,-4615,23,-85,-39,34
739,-3790,-4,188,-4617,23,-86,-39,34
740,-3792,-4,183,-4617,23,-86,-39,35
741,-3791,-7,191,-4615,23,-86,-39,35
742,-3790,-9,193,-4615,23,-86,-39,34
743,-3785,-2,184,-4616,23,-86,-39,35
744,-3789,-1,187,-4614,23,-87,-39,34
745,-3794,2,183,-4613,23,-86,-38,34
746,-3793,-1,189,-4617,23,-85,-39,35
747,-3790,1,187,-4614,23,-87,-39,34
748,-3792,0,183,-4613,23,-86,-38,33
749,-3792,3,189,-4619,23,-86,-38,35
750,-3790,0,189,-4619,23,-87,-38,35
751,-3788,1,189,-4620,23,-87,-38,36
752,-3787,-2,188,-4620,23,-87,-38,34
753,-3787,-3,185,-4620,23,-88,-38,35
754,-3789,-4,185,-4616,23,-88,-39,34
755,-3786,-3,187,-4619,23,-87,-39,35
756,-3787,-2,191,-4619,23,-87,-40,35
757,-3790,-3,189,-4622,23,-87,-39,34
758,-3791,-5,185,-4620,23,-86,-39,34
759,-3794,-5,182,-4622,23,-87,-38,34
760,-3789,-5,181,-4619,23,-88,-39,34
761,-3791,-5,184,-4621,23,-88,-40,35
762,-3789,-5,182,-4618,23,-89,-40,35
763,-3788,-4,186,-4617,23,-88,-39,35
764,-3787,-3,190,-4617,23,-88,-39,36
765,-3787,-1,189,-4619,23,-88,-39,35
766,-3789,0,186,-4619,23,-87,-39,35
767,-3788,2,191,-4621,23,-87,-40,35
768,-3790,2,193,-4621,23,-88,-40,35
769,-3788,2,193,-4620,23,-87,-39,35
770,-3789,-1,187,-4618,23,-88,-40,36
771,-3789,-1,189,-4618,23,-89,-39,36
772,-3790,-3,193,-4622,23,-88,-40,36
773,-3785,-2,198,-4620,23,-88,-40,36
774,-3781,-4,192,-4620,23,-87,-40,36
775,-3784,-8,184,-4620,23,-88,-39,35
776,-3784,-7,186,-4623,23,-89,-38,35
777,-3785,-7,182,-4619,23,-88,-40,34
778,-3786,-1,189,-4619,23,-88,-39,35
779,-3786,3,179,-4622,23,-88,-39,34
780,-3787,2,183,-4621,23,-87,-39,35
781,-3786,0,190,-4623,23,-87,-39,35
782,-3790,-4,184,-4619,23,-87,-39,34
783,-3794,-2,190,-4622,23,-87,-38,35
784,-3792,0,184,-4621,23,-87,-38,36
785,-3793,0,187,-4622,23,-88,-38,36
786,-3793,-1,186,-4621,23,-87,-39,34
787,-3789,-5,183,-4622,23,-87,-40,34
788,-3786,-2,186,-4621,23,-87,-39,33
789,-3790,0,184,-4620,23,-88,-39,34
790,-3790,-5,182,-4620,23,-88,-38,35
791,-3791,-2,187,-4622,23,-87,-38,35
792,-3794,-5,193,-4623,23,-88,-38,35
793,-3795,-2,196,-4624,23,-87,-39,34
794,-3794,1,191,-4621,23,-88,-39,34
795,-3790,0,188,-4622,23,-88,-39,34
796,-3785,4,188,-4619,23,-87,-40,33
797,-3785,4,193,-4621,23,-87,-40,35
798,-3790,3,190,-4621,23,-88,-40,34
799,-3793,-2,189,-4620,23,-87,-39,34
800,-3789,-5,187,-4619,23,-87,-39,34
801,-3790,-3,191,-4620,23,-87,-39,34
802,-3790,-6,188,-4618,23,-86,-39,33
803,-3790,4,194,-4622,23,-88,-39,35
804,-3788,3,188,-4620,23,-87,-38,35
805,-3787,-3,185,-4620,23,-87,-37,34
806,-3783,-4,177,-4623,23,-87,-38,34
807,-3785,-2,182,-4623,23,-86,-38,34
808,-3786,-2,186,-4623,23,-87,-39,34
809,-3785,-6,189,-4623,23,-88,-39,35
810,-3788,-4,189,-4625,23,-87,-38,35
811,-3788,-2,193,-4624,23,-88,-38,35
812,-3790,-3,194,-4619,23,-87,-38,35
813,-3793,-4,192,-4618,23,-87,-39,35
814,-3791,1,195,-4619,23,-87,-38,36
815,-3789,-4,190,-4619,23,-86,-40,36
816,-3787,-4,188,-4623,23,-87,-40,35
817,-3789,-2,189,-4620,23,-86,-40,34
818,-3788,-1,185,-4621,23,-86,-39,34
819,-3789,-6,180,-4625,23,-87,-39,35
820,-3786,-4,184,-4620,23,-87,-39,34
821,-3782,-7,189,-4619,23,-86,-38,35
822,-3788,-1,194,-4621,23,-86,-39,35
823,-3789,-1,189,-4619,23,-86,-38,35
824,-3790,1,183,-4617,23,-87,-39,35
825,-3789,-1,184,-4622,23,-88,-38,35
826,-3791,1,181,-4622,23,-87,-40,35
827,-3788,-3,179,-4620,23,-87,-39,35
828,-3787,-1,185,-4620,23,-87,-39,35
829,-3789,-1,192,-4621,23,-88,-37,35
830,-3788,-2,192,-4623,23,-88,-38,35
831,-3788,1,191,-4624,23,-88,-37,35
832,-3784,3,191,-4623,23,-87,-37,34
833,-3789,-2,194,-4625,23,-87,-38,34
834,-3790,-3,197,-4623,23,-87,-37,35
835,-3791,-5,191,-4622,23,-87,-39,36
836,-3792,-3,190,-4622,23,-88,-39,35
837,-3787,1,191,-4620,23,-88,-39,34
838,-3785,0,189,-4622,23,-88,-38,35
839,-3790,0,186,-4625,23,-88,-39,35
840,-3790,-6,184,-4624,23,-88,-37,35
841,-3792,-2,180,-4623,23,-87,-38,35
842,-3792,1,181,-4621,23,-87,-39,35
843,-3795,1,188,-4621,23,-87,-40,34
844,-3794,-3,188,-4620,23,-87,-39,34
845,-3789,-4,190,-4623,23,-88,-39,36
846,-3786,-2,195,-4621,23,-88,-40,35
847,-3784,-2,190,-4621,23,-88,-40,35
848,-3784,-1,195,-4622,23,-87,-40,34
849,-3784,-3,190,-4620,23,-87,-39,34
850,-3786,-2,193,-4622,23,-87,-40,34
851,-3789,-5,190,-4622,23,-87,-40,34
852,-3787,-6,187,-4624,23,-87,-39,35
853,-3785,-9,185,-4624,23,-87,-39,35
854,-3788,-8,181,-4624,23,-87,-39,35
855,-3788,-6,180,-4625,23,-87,-39,35
856,-3788,-4,187,-4627,23,-88,-38,35
857,-3788,-1,186,-4625,23,-88,-40,34
858,-3789,-2,186,-4623,23,-88,-40,35
859,-3786,-3,185,-4622,23,-88,-40,35
860,-3783,-3,183,-4626,23,-88,-39,34
861,-3785,0,186,-4625,23,-87,-38,34
862,-3789,-1,183,-4620,23,-88,-39,34
863,-3787,-2,183,-4618,23,-87,-39,35
864,-3784,-1,185,-4617,23,-87,-39,34
865,-3785,-3,186,-4616,23,-87,-39,34
866,-3789,-4,184,-4615,23,-87,-38,34
867,-3785,-3,187,-4617,23,-87,-39,34
868,-3789,-4,187,-4615,23,-87,-39,34
869,-3790,-4,189,-4619,23,-88,-38,33
870,-3794,1,193,-4618,23,-88,-38,33
871,-3793,-1,185,-4618,23,-88,-39,34
872,-3792,-3,189,-4615,23,-87,-39,35
873,-3792,-1,191,-4618,23,-87,-39,35
874,-3788,1,187,-4616,23,-87,-39,34
875,-3787,0,182,-4614,23,-87,-38,34
876,-3788,1,183,-4614,23,-87,-39,34
877,-3790,0,190,-4616,23,-87,-37,35
878,-3789,4,189,-4615,23,-87,-38,35
879,-3787,0,186,-4617,23,-88,-38,34
880,-3791,1,184,-4619,23,-90,-38,34
881,-3787,3,180,-4619,23,-89,-38,34
882,-3786,-3,181,-4618,23,-88,-39,34
883,-3788,-3,178,-4622,23,-88,-39,35
884,-3790,-1,186,-4625,23,-87,-40,35
885,-3789,0,190,-4623,23,-87,-38,34
886,-3791,-1,194,-4618,23,-87,-38,33
887,-3790,1,195,-4618,23,-88,-39,33
888,-3793,3,193,-4619,23,-86,-38,34
889,-3796,1,189,-4621,23,-87,-38,34
890,-3792,-2,191,-4621,23,-88,-37,34
891,-3792,5,192,-4617,23,-88,-39,34
892,-3791,3,196,-4620,23,-89,-39,35
893,-3786,-1,189,-4621,23,-88,-38,34
894,-3785,-2,188,-4619,23,-88,-39,34
895,-3786,0,184,-4618,23,-88,-38,35
896,-3785,1,188,-4616,23,-87,-38,35
897,-3787,1,194,-4621,23,-87,-38,34
898,-3787,2,192,-4619,23,-87,-38,34
899,-3789,2,185,-4620,23,-88,-39,33
900,-3789,-2,190,-4617,23,-88,-40,33
901,-3793,0,186,-4619,23,-88,-40,34
902,-3792,-2,187,-4622,23,-88,-40,35
903,-3787,-4,187,-4621,23,-88,-40,35
904,-3791,-5,184,-4617,23,-88,-39,34
905,-3791,-1,185,-4615,23,-87,-38,36
906,-3787,-6,184,-4616,23,-87,-38,35
907,-3787,-5,181,-4615,23,-88,-37,36
908,-3790,-2,182,-4616,23,-88,-38,35
909,-3789,-1,181,-4618,23,-88,-38,35
910,-3791,-3,186,-4618,23,-87,-39,34
911,-3791,-5,192,-4620,23,-87,-38,34
912,-3795,-4,189,-4619,23,-86,-38,34
913,-3798,-4,189,-4618,23,-86,-39,35
914,-3793,-5,188,-4618,23,-87,-40,36
915,-3790,-2,188,-4615,23,-87,-40,35
916,-3783,-3,192,-4614,23,-88,-38,34
917,-3789,-6,192,-4618,23,-89,-38,34
918,-3790,-5,190,-4619,23,-88,-39,35
919,-3790,-5,188,-4621,23,-88,-38,35
920,-3793,-4,184,-4621,23,-87,-39,35
921,-3794,-2,186,-4622,23,-88,-39,34
922,-3791,-7,184,-4621,23,-88,-39,34
923,-3790,-3,185,-4620,23,-87,-40,35
924,-3789,-1,187,-4621,23,-88,-38,34
925,-3789,-2,187,-4621,23,-88,-38,34
926,-3790,-1,189,-4620,23,-88,-39,35
927,-3790,0,192,-4617,23,-88,-39,35
928,-3795,-3,197,-4619,23,-87,-38,34
929,-3798,-4,195,-4619,23,-86,-39,35
930,-3793,-2,190,-4619,23,-86,-39,35
931,-3791,-4,191,-4618,23,-87,-39,34
932,-3791,-2,188,-4616,23,-87,-38,35
933,-3792,-2,188,-4616,23,-88,-38,35
934,-3786,-1,187,-4615,23,-87,-39,35
935,-3785,0,189,-4619,23,-87,-38,35
936,-3785,2,191,-4616,23,-87,-39,35
937,-3784,2,196,-4615,23,-87,-39,35
938,-3786,-2,196,-4613,23,-88,-39,36
939,-3785,-5,193,-4615,23,-87,-39,35
940,-3783,-2,194,-4614,23,-87,-38,35
941,-3787,-1,195,-4614,23,-88,-38,35
942,-3786,-2,193,-4616,23,-88,-39,36
943,-3788,-3,191,-4614,23,-88,-39,36
944,-3789,-5,185,-4617,23,-89,-39,35
945,-3788,-2,184,-4616,23,-88,-40,35
946,-3790,-3,181,-4617,23,-87,-40,35
947,-3798,-3,187,-4619,23,-88,-39,36
948,-3795,-4,185,-4617,23,-88,-39,35
949,-3792,-4,191,-4617,23,-88,-38,35
950,-3792,-5,194,-4617,23,-88,-39,35
951,-3791,-6,186,-4616,23,-88,-39,36
952,-3786,-5,183,-4616,23,-87,-39,36
953,-3790,-5,183,-4620,23,-88,-39,35
954,-3791,2,189,-4614,23,-87,-39,36
955,-3787,1,185,-4613,23,-87,-39,35
956,-3786,0,188,-4615,23,-87,-39,35
957,-3785,-6,188,-4617,23,-87,-38,36
958,-3785,-5,193,-4618,23,-87,-38,35
959,-3784,-1,187,-4620,23,-87,-38,35
960,-3790,4,191,-4620,23,-87,-37,33
961,-3787,3,192,-4618,23,-87,-37,34
962,-3793,2,187,-4617,23,-87,-38,35
963,-3794,-5,188,-4618,23,-87,-39,35
964,-3794,-3,192,-4618,23,-87,-38,35
965,-3792,-5,192,-4616,23,-87,-39,35
966,-3792,-4,194,-4614,23,-88,-39,35
967,-3795,-2,188,-4613,23,-88,-39,35
968,-3796,0,196,-4617,23,-88,-39,35
969,-3792,-6,197,-4618,23,-88,-39,35
970,-3789,-2,186,-4620,23,-88,-38,35
971,-3790,-4,189,-4620,23,-87,-38,35
972,-3787,-5,183,-4620,23,-86,-39,35
973,-3787,-4,186,-4622,23,-87,-39,35
974,-3783,-4,191,-4620,23,-86,-39,35
975,-3787,0,191,-4619,23,-87,-39,35
976,-3790,0,190,-4620,23,-87,-40,35
977,-3790,-1,193,-4623,23,-87,-40,34
978,-3790,-8,192,-4624,23,-87,-40,35
979,-3785,-6,190,-4625,23,-86,-39,35
980,-3785,-2,191,-4623,23,-86,-39,35
981,-3788,-3,191,-4621,23,-87,-38,35
982,-3788,-2,190,-4620,23,-88,-38,35
983,-3789,0,191,-4618,23,-88,-39,35
984,-3789,-2,198,-4620,23,-88,-39,34
985,-3788,2,196,-4620,23,-88,-38,35
986,-3786,0,186,-4620,23,-88,-38,34
987,-3791,-3,187,-4620,23,-89,-38,34
988,-3791,-1,188,-4618,23,-88,-39,34
989,-3791,-3,186,-4618,23,-88,-38,34
990,-3791,-2,187,-4621,23,-88,-38,35
991,-3788,-5,182,-4618,23,-88,-38,34
992,-3789,-8,178,-4620,23,-88,-38,35
993,-3788,-5,191,-4621,23,-88,-38,35
994,-3788,-7,191,-4623,23,-88,-38,34
995,-3785,-4,190,-4622,23,-89,-38,34
996,-3782,0,189,-4621,23,-87,-38,34
997,-3784,0,191,-4621,23,-89,-38,35
998,-3786,-2,198,-4619,23,-88,-37,35
