,acc_X,acc_Y,acc_Z,temp,tempC,gyr_X,gyr_Y,gyr_Z
0,-7586,0,381,-4613,23,-345,-158,144
1,-7583,1,372,-4615,23,-347,-158,145
2,-7577,-9,363,-4616,23,-347,-150,140
3,-7580,-8,364,-4617,23,-351,-153,140
4,-7590,-12,369,-4615,23,-351,-157,143
5,-7583,-11,359,-4616,23,-349,-154,140
6,-7574,-15,360,-4615,23,-351,-153,141
7,-7577,-10,381,-4616,23,-345,-152,138
8,-7573,-10,377,-4618,23,-346,-152,139
9,-7576,-11,377,-4618,23,-350,-148,138
10,-7586,-11,382,-4617,23,-346,-152,141
11,-7574,0,393,-4615,23,-347,-155,142
12,-7571,-2,387,-4617,23,-346,-154,141
13,-7564,-9,374,-4616,23,-347,-156,143
14,-7572,-10,372,-4616,23,-347,-152,143
15,-7573,-15,375,-4613,23,-350,-157,139
16,-7570,-10,376,-4611,23,-348,-158,140
17,-7569,-1,373,-4611,23,-346,-159,145
18,-7572,0,374,-4614,23,-349,-156,142
19,-7578,-8,380,-4612,23,-350,-156,141
20,-7575,-8,385,-4613,23,-347,-155,140
21,-7578,-14,376,-4614,23,-347,-152,141
22,-7572,-16,371,-4615,23,-347,-154,143
23,-7574,-9,380,-4614,23,-351,-156,142
24,-7578,-7,379,-4613,23,-355,-152,144
25,-7584,-2,379,-4613,23,-356,-155,143
26,-7586,-10,380,-4613,23,-352,-156,141
27,-7584,-2,380,-4615,23,-349,-155,141
28,-7576,-7,377,-4615,23,-348,-152,140
29,-7578,-17,375,-4616,23,-351,-150,137
30,-7571,-19,383,-4616,23,-354,-151,142
31,-7578,-3,387,-4614,23,-353,-155,148
32,-7567,-4,382,-4614,23,-355,-154,144
33,-7571,-10,379,-4614,23,-356,-154,141
34,-7571,-4,375,-4615,23,-354,-152,143
35,-7571,-10,370,-4615,23,-349,-157,140
36,-7568,-12,378,-4613,23,-348,-153,138
37,-7565,-11,373,-4612,23,-347,-146,138
38,-7566,-8,375,-4612,23,-351,-145,137
39,-7575,-7,364,-4612,23,-351,-152,137
40,-7573,4,376,-4612,23,-350,-153,141
41,-7586,-11,383,-4611,23,-351,-153,141
42,-7588,-8,388,-4612,23,-352,-153,140
43,-7588,0,386,-4613,23,-355,-150,140
44,-7583,-9,376,-4613,23,-346,-150,139
45,-7577,-7,378,-4615,23,-347,-150,134
46,-7585,-15,363,-4610,23,-347,-149,137
47,-7584,-16,376,-4613,23,-346,-152,135
48,-7571,-7,372,-4615,23,-348,-151,138
49,-7577,-6,372,-4614,23,-347,-154,136
50,-7576,-1,363,-4613,23,-347,-149,134
51,-7578,0,368,-4610,23,-349,-150,133
52,-7576,-3,366,-4608,23,-349,-152,136
53,-7575,-1,374,-4608,23,-351,-153,137
54,-7575,-2,379,-4610,23,-352,-151,138
55,-7580,1,378,-4612,23,-346,-156,141
56,-7587,2,379,-4613,23,-347,-152,142
57,-7585,7,388,-4612,23,-345,-153,142
58,-7581,-7,391,-4610,23,-343,-152,140
59,-7584,-12,390,-4609,23,-348,-156,135
60,-7583,-8,388,-4612,23,-349,-156,138
61,-7577,-5,376,-4609,23,-349,-148,137
62,-7577,-3,377,-4611,23,-350,-151,139
63,-7585,-8,379,-4609,23,-349,-152,141
64,-7584,-9,373,-4610,23,-347,-151,138
65,-7573,-8,375,-4609,23,-348,-150,142
66,-7580,-13,373,-4609,23,-348,-151,141
67,-7584,-7,368,-4610,23,-350,-151,139
68,-7572,-12,377,-4613,23,-349,-150,139
69,-7578,-4,375,-4614,23,-352,-152,140
70,-7590,-5,387,-4614,23,-350,-152,137
71,-7579,-6,389,-4614,23,-349,-156,137
72,-7581,-10,400,-4614,23,-347,-153,139
73,-7584,-13,386,-4614,23,-350,-154,137
74,-7585,-22,384,-4614,23,-350,-150,139
75,-7579,-15,393,-4612,23,-346,-152,139
76,-7582,-13,391,-4614,23,-342,-156,140
77,-7571,-13,373,-4615,23,-344,-156,144
78,-7572,-10,367,-4617,23,-343,-156,140
79,-7571,-7,375,-4614,23,-348,-151,137
80,-7578,-3,387,-4612,23,-348,-155,137
81,-7578,-3,389,-4612,23,-347,-153,137
82,-7577,-7,365,-4612,23,-347,-151,139
83,-7569,-5,358,-4613,23,-343,-151,139
84,-7575,-12,362,-4616,23,-343,-157,140
85,-7579,-11,374,-4612,23,-351,-155,139
86,-7585,5,369,-4611,23,-352,-159,139
87,-7579,-5,358,-4611,23,-348,-160,139
88,-7577,-9,376,-4609,23,-346,-162,140
89,-7582,-4,381,-4608,23,-347,-158,139
90,-7581,-2,380,-4611,23,-344,-154,139
91,-7575,-2,374,-4612,23,-341,-154,137
92,-7583,-9,385,-4609,23,-347,-150,137
93,-7586,-4,393,-4612,23,-347,-151,138
94,-7580,-2,390,-4613,23,-343,-153,137
95,-7571,-3,380,-4613,23,-342,-153,140
96,-7573,-12,380,-4610,23,-345,-155,142
97,-7574,-2,388,-4612,23,-347,-154,141
98,-7566,-8,383,-4613,23,-348,-151,140
99,-7577,-14,370,-4613,23,-349,-153,140
100,-7568,-15,371,-4609,23,-345,-151,138
101,-7576,-9,378,-4610,23,-347,-148,139
102,-7581,2,374,-4611,23,-344,-148,139
103,-7593,-7,379,-4614,23,-349,-152,141
104,-7590,-6,366,-4612,23,-349,-150,142
105,-7580,-14,378,-4615,23,-348,-148,143
106,-7582,-16,371,-4613,23,-345,-148,142
107,-7574,-16,376,-4612,23,-350,-148,142
108,-7577,-13,377,-4611,23,-349,-150,140
109,-7578,-10,369,-4615,23,-350,-148,140
110,-7576,-9,366,-4614,23,-351,-148,139
111,-7581,-8,361,-4612,23,-348,-146,137
112,-7582,-4,359,-4613,23,-347,-147,140
113,-7573,-7,364,-4611,23,-348,-151,140
114,-7570,-11,358,-4611,23,-347,-155,139
115,-7570,-16,368,-4611,23,-350,-151,138
116,-7571,-9,376,-4609,23,-343,-150,139
117,-7568,-9,374,-4610,23,-345,-149,143
118,-7569,0,375,-4610,23,-347,-150,140
119,-7574,2,372,-4611,23,-345,-150,140
120,-7575,-7,375,-4610,23,-347,-152,141
121,-7570,-3,382,-4609,23,-349,-151,142
122,-7573,-8,377,-4609,23,-347,-153,137
123,-7575,-7,365,-4611,23,-348,-152,136
124,-7583,-14,360,-4609,23,-353,-151,138
125,-7577,-17,372,-4607,23,-351,-151,137
126,-7578,-14,364,-4609,23,-351,-151,137
127,-7580,-2,371,-4612,23,-353,-153,138
128,-7573,-2,363,-4613,23,-354,-157,135
129,-7575,-6,367,-4610,23,-350,-153,141
130,-7579,0,367,-4613,23,-348,-152,142
131,-7575,1,367,-4609,23,-348,-150,146
132,-7581,0,376,-4610,23,-352,-150,146
133,-7573,-2,375,-4612,23,-354,-146,144
134,-7578,2,374,-4610,23,-349,-152,140
135,-7580,-3,375,-4610,23,-350,-156,140
136,-7581,-5,374,-4611,23,-350,-157,141
137,-7577,-11,365,-4611,23,-350,-158,140
138,-7578,-23,371,-4612,23,-346,-155,140
139,-7584,-13,370,-4610,23,-345,-150,141
140,-7584,-16,383,-4614,23,-345,-152,142
141,-7586,-28,364,-4612,23,-343,-150,141
142,-7579,-15,375,-4614,23,-341,-147,138
143,-7577,-3,376,-4609,23,-343,-151,137
144,-7578,-8,377,-4610,23,-341,-150,140
145,-7580,-14,389,-4609,23,-343,-152,142
146,-7571,-15,381,-4612,23,-346,-152,144
147,-7568,-17,387,-4611,23,-348,-153,142
148,-7577,-5,381,-4608,23,-350,-152,139
149,-7582,-13,377,-4608,23,-354,-155,142
150,-7576,-13,381,-4609,23,-348,-157,143
151,-7578,-9,375,-4607,23,-343,-157,140
152,-7587,-3,387,-4609,23,-346,-158,142
153,-7584,-10,394,-4606,23,-349,-157,141
154,-7580,-7,393,-4606,23,-349,-156,137
155,-7574,-1,384,-4609,23,-349,-158,139
156,-7578,-5,374,-4610,23,-352,-156,135
157,-7570,-16,367,-4608,23,-348,-157,137
158,-7570,-7,369,-4608,23,-347,-158,138
159,-7585,-5,374,-4606,23,-351,-158,139
160,-7582,-7,372,-4607,23,-350,-156,138
161,-7585,0,371,-4608,23,-350,-154,137
162,-7583,2,368,-4607,23,-347,-155,142
163,-7584,-8,371,-4611,23,-346,-151,141
164,-7581,-3,374,-4613,23,-345,-152,143
165,-7574,-4,372,-4608,23,-346,-153,145
166,-7572,-15,376,-4610,23,-351,-152,143
167,-7576,-12,380,-4610,23,-349,-148,145
168,-7586,-14,394,-4606,23,-350,-146,145
169,-7584,-16,392,-4608,23,-350,-151,147
170,-7578,-6,386,-4607,23,-348,-150,145
171,-7580,0,381,-4610,23,-351,-152,142
172,-7578,-3,377,-4609,23,-351,-152,138
173,-7574,-8,379,-4610,23,-350,-154,135
174,-7576,-10,384,-4611,23,-345,-152,142
175,-7579,-8,380,-4612,23,-345,-145,140
176,-7586,-9,381,-4611,23,-346,-147,141
177,-7584,-8,391,-4611,23,-348,-154,144
178,-7592,-7,387,-4610,23,-350,-156,144
179,-7589,-8,401,-4609,23,-352,-153,145
180,-7580,-10,389,-4611,23,-352,-151,147
181,-7584,-12,374,-4612,23,-350,-150,144
182,-7578,-4,379,-4614,23,-348,-153,142
183,-7574,5,380,-4612,23,-350,-152,142
184,-7575,3,383,-4611,23,-351,-151,142
185,-7571,-4,379,-4608,23,-349,-155,141
186,-7570,-13,379,-4610,23,-348,-157,139
187,-7560,-18,381,-4613,23,-346,-154,142
188,-7567,-24,378,-4610,23,-348,-155,143
189,-7567,-17,379,-4607,23,-346,-154,140
190,-7577,-11,374,-4609,23,-348,-152,141
191,-7571,-9,374,-4608,23,-351,-157,140
192,-7571,-2,388,-4607,23,-346,-151,144
193,-7576,1,373,-4608,23,-352,-150,141
194,-7573,-3,358,-4607,23,-349,-154,142
195,-7574,-6,366,-4603,23,-351,-153,140
196,-7567,-4,370,-4606,23,-346,-150,142
197,-7580,-4,371,-4610,23,-345,-146,140
198,-7578,-7,373,-4614,23,-348,-149,141
199,-7583,-4,375,-4610,23,-348,-152,139
200,-7589,-10,371,-4611,23,-348,-154,135
201,-7587,-16,371,-4611,23,-351,-154,135
202,-7586,-4,378,-4612,23,-345,-150,135
203,-7581,-7,368,-4611,23,-345,-151,141
204,-7578,-6,376,-4609,23,-346,-151,137
205,-7585,-3,390,-4607,23,-345,-148,138
206,-7587,-5,389,-4607,23,-347,-146,134
207,-7580,-5,387,-4609,23,-347,-153,137
208,-7571,-12,376,-4608,23,-346,-152,138
209,-7574,-7,366,-4607,23,-349,-155,142
210,-7577,-2,368,-4609,23,-346,-156,139
211,-7574,-7,363,-4606,23,-347,-155,138
212,-7574,-16,366,-4607,23,-346,-155,139
213,-7577,-9,368,-4609,23,-349,-157,138
214,-7579,-9,373,-4605,23,-346,-152,140
215,-7581,-8,376,-4608,23,-349,-156,143
216,-7571,-14,378,-4611,23,-352,-154,142
217,-7577,-2,382,-4610,23,-347,-156,141
218,-7572,-14,379,-4609,23,-348,-157,139
219,-7574,-13,387,-4609,23,-349,-152,139
220,-7576,-8,383,-4610,23,-349,-150,137
221,-7587,-6,387,-4607,23,-349,-154,139
222,-7582,2,383,-4607,23,-351,-151,138
223,-7576,-6,377,-4609,23,-350,-154,140
224,-7580,-2,381,-4609,23,-347,-153,141
225,-7570,-11,383,-4606,23,-349,-151,139
226,-7573,-6,371,-4606,23,-348,-153,139
227,-7576,2,360,-4605,23,-348,-151,141
228,-7588,3,368,-4607,23,-348,-155,142
229,-7591,0,390,-4608,23,-351,-154,137
230,-7588,2,387,-4607,23,-354,-153,139
231,-7587,-6,380,-4608,23,-352,-155,141
232,-7582,2,380,-4607,23,-351,-154,141
233,-7587,-1,374,-4607,23,-351,-154,145
234,-7590,-2,384,-4609,23,-352,-150,142
235,-7584,-7,374,-4609,23,-352,-150,141
236,-7587,-3,383,-4606,23,-350,-153,140
237,-7587,-8,388,-4606,23,-347,-159,142
238,-7585,-2,387,-4610,23,-346,-164,141
239,-7584,0,395,-4610,23,-344,-162,142
240,-7580,0,393,-4609,23,-343,-155,137
241,-7576,-5,398,-4613,23,-346,-156,139
242,-7569,-16,399,-4612,23,-352,-150,139
243,-7573,-5,376,-4612,23,-351,-151,139
244,-7576,-8,367,-4610,23,-351,-152,138
245,-7576,-4,367,-4609,23,-352,-150,135
246,-7586,-3,367,-4607,23,-352,-152,135
247,-7577,-17,379,-4607,23,-351,-154,136
248,-7584,-9,363,-4609,23,-346,-154,137
249,-7585,-5,366,-4609,23,-347,-157,138
250,-7578,-2,380,-4610,23,-348,-155,139
251,-7584,-8,367,-4608,23,-350,-155,138
252,-7571,-9,365,-4604,23,-348,-155,139
253,-7573,-13,364,-4599,23,-349,-157,139
254,-7578,-16,361,-4602,23,-349,-159,138
255,-7579,-17,383,-4607,23,-345,-157,136
256,-7575,-21,377,-4608,23,-344,-151,137
257,-7583,-11,379,-4610,23,-350,-155,136
258,-7585,-19,381,-4610,23,-349,-155,138
259,-7577,-7,377,-4609,23,-347,-152,134
260,-7578,-6,386,-4607,23,-350,-154,136
261,-7578,-8,389,-4606,23,-347,-154,135
262,-7574,-12,387,-4603,23,-345,-154,138
263,-7579,-13,396,-4606,23,-344,-150,139
264,-7581,-3,386,-4608,23,-345,-148,137
265,-7575,-6,370,-4608,23,-342,-147,137
266,-7570,-10,366,-4610,23,-342,-149,140
267,-7567,-13,376,-4605,23,-345,-153,144
268,-7564,-3,375,-4607,23,-347,-153,140
269,-7574,-10,376,-4605,23,-346,-153,141
270,-7575,-16,371,-4608,23,-345,-155,141
271,-7567,-18,359,-4604,23,-347,-152,138
272,-7574,-14,365,-4602,23,-347,-156,140
273,-7576,-10,375,-4604,23,-349,-159,139
274,-7578,-10,373,-4606,23,-348,-151,140
275,-7586,-11,374,-4606,23,-347,-154,139
276,-7575,-6,382,-4607,23,-350,-153,139
277,-7582,-3,399,-4608,23,-347,-152,143
278,-7569,-3,388,-4608,23,-347,-157,142
279,-7573,-3,370,-4608,23,-353,-158,141
280,-7575,-6,378,-4609,23,-351,-162,139
281,-7577,-8,389,-4611,23,-346,-154,137
282,-7573,-1,381,-4610,23,-348,-150,140
283,-7572,-4,383,-4610,23,-351,-151,142
284,-7566,-10,376,-4605,23,-349,-156,141
285,-7573,-3,378,-4606,23,-352,-161,140
286,-7582,0,380,-4609,23,-352,-161,139
287,-7582,0,374,-4607,23,-348,-160,141
288,-7578,-4,383,-4606,23,-349,-161,139
289,-7579,-6,386,-4606,23,-348,-157,140
290,-7578,-11,377,-4605,23,-346,-153,140
291,-7573,-12,383,-4606,23,-348,-155,139
292,-7574,-7,393,-4609,23,-346,-153,141
293,-7575,-9,401,-4604,23,-348,-152,140
294,-7575,-10,407,-4605,23,-347,-156,140
295,-7578,-5,399,-4605,23,-348,-159,141
296,-7585,-12,402,-4611,23,-344,-158,141
297,-7583,-3,403,-4607,23,-345,-153,140
298,-7574,-8,394,-4608,23,-345,-156,138
299,-7573,-4,384,-4613,23,-344,-157,136
300,-7588,12,381,-4609,23,-347,-155,143
301,-7587,3,386,-4606,23,-344,-154,141
302,-7590,6,391,-4605,23,-346,-155,137
303,-7587,4,383,-4603,23,-346,-153,137
304,-7585,2,363,-4603,23,-347,-154,141
305,-7583,-9,366,-4604,23,-348,-151,142
306,-7581,-8,372,-4606,23,-348,-148,141
307,-7582,-8,366,-4609,23,-347,-153,140
308,-7580,-2,358,-4608,23,-349,-154,141
309,-7578,-2,363,-4610,23,-348,-154,140
310,-7580,-3,368,-4611,23,-352,-155,137
311,-7573,3,375,-4610,23,-355,-154,139
312,-7585,2,378,-4607,23,-351,-152,138
313,-7581,2,376,-4604,23,-347,-155,135
314,-7588,0,381,-4606,23,-347,-157,134
315,-7590,-4,389,-4608,23,-348,-155,138
316,-7587,-2,384,-4608,23,-343,-155,143
317,-7581,-1,371,-4607,23,-344,-157,139
318,-7577,-4,369,-4606,23,-343,-152,144
319,-7579,-10,383,-4605,23,-351,-152,140
320,-7583,-15,391,-4603,23,-350,-155,145
321,-7594,-10,395,-4606,23,-346,-156,144
322,-7586,-3,389,-4608,23,-347,-154,136
323,-7581,1,391,-4605,23,-348,-155,136
324,-7576,5,394,-4606,23,-351,-156,138
325,-7577,4,384,-4607,23,-349,-157,137
326,-7573,0,392,-4609,23,-346,-154,139
327,-7576,1,377,-4611,23,-344,-152,136
328,-7579,-4,386,-4609,23,-343,-151,136
329,-7585,-4,370,-4608,23,-345,-152,137
330,-7571,-7,363,-4608,23,-347,-154,139
331,-7575,0,364,-4607,23,-349,-148,138
332,-7575,-13,368,-4607,23,-350,-149,139
333,-7583,-13,366,-4608,23,-351,-148,140
334,-7581,-18,366,-4609,23,-353,-151,141
335,-7572,-14,371,-4607,23,-351,-152,142
336,-7583,-4,375,-4609,23,-349,-156,143
337,-7589,1,372,-4608,23,-348,-156,141
338,-7590,-4,384,-4610,23,-349,-153,142
339,-7589,-10,389,-4612,23,-351,-154,142
340,-7583,-3,383,-4613,23,-349,-157,142
341,-7582,-3,369,-4611,23,-351,-156,138
342,-7583,-5,377,-4612,23,-353,-156,138
343,-7580,0,381,-4612,23,-351,-155,139
344,-7580,0,381,-4610,23,-351,-157,140
345,-7576,-5,388,-4605,23,-347,-158,138
346,-7581,1,383,-4606,23,-349,-158,140
347,-7578,-4,388,-4607,23,-348,-156,140
348,-7576,-6,378,-4608,23,-349,-152,141
349,-7570,-6,378,-4609,23,-349,-153,141
350,-7573,6,377,-4610,23,-347,-155,135
351,-7567,5,374,-4606,23,-352,-157,133
352,-7573,7,369,-4604,23,-353,-156,140
353,-7566,1,360,-4607,23,-349,-154,141
354,-7561,3,365,-4607,23,-352,-154,141
355,-7564,3,376,-4606,23,-347,-158,144
356,-7581,-9,370,-4609,23,-347,-159,143
357,-7583,-4,369,-4612,23,-345,-159,141
358,-7576,9,380,-4609,23,-345,-156,142
359,-7558,8,379,-4609,23,-354,-156,142
360,-7565,10,357,-4606,23,-351,-153,139
361,-7574,-5,360,-4607,23,-348,-151,137
362,-7575,-7,376,-4607,23,-347,-153,137
363,-7580,-8,376,-4608,23,-348,-156,139
364,-7584,-8,363,-4609,23,-351,-151,136
365,-7584,-10,375,-4608,23,-348,-153,136
366,-7576,-8,373,-4610,23,-347,-153,137
367,-7576,0,372,-4610,23,-348,-155,140
368,-7587,-2,371,-4608,23,-350,-155,139
369,-7587,-12,389,-4608,23,-345,-156,142
370,-7582,-13,366,-4609,23,-349,-154,142
371,-7576,-8,370,-4608,23,-350,-155,141
372,-7572,-3,379,-4606,23,-354,-153,140
373,-7569,-1,363,-4604,23,-356,-157,137
374,-7579,-2,368,-4606,23,-349,-156,138
375,-7582,2,365,-4609,23,-348,-152,135
376,-7590,2,376,-4607,23,-350,-150,139
377,-7584,-2,362,-4608,23,-349,-153,139
378,-7582,-1,363,-4608,23,-347,-153,137
379,-7585,-8,374,-4608,23,-345,-151,139
380,-7585,-1,383,-4605,23,-346,-148,143
381,-7582,-1,379,-4608,23,-348,-149,142
382,-7595,-2,376,-4610,23,-349,-151,142
383,-7589,-1,367,-4609,23,-351,-154,139
384,-7588,-2,368,-4607,23,-348,-153,141
385,-7587,1,382,-4607,23,-346,-154,137
386,-7581,-1,392,-4611,23,-350,-152,138
387,-7582,-3,389,-4608,23,-352,-151,139
388,-7579,-2,383,-4611,23,-353,-149,138
389,-7571,-1,383,-4612,23,-351,-146,134
390,-7575,-10,385,-4609,23,-347,-149,135
391,-7577,-10,371,-4609,23,-347,-154,139
392,-7578,-13,388,-4603,23,-355,-157,138
393,-7583,-12,395,-4604,23,-352,-159,141
394,-7586,-9,393,-4607,23,-345,-153,144
395,-7578,-6,384,-4611,23,-346,-153,143
396,-7580,0,371,-4608,23,-352,-150,142
397,-7586,3,376,-4607,23,-353,-149,141
398,-7583,-2,378,-4607,23,-348,-148,140
399,-7583,-2,386,-4608,23,-352,-150,139
400,-7581,-8,391,-4606,23,-353,-154,140
401,-7577,-5,388,-4607,23,-352,-152,142
402,-7581,-6,378,-4608,23,-349,-156,138
403,-7576,-9,396,-4607,23,-349,-153,137
404,-7572,-1,386,-4607,23,-351,-152,138
405,-7562,-2,380,-4608,23,-352,-154,136
406,-7572,-1,381,-4609,23,-349,-151,140
407,-7571,9,377,-4611,23,-348,-155,139
408,-7565,8,381,-4607,23,-347,-160,138
409,-7571,-2,384,-4609,23,-348,-159,141
410,-7579,3,381,-4609,23,-347,-158,139
411,-7574,3,363,-4605,23,-352,-158,139
412,-7580,1,368,-4605,23,-351,-154,143
413,-7581,0,360,-4605,23,-349,-155,142
414,-7576,-5,381,-4606,23,-349,-153,139
415,-7576,-1,387,-4605,23,-351,-153,138
416,-7575,-5,377,-4605,23,-352,-159,140
417,-7565,5,380,-4603,23,-351,-160,135
418,-7570,-5,388,-4603,23,-349,-160,138
419,-7576,-9,385,-4604,23,-348,-154,137
420,-7570,-26,372,-4608,23,-350,-149,138
421,-7569,-12,380,-4605,23,-352,-149,143
422,-7563,-16,378,-4609,23,-352,-150,138
423,-7567,-16,368,-4604,23,-351,-155,139
424,-7570,-8,375,-4608,23,-349,-157,143
425,-7571,-8,370,-4606,23,-350,-153,141
426,-7570,-8,373,-4604,23,-350,-158,138
427,-7573,-14,371,-4604,23,-351,-159,137
428,-7569,0,367,-4603,23,-349,-156,139
429,-7574,-6,379,-4605,23,-347,-155,143
430,-7575,-4,373,-4606,23,-351,-159,144
431,-7569,-9,384,-4604,23,-348,-155,140
432,-7575,-7,377,-4609,23,-351,-154,140
433,-7580,-6,366,-4606,23,-349,-155,139
434,-7588,-9,375,-4604,23,-347,-156,141
435,-7584,-5,381,-4604,23,-348,-154,139
436,-7583,-10,385,-4606,23,-344,-151,135
437,-7581,-12,370,-4605,23,-347,-151,135
438,-7585,-8,378,-4604,23,-344,-151,138
439,-7583,-2,378,-4604,23,-343,-148,139
440,-7586,-4,366,-4608,23,-348,-153,140
441,-7579,-11,373,-4606,23,-348,-153,137
442,-7579,-6,383,-4609,23,-348,-155,137
443,-7581,-15,387,-4609,23,-347,-152,137
444,-7572,-8,387,-4611,23,-346,-152,135
445,-7573,-6,388,-4611,23,-346,-153,139
446,-7580,-5,381,-4607,23,-344,-152,137
447,-7578,-16,385,-4606,23,-343,-155,139
448,-7577,-8,387,-4605,23,-344,-152,141
449,-7577,-9,390,-4608,23,-347,-154,143
450,-7578,-5,382,-4608,23,-348,-157,141
451,-7577,-14,383,-4609,23,-347,-154,142
452,-7577,-13,384,-4606,23,-344,-152,139
453,-7575,-3,381,-4605,23,-344,-154,144
454,-7574,-1,385,-4601,23,-347,-154,139
455,-7572,-9,378,-4605,23,-342,-155,140
456,-7571,-4,384,-4608,23,-343,-150,144
457,-7573,0,376,-4607,23,-351,-151,139
458,-7572,1,377,-4606,23,-351,-149,136
459,-7577,-11,380,-4604,23,-352,-153,132
460,-7580,-10,391,-4605,23,-353,-155,135
461,-7572,-12,394,-4607,23,-351,-154,139
462,-7575,-7,390,-4605,23,-349,-151,138
463,-7578,-5,379,-4605,23,-350,-152,138
464,-7577,-5,382,-4604,23,-350,-155,140
465,-7575,-8,378,-4605,23,-349,-154,141
466,-7580,-6,373,-4603,23,-348,-151,141
467,-7585,-10,373,-4603,23,-345,-150,139
468,-7583,-7,367,-4604,23,-348,-155,142
469,-7594,-7,367,-4602,23,-354,-154,143
470,-7587,-7,371,-4604,23,-352,-154,146
471,-7584,9,381,-4602,23,-349,-153,143
472,-7577,5,378,-4604,23,-349,-157,139
473,-7568,-3,381,-4603,23,-350,-153,141
474,-7573,-7,385,-4605,23,-348,-151,141
475,-7577,-9,376,-4604,23,-345,-155,139
476,-7581,-16,373,-4606,23,-347,-157,137
477,-7585,-18,382,-4605,23,-347,-153,139
478,-7577,-15,387,-4607,23,-349,-154,138
479,-7579,-3,369,-4604,23,-346,-156,138
480,-7588,-3,380,-4603,23,-348,-160,139
481,-7596,2,383,-4601,23,-348,-161,140
482,-7583,8,381,-4598,23,-348,-159,137
483,-7574,6,379,-4601,23,-349,-153,138
484,-7579,0,375,-4603,23,-347,-153,139
485,-7578,-6,376,-4601,23,-347,-149,140
486,-7587,5,368,-4601,23,-347,-146,142
487,-7589,0,367,-4600,23,-349,-148,140
488,-7575,-7,374,-4601,23,-348,-151,138
489,-7577,-5,378,-4603,23,-350,-155,139
490,-7572,-12,369,-4602,23,-351,-155,142
491,-7574,-6,362,-4604,23,-352,-156,142
492,-7581,-12,384,-4601,23,-351,-156,142
493,-7574,-16,390,-4604,23,-347,-153,139
494,-7576,-9,377,-4604,23,-350,-153,138
495,-7568,-6,373,-4603,23,-346,-158,140
496,-7561,1,380,-4603,23,-351,-155,142
497,-7568,7,387,-4605,23,-349,-154,139
498,-7580,10,363,-4605,23,-349,-159,141
499,-7576,-2,374,-4605,23,-350,-154,138
500,-7578,-3,374,-4603,23,-349,-156,138
501,-7576,-5,381,-4606,23,-347,-157,141
502,-7582,0,379,-4608,23,-349,-152,140
503,-7577,5,381,-4606,23,-348,-149,143
504,-7577,6,374,-4607,23,-350,-150,139
505,-7574,-1,364,-4608,23,-349,-153,137
506,-7570,-9,364,-4606,23,-345,-152,142
507,-7570,-14,367,-4605,23,-348,-148,140
508,-7561,-11,379,-4605,23,-345,-150,139
509,-7570,-17,379,-4601,23,-343,-150,142
510,-7572,-9,386,-4603,23,-349,-153,143
511,-7578,-9,385,-4606,23,-346,-155,139
512,-7579,-7,381,-4606,23,-350,-154,138
513,-7582,-11,380,-4608,23,-350,-151,139
514,-7578,-3,374,-4606,23,-348,-152,140
515,-7581,-13,361,-4607,23,-350,-153,141
516,-7582,-9,366,-4605,23,-351,-151,144
517,-7580,-10,357,-4608,23,-355,-152,142
518,-7586,-9,367,-4604,23,-347,-154,141
519,-7583,-3,358,-4604,23,-347,-154,141
520,-7580,-7,375,-4602,23,-349,-156,140
521,-7580,-5,384,-4601,23,-351,-157,139
522,-7581,-12,396,-4603,23,-350,-160,144
523,-7575,-12,387,-4601,23,-349,-158,140
524,-7578,-10,378,-4600,23,-344,-150,139
525,-7580,-10,372,-4602,23,-347,-151,138
526,-7579,-9,376,-4605,23,-350,-153,138
527,-7574,-10,385,-4606,23,-349,-154,139
528,-7574,-8,398,-4607,23,-349,-157,142
529,-7577,-1,400,-4606,23,-353,-156,142
530,-7563,-2,387,-4606,23,-354,-153,141
531,-7570,-8,369,-4604,23,-351,-154,143
532,-7568,-11,377,-4609,23,-353,-152,145
533,-7559,-5,379,-4606,23,-356,-154,144
534,-7569,-5,373,-4603,23,-351,-151,140
535,-7577,-4,381,-4605,23,-348,-155,140
536,-7571,-6,383,-4604,23,-347,-155,143
537,-7578,-1,389,-4602,23,-350,-155,142
538,-7576,-4,386,-4602,23,-348,-157,141
539,-7581,-9,388,-4604,23,-346,-153,139
540,-7581,-16,376,-4604,23,-343,-154,139
541,-7583,-10,379,-4602,23,-342,-155,138
542,-7592,-11,390,-4602,23,-345,-160,138
543,-7585,-8,385,-4603,23,-349,-155,140
544,-7578,-12,379,-4606,23,-348,-152,142
545,-7578,-13,366,-4606,23,-347,-150,146
546,-7592,-10,372,-4607,23,-346,-152,145
547,-7582,-12,383,-4604,23,-347,-151,141
548,-7582,-12,382,-4608,23,-347,-148,141
549,-7585,-12,370,-4605,23,-352,-153,137
550,-7575,-10,379,-4604,23,-353,-150,135
551,-7575,-10,370,-4605,23,-349,-151,138
552,-7575,-9,369,-4603,23,-345,-150,140
553,-7577,-10,381,-4605,23,-349,-154,139
554,-7583,-7,376,-4604,23,-348,-154,142
555,-7575,-5,366,-4601,23,-349,-152,144
556,-7567,-9,377,-4602,23,-349,-153,140
557,-7570,-5,368,-4605,23,-348,-154,140
558,-7578,-6,363,-4603,23,-350,-154,139
559,-7571,5,382,-4600,23,-352,-156,136
560,-7575,-4,387,-4599,23,-352,-153,136
561,-7576,-6,389,-4602,23,-349,-154,135
562,-7580,-11,371,-4604,23,-350,-153,139
563,-7585,-3,380,-4606,23,-349,-151,138
564,-7580,5,381,-4603,23,-353,-155,140
565,-7574,0,384,-4604,23,-351,-158,139
566,-7582,-7,386,-4606,23,-351,-159,140
567,-7577,-13,379,-4605,23,-351,-155,137
568,-7572,-17,386,-4604,23,-350,-151,135
569,-7571,-14,386,-4603,23,-347,-153,135
570,-7587,-13,386,-4599,23,-346,-152,135
571,-7582,-7,393,-4605,23,-347,-149,136
572,-7582,-4,368,-4606,23,-343,-152,142
573,-7583,-5,372,-4605,23,-348,-154,137
574,-7582,-2,368,-4600,23,-344,-150,139
575,-7578,-10,371,-4601,23,-349,-154,140
576,-7581,-11,364,-4603,23,-351,-156,139
577,-7583,-15,378,-4605,23,-343,-158,141
578,-7584,-11,388,-4606,23,-343,-156,142
579,-7583,-13,373,-4604,23,-345,-155,139
580,-7590,-8,366,-4602,23,-350,-155,142
581,-7589,-7,377,-4601,23,-346,-152,141
582,-7591,-1,379,-4603,23,-347,-153,139
583,-7589,-5,373,-4602,23,-348,-151,136
584,-7586,-7,378,-4601,23,-346,-152,138
585,-7585,-12,379,-4599,23,-351,-154,138
586,-7575,-4,383,-4601,23,-351,-155,137
587,-7575,-5,383,-4598,23,-351,-158,139
588,-7566,-5,371,-4601,23,-350,-151,139
589,-7575,-5,366,-4601,23,-349,-152,139
590,-7577,-3,370,-4601,23,-347,-156,142
591,-7580,-3,365,-4602,23,-349,-149,138
592,-7569,-12,373,-4604,23,-347,-151,138
593,-7573,-8,369,-4601,23,-347,-153,138
594,-7583,-10,379,-4598,23,-347,-155,134
595,-7586,6,381,-4600,23,-348,-155,139
596,-7586,4,385,-4602,23,-351,-158,139
597,-7588,-4,383,-4603,23,-352,-155,138
598,-7586,-5,389,-4602,23,-348,-154,138
599,-7582,-9,399,-4603,23,-347,-155,140
600,-7577,-3,382,-4598,23,-350,-156,142
601,-7578,-1,389,-4598,23,-345,-151,142
602,-7577,-3,368,-4603,23,-348,-151,139
603,-7579,-7,370,-4598,23,-345,-149,139
604,-7582,-11,363,-4601,23,-345,-154,142
605,-7575,-4,360,-4603,23,-348,-159,142
606,-7574,-7,372,-4603,23,-349,-157,144
607,-7575,-3,378,-4606,23,-350,-157,139
608,-7573,0,385,-4603,23,-348,-155,139
609,-7578,4,378,-4601,23,-350,-156,136
610,-7579,2,370,-4602,23,-346,-159,137
611,-7578,-6,370,-4600,23,-348,-157,137
612,-7578,-1,375,-4597,23,-347,-154,139
613,-7578,-4,381,-4598,23,-350,-155,139
614,-7589,-4,387,-4598,23,-348,-153,139
615,-7586,-1,387,-4598,23,-351,-154,143
616,-7579,3,373,-4597,23,-349,-154,140
617,-7581,-6,384,-4598,23,-352,-157,138
618,-7578,-4,379,-4600,23,-350,-158,139
619,-7585,-5,387,-4599,23,-350,-160,138
620,-7588,-2,389,-4601,23,-347,-154,142
621,-7582,-8,387,-4600,23,-345,-155,142
622,-7581,0,389,-4602,23,-344,-152,139
623,-7582,-8,397,-4604,23,-349,-149,141
624,-7579,-5,393,-4602,23,-350,-151,140
625,-7583,-4,386,-4600,23,-352,-153,137
626,-7583,-11,377,-4600,23,-348,-149,137
627,-7582,-10,394,-4598,23,-351,-148,134
628,-7576,-6,393,-4599,23,-355,-144,137
629,-7582,-8,372,-4599,23,-355,-146,138
630,-7582,-15,376,-4597,23,-356,-147,141
631,-7582,-10,388,-4600,23,-354,-151,139
632,-7580,-8,369,-4604,23,-353,-147,138
633,-7579,-7,368,-4601,23,-348,-149,138
634,-7579,-7,373,-4601,23,-346,-152,139
635,-7593,-8,376,-4599,23,-344,-154,138
636,-7588,-9,391,-4601,23,-348,-154,139
637,-7584,-13,381,-4603,23,-348,-151,140
638,-7586,-11,379,-4605,23,-348,-155,136
639,-7584,-16,380,-4606,23,-351,-155,138
640,-7586,-13,368,-4606,23,-350,-153,137
641,-7582,-14,380,-4605,23,-349,-152,135
642,-7593,-20,392,-4603,23,-349,-149,137
643,-7584,-8,372,-4606,23,-350,-154,141
644,-7581,-5,381,-4603,23,-344,-155,139
645,-7580,-4,383,-4600,23,-345,-157,133
646,-7574,-7,393,-4605,23,-346,-151,132
647,-7571,-17,397,-4606,23,-347,-156,135
648,-7568,-10,392,-4607,23,-348,-153,138
649,-7577,-17,388,-4604,23,-347,-150,142
650,-7582,-13,385,-4602,23,-350,-155,140
651,-7580,-24,378,-4605,23,-350,-156,142
652,-7578,-12,379,-4609,23,-353,-153,144
653,-7577,-9,384,-4610,23,-352,-152,143
654,-7578,1,379,-4611,23,-348,-151,142
655,-7577,1,380,-4608,23,-349,-148,141
656,-7579,-3,370,-4605,23,-347,-150,142
657,-7573,1,373,-4604,23,-348,-153,143
658,-7569,-3,379,-4601,23,-348,-154,145
659,-7566,-10,391,-4602,23,-349,-152,144
660,-7571,-7,376,-4605,23,-353,-151,141
661,-7568,-5,367,-4602,23,-356,-147,140
662,-7580,-4,379,-4603,23,-350,-151,141
663,-7581,1,376,-4605,23,-351,-149,137
664,-7571,-1,382,-4599,23,-349,-152,141
665,-7579,-6,391,-4603,23,-348,-153,141
666,-7584,-4,377,-4602,23,-351,-154,141
667,-7569,-10,375,-4599,23,-350,-154,139
668,-7572,-13,375,-4601,23,-349,-151,138
669,-7566,-16,379,-4598,23,-351,-154,134
670,-7568,-4,371,-4597,23,-348,-153,135
671,-7569,-4,388,-4599,23,-347,-154,137
672,-7570,-4,387,-4600,23,-349,-151,140
673,-7577,-6,383,-4603,23,-350,-152,142
674,-7578,-5,379,-4603,23,-349,-156,136
675,-7569,-10,378,-4602,23,-352,-153,139
676,-7575,-11,373,-4600,23,-352,-150,138
677,-7578,-8,372,-4604,23,-347,-148,140
678,-7577,-8,370,-4603,23,-345,-154,142
679,-7577,-4,374,-4600,23,-349,-156,142
680,-7576,-6,364,-4600,23,-346,-160,143
681,-7577,-2,375,-4596,23,-349,-157,138
682,-7577,-3,379,-4597,23,-352,-159,138
683,-7586,-2,380,-4600,23,-351,-155,138
684,-7576,-10,373,-4601,23,-351,-156,137
685,-7575,-9,376,-4602,23,-352,-156,141
686,-7582,2,372,-4598,23,-350,-161,137
687,-7593,0,375,-4599,23,-348,-156,137
688,-7578,-11,388,-4595,23,-355,-159,140
689,-7574,-8,381,-4599,23,-355,-153,136
690,-7574,-7,378,-4598,23,-355,-153,136
691,-7571,-1,390,-4599,23,-352,-153,136
692,-7572,-4,389,-4598,23,-352,-153,139
693,-7583,5,382,-4599,23,-350,-152,144
694,-7582,-5,368,-4598,23,-348,-152,141
695,-7586,-7,373,-4598,23,-346,-152,141
696,-7580,-8,366,-4596,23,-346,-154,144
697,-7585,1,371,-4596,23,-351,-154,144
698,-7580,-1,362,-4598,23,-353,-155,138
699,-7582,-1,362,-4600,23,-352,-153,137
700,-7578,3,370,-4599,23,-351,-159,138
701,-7570,0,385,-4602,23,-353,-158,137
702,-7573,-4,376,-4603,23,-351,-157,136
703,-7580,-8,368,-4601,23,-350,-159,140
704,-7577,-9,373,-4598,23,-349,-159,136
705,-7576,-5,374,-4599,23,-348,-160,138
706,-7577,1,387,-4601,23,-349,-156,141
707,-7577,-6,397,-4600,23,-348,-160,139
708,-7569,-6,389,-4600,23,-347,-157,138
709,-7571,-12,389,-4596,23,-351,-158,134
710,-7577,0,372,-4596,23,-350,-157,134
711,-7576,3,376,-4596,23,-351,-155,135
712,-7571,-4,384,-4594,23,-350,-154,137
713,-7572,-10,382,-4596,23,-349,-148,139
714,-7572,-12,371,-4600,23,-351,-149,137
715,-7580,-5,389,-4595,23,-347,-155,142
716,-7587,-17,369,-4597,23,-351,-154,141
717,-7586,-14,370,-4597,23,-347,-150,142
718,-7585,-3,366,-4598,23,-346,-152,141
719,-7576,-2,370,-4600,23,-344,-150,143
720,-7578,-9,376,-4601,23,-348,-152,141
721,-7572,-10,384,-4601,23,-352,-153,141
722,-7583,-6,386,-4600,23,-351,-154,143
723,-7582,-7,383,-4601,23,-349,-153,140
724,-7580,-18,373,-4598,23,-348,-155,141
725,-7581,-9,374,-4601,23,-351,-152,140
726,-7577,-13,368,-4600,23,-349,-154,139
727,-7581,-8,370,-4599,23,-348,-152,144
728,-7578,-16,364,-4599,23,-349,-153,143
729,-7573,-13,374,-4598,23,-354,-153,140
730,-7574,-17,383,-4598,23,-352,-157,142
731,-7578,-15,373,-4599,23,-354,-153,140
732,-7573,-4,378,-4602,23,-349,-155,143
733,-7571,-1,380,-4599,23,-346,-151,142
734,-7573,-10,372,-4599,23,-346,-153,140
735,-7561,-1,365,-4600,23,-347,-154,144
736,-7581,-10,370,-4601,23,-350,-148,140
737,-7579,-13,383,-4600,23,-348,-151,144
738,-7584,-11,379,-4601,23,-351,-154,140
739,-7583,-6,361,-4602,23,-352,-152,135
740,-7579,-8,360,-4601,23,-349,-148,135
741,-7565,-10,370,-4598,23,-347,-153,142
742,-7560,-7,371,-4599,23,-349,-154,144
743,-7569,-6,383,-4597,23,-351,-154,141
744,-7568,-2,386,-4600,23,-351,-153,142
745,-7576,-5,393,-4603,23,-347,-151,142
746,-7587,-11,389,-4599,23,-345,-149,137
747,-7588,-4,399,-4602,23,-346,-148,136
748,-7585,-4,376,-4600,23,-348,-156,138
749,-7581,-3,374,-4601,23,-350,-157,137
750,-7584,-5,388,-4599,23,-351,-154,137
751,-7578,-11,378,-4601,23,-352,-154,133
752,-7571,-12,379,-4599,23,-348,-154,135
753,-7571,-4,379,-4598,23,-350,-156,136
754,-7568,0,376,-4597,23,-349,-157,135
755,-7574,-7,370,-4600,23,-350,-155,134
756,-7573,-2,364,-4597,23,-352,-152,135
757,-7569,-10,372,-4599,23,-353,-159,137
758,-7561,-12,371,-4600,23,-351,-152,135
759,-7567,-9,366,-4602,23,-351,-154,142
760,-7568,-19,384,-4603,23,-344,-156,141
761,-7568,-10,387,-4602,23,-340,-156,141
762,-7569,-11,403,-4603,23,-344,-155,143
763,-7580,-3,389,-4600,23,-342,-154,140
764,-7573,-9,385,-4600,23,-346,-152,142
765,-7580,-14,373,-4595,23,-347,-155,138
766,-7584,-8,375,-4599,23,-342,-153,138
767,-7585,-2,371,-4602,23,-347,-151,140
768,-7578,3,361,-4601,23,-351,-153,139
769,-7581,7,376,-4600,23,-353,-157,139
770,-7572,2,379,-4600,23,-350,-155,136
771,-7575,6,381,-4602,23,-349,-154,137
772,-7572,0,386,-4598,23,-351,-154,137
773,-7575,-8,381,-4602,23,-349,-150,139
774,-7575,-6,370,-4602,23,-346,-147,139
775,-7574,-5,376,-4604,23,-347,-150,141
776,-7578,4,373,-4600,23,-345,-152,144
777,-7577,3,371,-4597,23,-345,-155,141
778,-7575,3,369,-4602,23,-344,-155,140
779,-7577,2,359,-4601,23,-348,-154,139
780,-7575,3,376,-4601,23,-345,-153,138
781,-7571,0,369,-4600,23,-349,-151,139
782,-7571,-4,364,-4598,23,-350,-151,139
783,-7579,-3,361,-4600,23,-353,-153,139
784,-7572,9,365,-4600,23,-353,-159,144
785,-7576,-2,373,-4602,23,-355,-154,140
786,-7570,-7,362,-4602,23,-351,-155,142
787,-7573,-8,376,-4600,23,-349,-152,140
788,-7572,7,375,-4602,23,-346,-154,139
789,-7573,9,380,-4603,23,-349,-152,139
790,-7584,2,375,-4601,23,-351,-154,142
791,-7588,-4,371,-4602,23,-348,-152,140
792,-7586,-11,373,-4602,23,-351,-154,140
793,-7588,-13,367,-4604,23,-355,-155,140
794,-7573,-15,371,-4604,23,-351,-153,140
795,-7575,-16,375,-4601,23,-352,-151,140
796,-7569,-9,386,-4602,23,-350,-151,139
797,-7578,-2,386,-4599,23,-343,-151,139
798,-7584,-6,386,-4601,23,-345,-158,142
799,-7576,-5,379,-4605,23,-348,-158,142
800,-7576,-8,381,-4604,23,-349,-156,144
801,-7575,1,385,-4601,23,-349,-160,142
802,-7583,-11,375,-4601,23,-348,-157,140
803,-7585,-13,384,-4601,23,-348,-158,140
804,-7587,-9,376,-4601,23,-352,-156,141
805,-7581,-3,371,-4603,23,-355,-155,139
806,-7582,0,364,-4602,23,-355,-155,143
807,-7591,5,382,-4600,23,-353,-154,136
808,-7591,4,391,-4600,23,-352,-151,139
809,-7586,5,376,-4603,23,-350,-153,134
810,-7586,2,378,-4601,23,-350,-154,135
811,-7580,-7,379,-4602,23,-350,-154,136
812,-7583,-8,367,-4600,23,-353,-156,139
813,-7584,-13,377,-4602,23,-351,-152,137
814,-7581,-4,392,-4605,23,-347,-153,136
815,-7583,-9,381,-4609,23,-351,-150,137
816,-7581,-7,380,-4607,23,-351,-152,137
817,-7578,-14,368,-4606,23,-349,-153,138
818,-7570,-9,382,-4603,23,-353,-159,141
819,-7573,-7,379,-4600,23,-353,-156,141
820,-7572,-5,381,-4603,23,-352,-156,141
821,-7576,-2,384,-4609,23,-351,-154,141
822,-7583,-3,385,-4605,23,-350,-155,142
823,-7585,-3,391,-4602,23,-349,-157,139
824,-7585,-6,400,-4605,23,-347,-155,135
825,-7581,-4,384,-4606,23,-354,-157,138
826,-7585,3,381,-4605,23,-355,-156,140
827,-7589,-1,385,-4602,23,-351,-160,140
828,-7579,-8,380,-4605,23,-350,-160,136
829,-7575,-10,384,-4603,23,-346,-157,143
830,-7582,-9,384,-4605,23,-350,-159,139
831,-7581,-10,369,-4604,23,-349,-157,141
832,-7581,-7,382,-4604,23,-348,-160,145
833,-7577,-3,380,-4605,23,-351,-158,145
834,-7570,-21,378,-4605,23,-349,-154,144
835,-7574,-5,367,-4603,23,-346,-152,142
836,-7573,-6,364,-4602,23,-347,-154,137
837,-7579,7,377,-4602,23,-352,-150,140
838,-7570,-1,375,-4603,23,-354,-150,139
839,-7568,11,374,-4598,23,-350,-148,139
840,-7574,4,362,-4601,23,-349,-151,141
841,-7575,-5,376,-4601,23,-347,-154,143
842,-7573,0,376,-4597,23,-346,-153,141
843,-7575,-5,373,-4598,23,-345,-157,137
844,-7579,-10,368,-4601,23,-349,-153,139
845,-7572,-1,378,-4599,23,-346,-156,141
846,-7585,-4,383,-4600,23,-346,-154,142
847,-7580,-3,383,-4598,23,-346,-155,139
848,-7584,-3,387,-4602,23,-346,-154,140
849,-7582,-5,389,-4600,23,-341,-155,139
850,-7587,-7,378,-4603,23,-342,-154,135
851,-7581,-14,377,-4604,23,-344,-151,136
852,-7577,-12,368,-4603,23,-346,-154,137
853,-7571,-14,370,-4600,23,-348,-152,138
854,-7571,-9,371,-4602,23,-350,-155,137
855,-7574,-8,367,-4603,23,-345,-155,140
856,-7575,-13,369,-4607,23,-346,-157,140
857,-7581,-16,363,-4603,23,-346,-159,145
858,-7582,-19,365,-4605,23,-346,-155,142
859,-7579,-5,375,-4606,23,-347,-152,140
860,-7590,2,388,-4602,23,-348,-156,140
861,-7583,-4,381,-4601,23,-346,-157,138
862,-7581,-5,379,-4599,23,-349,-152,139
863,-7586,-9,387,-4601,23,-353,-156,142
864,-7580,1,383,-4602,23,-353,-155,139
865,-7579,-6,379,-4602,23,-351,-152,136
866,-7580,2,384,-4600,23,-350,-157,139
867,-7582,6,377,-4602,23,-348,-158,141
868,-7576,1,384,-4602,23,-346,-157,140
869,-7577,-6,378,-4601,23,-345,-150,142
870,-7581,5,370,-4602,23,-346,-153,140
871,-7577,11,375,-4601,23,-347,-154,142
872,-7567,-1,375,-4598,23,-349,-156,144
873,-7572,0,372,-4599,23,-351,-154,139
874,-7577,2,378,-4600,23,-353,-158,135
875,-7572,5,370,-4600,23,-351,-160,136
876,-7573,5,385,-4598,23,-350,-156,134
877,-7578,1,386,-4600,23,-349,-155,138
878,-7583,-6,379,-4599,23,-355,-152,137
879,-7577,-10,387,-4600,23,-354,-154,142
880,-7575,-6,372,-4599,23,-347,-156,137
881,-7564,6,370,-4603,23,-348,-154,135
882,-7575,-5,373,-4603,23,-347,-154,137
883,-7580,-12,378,-4603,23,-345,-150,141
884,-7586,-15,379,-4600,23,-346,-151,140
885,-7580,-13,376,-4604,23,-343,-150,139
886,-7582,-5,391,-4600,23,-346,-149,138
887,-7578,-6,387,-4600,23,-346,-151,136
888,-7570,-1,388,-4596,23,-347,-155,135
889,-7575,2,378,-4598,23,-344,-152,136
890,-7580,-3,386,-4599,23,-345,-153,141
891,-7582,-11,383,-4597,23,-348,-156,139
892,-7582,-7,385,-4598,23,-350,-155,140
893,-7576,-11,375,-4601,23,-352,-156,137
894,-7573,-4,372,-4599,23,-351,-154,139
895,-7587,6,387,-4601,23,-353,-152,139
896,-7585,6,381,-4603,23,-347,-151,140
897,-7584,-1,372,-4599,23,-348,-154,143
898,-7581,7,376,-4597,23,-348,-152,138
899,-7574,-1,379,-4599,23,-348,-152,140
900,-7580,1,365,-4602,23,-348,-149,137
901,-7575,-14,370,-4602,23,-349,-152,139
902,-7577,-13,385,-4608,23,-355,-153,140
903,-7572,-14,377,-4605,23,-356,-150,140
904,-7572,-13,373,-4599,23,-356,-152,137
905,-7577,-3,373,-4599,23,-352,-152,137
906,-7572,-7,376,-4601,23,-352,-154,136
907,-7587,-6,368,-4604,23,-353,-155,138
908,-7588,-10,375,-4601,23,-349,-152,140
909,-7581,-3,371,-4600,23,-350,-155,140
910,-7578,-7,377,-4603,23,-348,-155,138
911,-7571,-10,374,-4602,23,-344,-158,141
912,-7572,-9,367,-4601,23,-347,-154,139
913,-7568,-13,372,-4598,23,-349,-154,140
914,-7577,-8,360,-4598,23,-352,-151,140
915,-7568,2,356,-4601,23,-349,-148,138
916,-7570,5,356,-4601,23,-344,-148,137
917,-7571,1,353,-4601,23,-346,-150,138
918,-7574,3,361,-4602,23,-347,-152,140
919,-7584,-1,378,-4605,23,-346,-160,137
920,-7576,-8,365,-4603,23,-345,-158,137
921,-7576,-6,376,-4605,23,-346,-158,141
922,-7572,1,385,-4609,23,-349,-158,142
923,-7566,-2,384,-4604,23,-350,-156,141
924,-7567,4,385,-4608,23,-350,-156,140
925,-7568,-7,384,-4605,23,-349,-155,141
926,-7574,-3,396,-4601,23,-349,-151,136
927,-7568,1,400,-4603,23,-349,-152,137
928,-7578,0,378,-4601,23,-350,-148,134
929,-7574,6,375,-4602,23,-349,-149,136
930,-7584,8,381,-4602,23,-351,-154,141
931,-7578,0,391,-4600,23,-351,-156,137
932,-7580,-7,372,-4600,23,-356,-156,139
933,-7584,5,380,-4603,23,-350,-153,138
934,-7584,7,375,-4602,23,-349,-154,140
935,-7595,-4,379,-4603,23,-349,-152,140
936,-7595,-4,378,-4601,23,-353,-151,139
937,-7583,-6,375,-4600,23,-350,-151,139
938,-7578,-12,381,-4603,23,-351,-154,136
939,-7577,-7,367,-4602,23,-351,-153,141
940,-7576,-5,371,-4601,23,-345,-153,143
941,-7585,-6,367,-4602,23,-344,-152,141
942,-7577,-5,370,-4598,23,-342,-151,142
943,-7581,1,369,-4599,23,-346,-150,139
944,-7572,2,369,-4598,23,-347,-150,139
945,-7577,7,377,-4596,23,-348,-152,138
946,-7567,-3,388,-4598,23,-349,-154,139
947,-7572,2,397,-4599,23,-348,-157,139
948,-7576,0,381,-4597,23,-352,-156,137
949,-7567,-3,370,-4598,23,-351,-150,135
950,-7570,-8,382,-4598,23,-347,-154,140
951,-7582,-13,384,-4602,23,-348,-154,142
952,-7578,-17,381,-4598,23,-347,-158,141
953,-7580,-6,386,-4600,23,-351,-160,140
954,-7570,1,382,-4601,23,-350,-161,141
955,-7567,-1,374,-4601,23,-353,-159,137
956,-7578,-3,374,-4603,23,-352,-161,140
957,-7582,-9,371,-4601,23,-348,-158,144
958,-7585,-7,383,-4594,23,-349,-154,139
959,-7586,-14,376,-4599,23,-346,-153,142
960,-7577,-15,384,-4598,23,-349,-146,143
961,-7579,-9,394,-4597,23,-349,-153,139
962,-7585,-7,395,-4599,23,-346,-152,137
963,-7587,-6,390,-4598,23,-345,-153,137
964,-7575,-7,377,-4598,23,-343,-155,138
965,-7577,-1,368,-4601,23,-345,-156,139
966,-7578,-5,370,-4600,23,-346,-154,138
967,-7585,-9,375,-4599,23,-346,-152,141
968,-7583,-5,383,-4601,23,-345,-150,137
969,-7574,-1,389,-4599,23,-350,-150,135
970,-7575,-5,381,-4599,23,-353,-154,137
971,-7572,-7,390,-4596,23,-353,-157,141
972,-7580,-11,370,-4598,23,-352,-155,139
973,-7576,-17,375,-4598,23,-351,-154,141
974,-7574,-21,383,-4600,23,-352,-153,143
975,-7577,-9,384,-4599,23,-350,-154,142
976,-7570,-8,397,-4597,23,-348,-154,142
977,-7568,0,405,-4594,23,-344,-154,143
978,-7572,0,403,-4593,23,-351,-157,139
979,-7569,-5,395,-4594,23,-352,-157,142
980,-7563,-2,404,-4592,23,-345,-154,145
981,-7579,-4,391,-4598,23,-346,-149,143
982,-7585,-3,380,-4596,23,-345,-152,146
983,-7587,-6,379,-4598,23,-346,-154,144
984,-7583,-5,364,-4599,23,-347,-153,141
985,-7583,-2,366,-4598,23,-348,-158,139
986,-7578,-9,378,-4595,23,-348,-156,139
987,-7570,-3,385,-4594,23,-348,-158,138
988,-7577,-8,383,-4595,23,-343,-156,137
989,-7580,-7,371,-4594,23,-341,-153,140
990,-7582,0,376,-4595,23,-341,-152,139
991,-7578,4,371,-4595,23,-347,-152,142
992,-7580,3,367,-4598,23,-349,-150,140
993,-7582,-2,376,-4600,23,-352,-153,143
994,-7581,-3,374,-4596,23,-352,-153,142
995,-7581,1,371,-4593,23,-353,-159,139
996,-7578,-3,377,-4593,23,-352,-155,143
997,-7575,6,368,-4593,23,-348,-152,142
998,-7572,-4,373,-4593,23,-351,-156,139
