,acc_X,acc_Y,acc_Z,temp,tempC,gyr_X,gyr_Y,gyr_Z
0,-1897,-3,98,-4712,23,-85,-38,36
1,-1893,-6,92,-4709,23,-87,-37,35
2,-1895,-5,92,-4710,23,-87,-35,33
3,-1893,-3,98,-4711,23,-86,-39,33
4,-1892,-4,93,-4715,23,-87,-39,34
5,-1894,-5,97,-4713,23,-90,-40,35
6,-1892,-1,98,-4711,23,-87,-40,34
7,-1896,-4,92,-4714,23,-86,-41,33
8,-1899,-2,92,-4712,23,-86,-41,33
9,-1903,-1,96,-4715,23,-88,-39,34
10,-1895,1,93,-4713,23,-89,-40,37
11,-1892,1,94,-4714,23,-88,-39,37
12,-1895,0,87,-4708,23,-88,-39,34
13,-1892,-2,94,-4710,23,-87,-40,36
14,-1893,0,96,-4713,23,-87,-39,33
15,-1896,-4,96,-4715,23,-86,-39,35
16,-1894,-6,95,-4710,23,-88,-40,35
17,-1894,-6,94,-4712,23,-87,-39,35
18,-1892,-2,92,-4709,23,-87,-39,35
19,-1892,-5,90,-4713,23,-86,-39,35
20,-1895,-3,91,-4717,23,-88,-38,34
21,-1895,0,98,-4715,23,-86,-37,35
22,-1893,-6,94,-4713,23,-86,-38,34
23,-1894,-5,95,-4710,23,-85,-39,35
24,-1894,-3,92,-4710,23,-86,-38,34
25,-1895,-1,92,-4710,23,-87,-39,34
26,-1894,-2,94,-4709,23,-88,-38,36
27,-1894,-3,94,-4705,23,-86,-38,36
28,-1899,-2,93,-4710,23,-86,-37,34
29,-1891,-6,91,-4713,23,-87,-42,36
30,-1891,-1,90,-4712,23,-87,-43,35
31,-1893,-2,93,-4711,23,-87,-40,33
32,-1894,-3,92,-4709,23,-87,-38,35
33,-1895,1,94,-4708,23,-85,-39,34
34,-1894,2,98,-4716,23,-86,-40,34
35,-1897,0,99,-4713,23,-86,-38,34
36,-1892,-2,96,-4711,23,-85,-37,34
37,-1893,2,91,-4709,23,-86,-37,34
38,-1895,3,94,-4709,23,-86,-38,35
39,-1894,1,96,-4710,23,-89,-39,35
40,-1898,1,95,-4712,23,-88,-37,34
41,-1899,-3,92,-4706,23,-88,-36,33
42,-1897,-3,95,-4712,23,-87,-37,33
43,-1896,0,99,-4708,23,-87,-37,33
44,-1897,-3,96,-4713,23,-86,-38,34
45,-1897,-4,88,-4714,23,-86,-40,33
46,-1899,0,89,-4709,23,-86,-40,33
47,-1899,-1,92,-4708,23,-86,-37,33
48,-1896,-2,90,-4706,23,-87,-38,34
49,-1892,-2,91,-4707,23,-87,-39,34
50,-1897,-5,91,-4709,23,-87,-40,34
51,-1896,-3,88,-4711,23,-86,-39,34
52,-1894,-6,90,-4714,23,-85,-38,35
53,-1896,-5,87,-4711,23,-87,-37,35
54,-1894,0,87,-4713,23,-87,-40,36
55,-1894,0,97,-4713,23,-85,-39,35
56,-1897,2,94,-4715,23,-85,-39,34
57,-1894,-1,96,-4712,23,-86,-39,34
58,-1893,-3,92,-4708,23,-86,-40,35
59,-1892,-5,92,-4708,23,-86,-39,33
60,-1895,-2,94,-4710,23,-87,-38,34
61,-1896,-2,94,-4709,23,-87,-39,36
62,-1895,3,95,-4710,23,-86,-40,36
63,-1893,2,96,-4711,23,-86,-40,36
64,-1895,-3,94,-4710,23,-86,-37,33
65,-1894,-1,92,-4710,23,-87,-39,35
66,-1899,-2,91,-4711,23,-87,-40,34
67,-1896,-4,89,-4708,23,-87,-39,33
68,-1894,-2,91,-4708,23,-89,-38,32
69,-1897,-2,93,-4708,23,-88,-41,34
70,-1895,-1,89,-4709,23,-89,-41,34
71,-1893,-2,96,-4708,23,-88,-39,34
72,-1894,-1,89,-4711,23,-87,-39,34
73,-1891,-3,101,-4707,23,-87,-40,33
74,-1893,-2,95,-4709,23,-88,-40,34
75,-1894,-2,91,-4713,23,-86,-39,34
76,-1895,-6,96,-4709,23,-87,-38,34
77,-1894,2,93,-4706,23,-86,-38,34
78,-1896,-4,90,-4709,23,-85,-37,35
79,-1899,-2,89,-4711,23,-87,-39,35
80,-1892,-1,89,-4711,23,-88,-40,35
81,-1891,-1,92,-4707,23,-87,-39,35
82,-1894,-3,92,-4710,23,-87,-38,34
83,-1898,-2,93,-4706,23,-88,-37,35
84,-1897,2,94,-4705,23,-88,-38,35
85,-1896,0,87,-4703,23,-88,-38,34
86,-1893,-1,89,-4705,23,-87,-39,34
87,-1893,2,94,-4710,23,-87,-40,36
88,-1895,-4,95,-4710,23,-89,-40,33
89,-1894,-3,95,-4705,23,-89,-39,34
90,-1898,-1,90,-4713,23,-88,-40,33
91,-1893,-5,90,-4711,23,-88,-40,36
92,-1892,-2,88,-4712,23,-88,-41,34
93,-1895,-3,93,-4708,23,-86,-38,35
94,-1898,-2,92,-4711,23,-87,-39,36
95,-1893,0,99,-4707,23,-86,-39,35
96,-1890,0,95,-4708,23,-87,-38,34
97,-1897,-1,94,-4711,23,-87,-41,34
98,-1897,-1,92,-4712,23,-87,-37,34
99,-1898,-3,95,-4713,23,-88,-39,33
100,-1894,-5,91,-4715,23,-88,-40,35
101,-1892,-2,96,-4714,23,-87,-39,34
102,-1890,-7,95,-4713,23,-86,-38,34
103,-1888,-1,92,-4713,23,-86,-39,36
104,-1891,-1,92,-4713,23,-87,-38,37
105,-1895,-1,95,-4714,23,-87,-38,34
106,-1896,-2,87,-4715,23,-87,-39,36
107,-1894,-3,91,-4708,23,-88,-40,36
108,-1893,-7,85,-4706,23,-88,-42,34
109,-1893,-3,93,-4711,23,-88,-40,35
110,-1895,-3,99,-4707,23,-86,-38,36
111,-1896,-1,95,-4708,23,-87,-38,35
112,-1895,-4,94,-4712,23,-86,-39,34
113,-1896,-3,95,-4712,23,-87,-39,33
114,-1895,1,94,-4712,23,-86,-40,34
115,-1891,-1,95,-4712,23,-86,-40,33
116,-1892,0,89,-4714,23,-89,-40,33
117,-1891,0,94,-4713,23,-87,-39,34
118,-1892,2,95,-4712,23,-88,-40,35
119,-1895,-5,94,-4706,23,-87,-40,37
120,-1899,0,99,-4709,23,-87,-38,35
121,-1895,-2,96,-4712,23,-86,-38,35
122,-1896,-2,94,-4713,23,-86,-40,34
123,-1897,-1,98,-4709,23,-86,-39,33
124,-1889,-1,93,-4710,23,-87,-39,35
125,-1890,-3,97,-4712,23,-87,-38,35
126,-1893,-3,92,-4712,23,-88,-39,36
127,-1895,-2,93,-4711,23,-86,-38,34
128,-1897,0,91,-4707,23,-87,-37,35
129,-1895,-2,92,-4707,23,-87,-40,34
130,-1894,-1,92,-4712,23,-85,-40,34
131,-1896,-1,94,-4711,23,-87,-40,35
132,-1897,0,94,-4713,23,-87,-38,35
133,-1896,0,96,-4707,23,-88,-40,35
134,-1897,-1,98,-4707,23,-87,-38,32
135,-1896,-3,98,-4711,23,-88,-38,34
136,-1895,2,96,-4712,23,-88,-37,34
137,-1898,0,93,-4710,23,-88,-38,34
138,-1895,-4,88,-4711,23,-88,-40,35
139,-1897,-3,97,-4712,23,-87,-39,34
140,-1896,-6,97,-4708,23,-86,-40,35
141,-1894,0,94,-4710,23,-87,-38,34
142,-1895,-3,93,-4710,23,-87,-39,34
143,-1893,0,91,-4708,23,-87,-39,34
144,-1892,0,92,-4705,23,-86,-37,33
145,-1894,-2,93,-4709,23,-87,-37,34
146,-1895,-2,86,-4708,23,-88,-38,34
147,-1896,-2,93,-4707,23,-86,-39,34
148,-1894,-2,91,-4701,23,-86,-39,36
149,-1892,-9,90,-4707,23,-85,-40,36
150,-1898,-6,86,-4710,23,-86,-40,36
151,-1897,-4,89,-4709,23,-86,-39,35
152,-1896,-5,95,-4710,23,-88,-39,35
153,-1894,0,94,-4712,23,-87,-38,36
154,-1896,0,89,-4710,23,-87,-37,37
155,-1895,-2,89,-4706,23,-87,-40,35
156,-1895,-2,88,-4710,23,-87,-37,35
157,-1899,-2,87,-4708,23,-88,-40,36
158,-1898,-3,85,-4714,23,-87,-39,36
159,-1895,-4,95,-4712,23,-87,-40,35
160,-1898,-3,101,-4710,23,-86,-39,35
161,-1896,-1,98,-4706,23,-86,-39,35
162,-1894,0,95,-4707,23,-87,-39,35
163,-1896,-5,94,-4705,23,-87,-38,33
164,-1894,-5,95,-4708,23,-88,-39,34
165,-1894,0,92,-4703,23,-87,-37,34
166,-1897,-1,92,-4711,23,-87,-36,33
167,-1896,-1,93,-4711,23,-87,-38,35
168,-1896,-1,89,-4711,23,-88,-38,36
169,-1896,-2,91,-4710,23,-88,-40,35
170,-1895,-4,91,-4713,23,-86,-39,33
171,-1896,-2,90,-4711,23,-88,-40,35
172,-1896,-1,95,-4710,23,-87,-39,33
173,-1894,-2,94,-4707,23,-88,-39,32
174,-1892,0,92,-4706,23,-88,-38,33
175,-1896,-2,93,-4713,23,-88,-38,34
176,-1894,1,94,-4709,23,-87,-40,34
177,-1895,1,96,-4706,23,-87,-38,34
178,-1898,-2,98,-4708,23,-87,-38,35
179,-1895,-1,95,-4709,23,-86,-39,35
180,-1896,-1,93,-4707,23,-87,-39,35
181,-1899,-6,94,-4706,23,-88,-40,36
182,-1896,-4,96,-4706,23,-87,-39,36
183,-1894,1,94,-4706,23,-87,-37,34
184,-1896,-3,92,-4708,23,-87,-38,34
185,-1897,-6,87,-4706,23,-87,-38,35
186,-1892,-9,91,-4704,23,-87,-37,35
187,-1894,-5,92,-4706,23,-87,-37,34
188,-1894,-5,90,-4703,23,-88,-38,35
189,-1896,-1,92,-4703,23,-87,-36,34
190,-1898,-4,93,-4703,23,-86,-36,34
191,-1898,-2,96,-4699,23,-85,-37,34
192,-1897,-5,99,-4704,23,-87,-37,33
193,-1895,-4,95,-4703,23,-88,-37,34
194,-1895,-3,91,-4701,23,-87,-37,34
195,-1897,-2,92,-4704,23,-86,-39,33
196,-1900,-4,91,-4708,23,-88,-39,34
197,-1896,-2,95,-4703,23,-89,-40,34
198,-1894,-3,92,-4701,23,-88,-39,36
199,-1896,-2,96,-4707,23,-87,-38,34
200,-1895,-2,97,-4704,23,-87,-37,35
201,-1897,-3,88,-4709,23,-87,-40,34
202,-1894,-2,99,-4706,23,-88,-39,34
203,-1896,-2,92,-4706,23,-87,-37,35
204,-1895,-3,95,-4706,23,-86,-38,36
205,-1893,-3,98,-4705,23,-86,-39,36
206,-1894,-1,89,-4707,23,-86,-39,35
207,-1894,-3,93,-4711,23,-87,-38,35
208,-1896,-2,95,-4708,23,-87,-38,34
209,-1900,0,92,-4708,23,-86,-38,36
210,-1895,0,93,-4702,23,-88,-38,35
211,-1896,-3,91,-4704,23,-87,-38,36
212,-1894,-6,98,-4703,23,-85,-37,35
213,-1897,-1,97,-4702,23,-86,-38,36
214,-1895,-3,95,-4703,23,-86,-39,35
215,-1900,-6,94,-4701,23,-86,-38,34
216,-1896,-5,96,-4705,23,-87,-38,34
217,-1892,-2,96,-4706,23,-87,-40,36
218,-1896,-2,96,-4707,23,-88,-38,34
219,-1898,0,96,-4702,23,-88,-38,37
220,-1897,-2,96,-4704,23,-90,-39,36
221,-1895,-3,98,-4704,23,-87,-40,34
222,-1897,-4,95,-4706,23,-85,-39,36
223,-1892,-2,88,-4703,23,-85,-39,37
224,-1892,-4,95,-4702,23,-86,-40,35
225,-1892,-7,90,-4704,23,-88,-38,34
226,-1892,-2,89,-4705,23,-87,-39,34
227,-1894,0,96,-4702,23,-88,-38,35
228,-1893,2,97,-4700,23,-87,-38,35
229,-1890,2,94,-4702,23,-85,-36,37
230,-1893,-2,91,-4703,23,-86,-39,35
231,-1898,-1,92,-4703,23,-87,-38,35
232,-1898,-1,91,-4706,23,-85,-39,36
233,-1896,-2,96,-4702,23,-87,-40,34
234,-1900,-2,95,-4706,23,-88,-40,37
235,-1896,-1,96,-4705,23,-88,-39,35
236,-1897,0,92,-4705,23,-87,-37,34
237,-1897,-2,89,-4703,23,-87,-37,34
238,-1896,-3,95,-4699,23,-86,-38,35
239,-1898,0,93,-4699,23,-87,-39,33
240,-1899,-2,87,-4702,23,-88,-38,34
241,-1898,-7,94,-4699,23,-87,-38,34
242,-1900,-1,97,-4704,23,-88,-40,33
243,-1898,-1,93,-4701,23,-86,-39,32
244,-1896,0,93,-4702,23,-88,-38,33
245,-1896,-2,91,-4711,23,-88,-39,35
246,-1898,1,89,-4707,23,-88,-40,35
247,-1894,2,95,-4702,23,-87,-38,35
248,-1893,-2,92,-4704,23,-88,-39,33
249,-1892,1,91,-4709,23,-88,-37,34
250,-1892,0,91,-4707,23,-86,-38,36
251,-1897,-2,87,-4706,23,-87,-38,35
252,-1895,-1,83,-4703,23,-87,-38,36
253,-1895,-6,84,-4704,23,-87,-38,36
254,-1897,-4,91,-4702,23,-86,-40,34
255,-1896,-4,91,-4704,23,-87,-39,35
256,-1895,-1,94,-4706,23,-88,-38,34
257,-1890,-3,93,-4705,23,-87,-37,35
258,-1892,-2,87,-4704,23,-89,-38,34
259,-1897,-3,91,-4704,23,-87,-38,34
260,-1894,-6,97,-4702,23,-85,-37,35
261,-1897,-3,91,-4700,23,-86,-38,35
262,-1897,-6,96,-4704,23,-88,-37,34
263,-1894,-5,95,-4705,23,-86,-37,34
264,-1892,-1,92,-4702,23,-88,-39,33
265,-1892,-3,95,-4705,23,-87,-39,34
266,-1892,-3,97,-4704,23,-87,-38,34
267,-1896,-5,94,-4710,23,-87,-38,34
268,-1892,-2,99,-4710,23,-87,-39,34
269,-1895,-3,97,-4707,23,-86,-37,35
270,-1892,-3,96,-4708,23,-85,-39,34
271,-1891,-5,94,-4706,23,-88,-40,35
272,-1892,-2,92,-4705,23,-87,-38,35
273,-1894,-7,99,-4700,23,-88,-37,35
274,-1896,-4,94,-4702,23,-87,-39,35
275,-1895,-1,94,-4706,23,-86,-40,35
276,-1894,-3,88,-4705,23,-87,-40,35
277,-1895,-2,92,-4704,23,-89,-40,35
278,-1896,0,94,-4702,23,-87,-40,35
279,-1895,-1,91,-4705,23,-87,-38,36
280,-1898,-2,87,-4703,23,-86,-37,36
281,-1899,-3,94,-4709,23,-87,-38,35
282,-1894,-4,96,-4709,23,-87,-39,35
283,-1895,-1,93,-4710,23,-88,-39,35
284,-1896,3,90,-4703,23,-87,-38,33
285,-1897,0,84,-4705,23,-87,-37,34
286,-1895,-2,88,-4704,23,-86,-38,35
287,-1897,-2,95,-4702,23,-86,-38,34
288,-1891,-1,98,-4697,23,-87,-38,33
289,-1893,0,93,-4697,23,-87,-39,33
290,-1893,-1,93,-4699,23,-86,-40,33
291,-1896,-3,89,-4697,23,-87,-39,35
292,-1896,-4,91,-4698,23,-86,-39,35
293,-1894,-6,96,-4702,23,-87,-40,34
294,-1891,-4,93,-4708,23,-87,-38,34
295,-1894,-1,95,-4704,23,-89,-39,35
296,-1898,-2,98,-4701,23,-88,-39,35
297,-1896,-2,95,-4699,23,-87,-37,36
298,-1894,1,99,-4701,23,-88,-37,37
299,-1892,-2,96,-4705,23,-88,-37,34
300,-1898,1,91,-4700,23,-86,-37,36
301,-1894,-2,91,-4705,23,-87,-37,35
302,-1894,-2,98,-4705,23,-88,-37,33
303,-1896,-2,95,-4704,23,-88,-39,35
304,-1893,-4,97,-4705,23,-88,-40,35
305,-1891,1,95,-4704,23,-89,-38,35
306,-1895,1,95,-4698,23,-86,-38,35
307,-1895,-6,94,-4698,23,-87,-38,35
308,-1892,-4,91,-4702,23,-88,-37,35
309,-1898,-5,94,-4705,23,-88,-40,36
310,-1897,0,91,-4701,23,-87,-40,35
311,-1896,-1,93,-4700,23,-88,-39,34
312,-1896,0,91,-4699,23,-89,-38,34
313,-1898,1,94,-4699,23,-87,-38,35
314,-1900,0,91,-4701,23,-86,-38,34
315,-1896,-4,95,-4695,23,-86,-41,35
316,-1896,-4,95,-4700,23,-87,-38,34
317,-1896,-3,92,-4700,23,-88,-38,32
318,-1896,-5,93,-4704,23,-88,-37,33
319,-1890,-5,97,-4701,23,-88,-37,34
320,-1897,-4,93,-4705,23,-88,-37,34
321,-1896,-3,94,-4705,23,-89,-37,33
322,-1898,-1,94,-4702,23,-88,-38,34
323,-1899,0,93,-4701,23,-87,-39,33
324,-1897,-2,90,-4703,23,-87,-36,35
325,-1894,1,95,-4707,23,-89,-38,33
326,-1895,1,93,-4703,23,-90,-37,35
327,-1896,-1,90,-4706,23,-88,-35,35
328,-1894,-2,94,-4701,23,-88,-37,34
329,-1897,0,94,-4700,23,-87,-38,35
330,-1893,-4,91,-4699,23,-87,-38,33
331,-1893,-4,96,-4707,23,-88,-38,36
332,-1895,-3,89,-4702,23,-88,-38,35
333,-1894,-4,89,-4702,23,-87,-38,35
334,-1895,-4,92,-4708,23,-89,-37,34
335,-1898,-2,91,-4707,23,-87,-36,35
336,-1899,-2,98,-4705,23,-87,-37,33
337,-1894,-2,96,-4707,23,-87,-40,35
338,-1895,-2,92,-4703,23,-89,-39,36
339,-1894,-2,94,-4702,23,-88,-40,35
340,-1893,-3,93,-4704,23,-88,-40,34
341,-1900,-5,95,-4705,23,-86,-38,33
342,-1897,-1,95,-4701,23,-88,-39,34
343,-1895,2,98,-4700,23,-89,-42,34
344,-1897,0,98,-4701,23,-87,-40,35
345,-1895,0,98,-4701,23,-88,-38,35
346,-1893,-4,96,-4699,23,-87,-40,33
347,-1897,0,95,-4707,23,-87,-39,34
348,-1896,-2,94,-4704,23,-88,-39,33
349,-1897,-5,90,-4708,23,-89,-39,35
350,-1895,-2,96,-4707,23,-86,-38,34
351,-1892,-1,94,-4708,23,-87,-36,34
352,-1893,-2,92,-4700,23,-87,-39,35
353,-1897,-1,93,-4705,23,-88,-38,35
354,-1890,-3,95,-4700,23,-87,-39,33
355,-1893,1,90,-4701,23,-86,-38,33
356,-1898,-5,92,-4702,23,-86,-39,35
357,-1893,-7,95,-4702,23,-87,-39,34
358,-1894,-3,95,-4704,23,-88,-39,34
359,-1895,-2,94,-4706,23,-85,-37,32
360,-1894,-4,98,-4701,23,-87,-40,34
361,-1894,-1,97,-4700,23,-86,-37,34
362,-1896,-2,95,-4704,23,-89,-40,34
363,-1896,5,95,-4702,23,-87,-40,34
364,-1896,2,98,-4704,23,-87,-42,34
365,-1897,1,98,-4708,23,-89,-38,35
366,-1898,-1,100,-4701,23,-88,-37,34
367,-1896,-4,95,-4704,23,-89,-39,33
368,-1895,-1,92,-4702,23,-87,-39,34
369,-1895,-2,94,-4700,23,-88,-37,35
370,-1897,-1,91,-4706,23,-88,-37,35
371,-1895,-1,95,-4700,23,-89,-37,35
372,-1897,0,96,-4701,23,-89,-38,35
373,-1895,-1,96,-4695,23,-87,-39,34
374,-1893,-2,92,-4701,23,-86,-38,34
375,-1896,-4,94,-4700,23,-88,-37,34
376,-1900,-4,90,-4700,23,-86,-38,35
377,-1898,-2,100,-4699,23,-86,-39,35
378,-1897,0,96,-4703,23,-86,-38,35
379,-1894,5,90,-4700,23,-87,-38,33
380,-1895,-3,91,-4699,23,-88,-38,36
381,-1897,-1,89,-4703,23,-87,-39,36
382,-1898,-3,96,-4705,23,-88,-38,35
383,-1898,-4,88,-4702,23,-88,-39,34
384,-1896,-6,96,-4702,23,-86,-39,33
385,-1894,-4,94,-4703,23,-88,-38,34
386,-1898,-2,92,-4705,23,-87,-39,34
387,-1893,0,93,-4704,23,-88,-39,35
388,-1894,0,91,-4698,23,-85,-40,35
389,-1893,-4,93,-4703,23,-85,-39,35
390,-1897,-5,94,-4701,23,-87,-40,35
391,-1895,-2,91,-4698,23,-86,-38,35
392,-1892,-2,96,-4697,23,-88,-38,34
393,-1896,-3,97,-4701,23,-86,-39,34
394,-1894,-4,96,-4705,23,-88,-38,34
395,-1891,-1,97,-4702,23,-88,-37,35
396,-1894,-2,93,-4704,23,-87,-36,35
397,-1896,-4,92,-4702,23,-86,-37,35
398,-1893,-4,92,-4703,23,-87,-38,36
399,-1894,-3,95,-4701,23,-87,-40,36
400,-1894,1,92,-4699,23,-88,-39,34
401,-1898,-1,95,-4702,23,-88,-40,34
402,-1894,-2,93,-4703,23,-88,-40,36
403,-1896,-3,94,-4699,23,-88,-39,35
404,-1892,-5,95,-4703,23,-88,-39,36
405,-1893,1,91,-4703,23,-85,-36,35
406,-1895,-1,94,-4706,23,-86,-38,34
407,-1894,0,93,-4704,23,-87,-40,35
408,-1896,0,91,-4701,23,-87,-39,35
409,-1899,-3,97,-4699,23,-87,-40,36
410,-1899,-3,96,-4701,23,-87,-40,36
411,-1897,-2,90,-4695,23,-86,-38,35
412,-1894,-2,90,-4698,23,-87,-40,35
413,-1896,-4,90,-4697,23,-87,-37,35
414,-1894,-3,90,-4702,23,-87,-38,35
415,-1895,-2,87,-4698,23,-88,-38,36
416,-1894,1,93,-4696,23,-88,-40,36
417,-1896,1,91,-4698,23,-87,-40,36
418,-1895,-2,88,-4698,23,-87,-41,34
419,-1894,-1,89,-4703,23,-88,-39,34
420,-1893,-1,92,-4699,23,-87,-38,34
421,-1895,-2,93,-4701,23,-85,-39,36
422,-1893,2,91,-4700,23,-87,-40,34
423,-1893,1,84,-4700,23,-87,-38,34
424,-1899,0,91,-4699,23,-87,-38,36
425,-1897,0,93,-4698,23,-89,-39,36
426,-1891,-4,88,-4702,23,-87,-39,35
427,-1896,-2,94,-4703,23,-87,-39,34
428,-1899,-5,91,-4701,23,-87,-40,34
429,-1896,-6,94,-4703,23,-87,-38,34
430,-1899,-3,95,-4700,23,-87,-40,35
431,-1893,-1,92,-4702,23,-87,-40,35
432,-1897,0,86,-4703,23,-87,-40,35
433,-1895,-1,89,-4705,23,-86,-41,35
434,-1892,-1,94,-4700,23,-86,-39,35
435,-1893,-1,94,-4699,23,-87,-39,35
436,-1895,1,90,-4699,23,-87,-39,36
437,-1894,0,97,-4696,23,-86,-39,35
438,-1893,0,90,-4699,23,-86,-40,35
439,-1892,-3,96,-4705,23,-87,-39,34
440,-1897,-4,88,-4705,23,-86,-39,34
441,-1899,-2,95,-4698,23,-87,-37,34
442,-1896,-2,94,-4699,23,-88,-37,35
443,-1895,-4,95,-4699,23,-88,-39,35
444,-1891,-1,94,-4700,23,-87,-38,35
445,-1892,-2,90,-4700,23,-87,-38,36
446,-1892,-2,94,-4700,23,-88,-38,35
447,-1891,-3,93,-4697,23,-87,-39,34
448,-1891,-2,93,-4699,23,-88,-39,35
449,-1892,-1,94,-4698,23,-88,-39,33
450,-1897,2,95,-4697,23,-86,-39,34
451,-1899,1,98,-4696,23,-88,-39,34
452,-1896,-1,94,-4700,23,-86,-37,34
453,-1895,2,98,-4701,23,-87,-38,34
454,-1893,1,92,-4699,23,-89,-38,33
455,-1895,-1,94,-4695,23,-89,-37,32
456,-1895,1,93,-4691,23,-87,-37,33
457,-1892,1,89,-4699,23,-87,-39,34
458,-1890,3,95,-4698,23,-86,-39,34
459,-1895,1,94,-4698,23,-87,-39,35
460,-1894,-2,91,-4695,23,-87,-38,35
461,-1893,-5,95,-4699,23,-87,-39,36
462,-1895,-4,95,-4695,23,-88,-40,34
463,-1895,-1,95,-4697,23,-88,-40,34
464,-1896,0,97,-4695,23,-88,-37,35
465,-1896,0,94,-4697,23,-87,-38,35
466,-1892,2,95,-4701,23,-88,-38,33
467,-1889,-3,93,-4697,23,-87,-38,34
468,-1892,1,98,-4699,23,-88,-37,35
469,-1890,0,92,-4698,23,-86,-38,34
470,-1894,1,92,-4700,23,-87,-39,36
471,-1896,-6,96,-4694,23,-90,-40,33
472,-1893,-4,88,-4693,23,-90,-39,35
473,-1892,0,92,-4694,23,-87,-39,35
474,-1891,2,98,-4697,23,-87,-40,34
475,-1889,0,92,-4697,23,-85,-40,34
476,-1896,-2,91,-4700,23,-87,-39,33
477,-1896,-1,93,-4699,23,-89,-38,33
478,-1898,-1,88,-4697,23,-87,-37,33
479,-1899,-3,91,-4698,23,-86,-38,32
480,-1897,-6,91,-4701,23,-87,-38,34
481,-1890,-6,89,-4702,23,-87,-39,34
482,-1894,-1,98,-4697,23,-87,-38,34
483,-1898,-1,96,-4697,23,-88,-39,35
484,-1900,-3,95,-4699,23,-88,-39,35
485,-1897,-2,92,-4699,23,-87,-40,35
486,-1895,-4,93,-4699,23,-86,-39,34
487,-1893,-1,101,-4698,23,-86,-38,34
488,-1898,-1,94,-4702,23,-87,-37,34
489,-1898,-2,91,-4698,23,-87,-39,34
490,-1892,-2,93,-4696,23,-87,-38,33
491,-1894,2,91,-4699,23,-87,-38,35
492,-1894,-4,95,-4693,23,-87,-38,35
493,-1893,-5,95,-4693,23,-85,-39,33
494,-1897,-4,96,-4696,23,-86,-37,35
495,-1895,-5,94,-4698,23,-87,-40,35
496,-1898,-3,94,-4696,23,-88,-40,35
497,-1893,-1,94,-4699,23,-88,-38,36
498,-1899,-4,94,-4699,23,-89,-39,35
499,-1897,-3,95,-4702,23,-88,-38,34
500,-1899,2,97,-4705,23,-88,-38,35
501,-1897,2,89,-4702,23,-86,-38,34
502,-1896,-1,90,-4695,23,-88,-38,34
503,-1893,-4,92,-4699,23,-87,-37,34
504,-1896,-2,93,-4697,23,-90,-37,34
505,-1897,-3,99,-4696,23,-87,-38,35
506,-1894,-2,102,-4703,23,-88,-38,35
507,-1892,-1,100,-4698,23,-86,-38,34
508,-1893,0,99,-4697,23,-88,-41,33
509,-1895,-3,99,-4700,23,-88,-40,34
510,-1896,0,101,-4701,23,-89,-39,35
511,-1893,0,97,-4701,23,-88,-41,35
512,-1892,-1,89,-4696,23,-86,-41,35
513,-1891,-1,91,-4704,23,-89,-40,34
514,-1895,-1,90,-4704,23,-87,-39,34
515,-1894,-2,87,-4702,23,-85,-39,34
516,-1895,-2,93,-4704,23,-85,-40,33
517,-1895,-5,96,-4702,23,-85,-39,35
518,-1893,-3,99,-4700,23,-85,-38,33
519,-1897,-5,94,-4699,23,-87,-39,35
520,-1897,-1,98,-4699,23,-88,-40,34
521,-1896,1,94,-4700,23,-85,-40,35
522,-1896,-2,89,-4702,23,-86,-40,36
523,-1894,-3,92,-4701,23,-89,-40,35
524,-1890,0,90,-4705,23,-87,-38,36
525,-1892,-2,95,-4705,23,-87,-39,36
526,-1894,-2,90,-4700,23,-88,-38,35
527,-1895,0,93,-4695,23,-88,-39,35
528,-1892,0,96,-4693,23,-87,-39,35
529,-1898,1,94,-4696,23,-87,-39,35
530,-1896,-1,92,-4699,23,-87,-39,34
531,-1894,-3,94,-4698,23,-86,-37,35
532,-1894,-2,94,-4700,23,-88,-36,35
533,-1896,1,101,-4701,23,-86,-39,35
534,-1893,-1,90,-4698,23,-88,-39,35
535,-1893,-3,90,-4697,23,-88,-38,35
536,-1894,-5,96,-4699,23,-87,-39,34
537,-1895,-3,97,-4699,23,-86,-39,34
538,-1897,0,95,-4700,23,-87,-39,35
539,-1897,0,94,-4697,23,-86,-41,33
540,-1897,1,92,-4699,23,-86,-40,36
541,-1893,-1,97,-4697,23,-86,-39,36
542,-1890,-5,96,-4701,23,-89,-38,35
543,-1895,-1,97,-4705,23,-87,-41,34
544,-1892,-4,95,-4704,23,-86,-38,34
545,-1890,-5,91,-4698,23,-87,-37,33
546,-1891,-3,92,-4697,23,-87,-39,33
547,-1895,-3,95,-4706,23,-86,-39,34
548,-1897,4,97,-4695,23,-88,-39,36
549,-1894,0,93,-4697,23,-88,-36,35
550,-1896,-7,96,-4696,23,-86,-38,35
551,-1892,-4,89,-4696,23,-88,-39,35
552,-1894,-3,90,-4700,23,-86,-39,34
553,-1892,-4,86,-4698,23,-87,-40,36
554,-1892,-3,88,-4700,23,-86,-37,35
555,-1897,-6,95,-4699,23,-87,-36,34
556,-1897,-2,92,-4696,23,-88,-39,36
557,-1893,-3,88,-4700,23,-87,-38,36
558,-1890,-2,94,-4701,23,-87,-38,36
559,-1895,-1,90,-4699,23,-89,-38,35
560,-1894,0,89,-4704,23,-89,-37,33
561,-1895,-3,88,-4704,23,-89,-39,33
562,-1891,-1,85,-4700,23,-88,-39,35
563,-1894,-3,96,-4699,23,-87,-39,35
564,-1893,-3,99,-4697,23,-87,-37,34
565,-1895,-1,95,-4697,23,-87,-38,34
566,-1896,-3,94,-4693,23,-87,-38,36
567,-1896,-5,91,-4701,23,-86,-37,34
568,-1893,-5,95,-4697,23,-87,-37,35
569,-1898,-4,96,-4698,23,-88,-38,34
570,-1899,-2,100,-4699,23,-89,-39,33
571,-1897,3,97,-4699,23,-87,-39,33
572,-1894,-1,90,-4700,23,-88,-39,36
573,-1894,-1,93,-4700,23,-85,-39,35
574,-1891,-1,94,-4702,23,-87,-40,36
575,-1894,-4,99,-4701,23,-86,-39,35
576,-1896,-4,100,-4700,23,-87,-39,34
577,-1893,-1,97,-4700,23,-87,-38,33
578,-1898,0,98,-4696,23,-86,-37,34
579,-1897,1,96,-4700,23,-86,-37,33
580,-1893,1,94,-4699,23,-86,-39,33
581,-1893,-1,96,-4698,23,-87,-39,33
582,-1892,-3,93,-4696,23,-88,-39,34
583,-1896,0,93,-4693,23,-88,-39,35
584,-1898,-3,93,-4698,23,-87,-39,34
585,-1893,-2,92,-4696,23,-90,-40,34
586,-1893,0,97,-4695,23,-89,-39,33
587,-1894,-8,90,-4700,23,-87,-40,34
588,-1893,-3,90,-4693,23,-88,-39,33
589,-1896,2,87,-4695,23,-87,-39,33
590,-1895,1,97,-4695,23,-86,-38,36
591,-1895,3,96,-4696,23,-86,-39,36
592,-1895,1,98,-4701,23,-88,-39,36
593,-1895,-3,97,-4698,23,-88,-39,36
594,-1897,-3,96,-4699,23,-88,-40,36
595,-1896,-1,94,-4700,23,-87,-38,35
596,-1894,-1,93,-4695,23,-86,-39,33
597,-1896,1,94,-4698,23,-86,-39,34
598,-1894,0,89,-4695,23,-86,-38,33
599,-1898,-1,90,-4694,23,-88,-40,33
600,-1899,0,92,-4695,23,-87,-40,33
601,-1894,-2,89,-4699,23,-88,-42,34
602,-1895,1,93,-4695,23,-88,-40,34
603,-1895,0,90,-4696,23,-88,-39,33
604,-1890,2,91,-4697,23,-88,-39,35
605,-1895,3,89,-4702,23,-89,-37,35
606,-1894,-2,91,-4700,23,-87,-38,36
607,-1894,-5,90,-4701,23,-86,-37,35
608,-1895,-3,91,-4696,23,-87,-37,34
609,-1896,0,95,-4696,23,-89,-41,35
610,-1892,3,96,-4697,23,-88,-41,36
611,-1893,-2,98,-4700,23,-88,-39,34
612,-1895,-3,98,-4694,23,-87,-38,33
613,-1894,-6,100,-4693,23,-88,-36,34
614,-1895,-5,96,-4694,23,-87,-38,34
615,-1892,-6,88,-4691,23,-88,-39,33
616,-1895,-6,94,-4696,23,-87,-39,35
617,-1897,-4,96,-4696,23,-88,-39,35
618,-1895,-3,94,-4699,23,-87,-38,34
619,-1892,0,102,-4696,23,-89,-38,35
620,-1891,-1,94,-4695,23,-87,-39,35
621,-1892,1,97,-4695,23,-86,-39,34
622,-1889,-1,94,-4698,23,-86,-38,33
623,-1895,-2,89,-4703,23,-85,-39,33
624,-1894,-2,90,-4698,23,-86,-38,33
625,-1894,3,94,-4698,23,-86,-39,34
626,-1890,1,90,-4700,23,-88,-39,35
627,-1895,2,93,-4696,23,-88,-39,34
628,-1894,1,97,-4690,23,-88,-40,34
629,-1895,-1,97,-4696,23,-87,-38,34
630,-1894,1,91,-4693,23,-89,-37,35
631,-1893,-2,97,-4693,23,-89,-39,36
632,-1894,-1,92,-4697,23,-89,-39,35
633,-1894,0,95,-4697,23,-88,-40,34
634,-1894,-2,95,-4700,23,-88,-39,34
635,-1894,-1,95,-4702,23,-87,-38,35
636,-1893,-3,91,-4698,23,-87,-39,34
637,-1890,0,95,-4697,23,-87,-38,34
638,-1897,-3,88,-4701,23,-87,-39,34
639,-1896,-3,92,-4696,23,-87,-38,35
640,-1895,-3,94,-4696,23,-87,-40,33
641,-1891,-6,94,-4696,23,-86,-39,33
642,-1893,-5,92,-4694,23,-88,-39,32
643,-1893,-2,92,-4695,23,-87,-38,34
644,-1898,-3,93,-4703,23,-87,-38,34
645,-1894,0,97,-4701,23,-86,-39,35
646,-1892,-2,93,-4698,23,-86,-37,36
647,-1894,-1,96,-4698,23,-88,-38,35
648,-1895,-1,97,-4693,23,-88,-38,34
649,-1894,-4,96,-4692,23,-89,-38,35
650,-1897,-6,93,-4700,23,-88,-39,34
651,-1895,-1,98,-4700,23,-87,-37,34
652,-1895,-3,91,-4700,23,-87,-39,34
653,-1896,-1,93,-4702,23,-88,-40,35
654,-1894,-3,95,-4700,23,-88,-39,34
655,-1895,-3,95,-4691,23,-87,-40,35
656,-1897,0,91,-4694,23,-85,-38,33
657,-1898,-1,92,-4698,23,-85,-40,35
658,-1896,0,94,-4700,23,-86,-38,34
659,-1896,-1,93,-4698,23,-87,-38,34
660,-1894,-1,97,-4700,23,-88,-40,34
661,-1892,1,95,-4698,23,-88,-41,34
662,-1892,0,89,-4698,23,-87,-40,34
663,-1895,3,89,-4700,23,-89,-38,34
664,-1893,-1,93,-4703,23,-88,-38,35
665,-1894,-3,88,-4700,23,-87,-40,34
666,-1895,-2,87,-4700,23,-86,-38,36
667,-1897,-2,88,-4699,23,-87,-37,35
668,-1895,-1,90,-4698,23,-87,-38,35
669,-1894,1,93,-4696,23,-87,-42,35
670,-1895,-3,94,-4701,23,-88,-41,34
671,-1892,-2,95,-4701,23,-88,-39,34
672,-1896,1,97,-4705,23,-87,-41,34
673,-1895,-2,96,-4704,23,-87,-37,35
674,-1896,-2,93,-4702,23,-88,-37,34
675,-1900,-6,97,-4700,23,-89,-37,36
676,-1896,-1,93,-4700,23,-86,-38,35
677,-1893,-5,90,-4692,23,-87,-36,34
678,-1894,-3,95,-4692,23,-87,-38,35
679,-1892,-1,97,-4698,23,-85,-38,36
680,-1896,-2,90,-4696,23,-86,-38,34
681,-1895,2,91,-4697,23,-87,-40,35
682,-1896,0,93,-4695,23,-87,-39,34
683,-1896,2,97,-4699,23,-88,-38,36
684,-1896,1,97,-4694,23,-86,-38,36
685,-1894,-1,93,-4694,23,-86,-38,35
686,-1892,-1,97,-4692,23,-86,-37,36
687,-1892,-3,97,-4693,23,-86,-38,35
688,-1895,-6,94,-4699,23,-88,-40,35
689,-1896,-5,99,-4699,23,-87,-38,33
690,-1894,-1,94,-4696,23,-88,-39,34
691,-1895,0,96,-4695,23,-89,-39,35
692,-1894,2,97,-4698,23,-89,-37,34
693,-1893,-6,97,-4696,23,-89,-39,33
694,-1895,-2,98,-4699,23,-88,-39,35
695,-1891,2,95,-4693,23,-87,-39,34
696,-1895,-4,87,-4697,23,-87,-38,36
697,-1891,-1,98,-4693,23,-87,-38,35
698,-1894,-1,93,-4699,23,-86,-37,34
699,-1893,-3,89,-4696,23,-88,-40,34
700,-1893,-2,90,-4697,23,-87,-41,33
701,-1894,-1,85,-4699,23,-88,-40,34
702,-1893,-2,87,-4697,23,-87,-39,33
703,-1893,-4,92,-4695,23,-89,-40,32
704,-1893,-1,91,-4701,23,-89,-40,33
705,-1896,-3,92,-4698,23,-88,-40,36
706,-1890,-4,94,-4696,23,-89,-40,35
707,-1891,-1,98,-4694,23,-88,-40,36
708,-1894,0,92,-4689,23,-88,-39,33
709,-1897,-2,91,-4687,23,-88,-38,35
710,-1898,-2,92,-4699,23,-87,-39,35
711,-1893,-1,92,-4696,23,-87,-39,34
712,-1893,-1,97,-4695,23,-86,-39,33
713,-1900,-1,94,-4694,23,-88,-39,34
714,-1895,-1,93,-4692,23,-87,-38,34
715,-1894,-2,94,-4698,23,-87,-41,35
716,-1892,-3,93,-4695,23,-87,-39,34
717,-1893,0,92,-4699,23,-84,-40,35
718,-1895,-5,92,-4695,23,-87,-39,36
719,-1895,-5,95,-4693,23,-86,-38,34
720,-1894,-4,96,-4690,23,-87,-38,35
721,-1895,-4,95,-4692,23,-87,-38,35
722,-1895,-3,96,-4696,23,-88,-37,36
723,-1896,-2,99,-4695,23,-88,-38,35
724,-1896,0,92,-4690,23,-89,-38,36
725,-1895,2,98,-4692,23,-89,-37,34
726,-1896,-3,97,-4693,23,-90,-36,34
727,-1894,-4,89,-4693,23,-88,-39,33
728,-1894,-6,95,-4691,23,-86,-41,34
729,-1899,-1,98,-4694,23,-89,-39,33
730,-1899,0,94,-4690,23,-89,-37,35
731,-1895,0,99,-4695,23,-86,-38,35
732,-1894,-3,100,-4694,23,-86,-37,36
733,-1892,2,93,-4692,23,-86,-39,33
734,-1892,0,93,-4694,23,-87,-38,35
735,-1896,1,96,-4696,23,-87,-40,34
736,-1896,0,98,-4695,23,-88,-39,35
737,-1896,-3,101,-4697,23,-88,-38,34
738,-1895,1,100,-4699,23,-87,-37,35
739,-1895,-1,96,-4696,23,-87,-37,34
740,-1893,1,92,-4696,23,-86,-36,33
741,-1893,-1,98,-4699,23,-88,-37,35
742,-1895,-2,94,-4696,23,-88,-39,34
743,-1895,-1,88,-4692,23,-89,-38,34
744,-1898,-1,98,-4693,23,-86,-37,36
745,-1897,-1,98,-4693,23,-87,-38,35
746,-1894,0,98,-4690,23,-86,-37,34
747,-1896,0,94,-4694,23,-86,-37,34
748,-1893,-3,91,-4689,23,-87,-38,35
749,-1893,0,95,-4685,23,-86,-39,34
750,-1891,-2,90,-4691,23,-88,-39,34
751,-1892,0,86,-4690,23,-86,-39,35
752,-1895,-3,89,-4692,23,-87,-41,35
753,-1897,-1,92,-4696,23,-86,-39,35
754,-1896,-2,90,-4689,23,-88,-38,33
755,-1894,-6,94,-4692,23,-86,-38,33
756,-1896,-4,95,-4687,23,-87,-39,34
757,-1896,-6,94,-4691,23,-86,-38,35
758,-1898,-5,93,-4693,23,-86,-40,34
759,-1894,0,92,-4692,23,-85,-40,35
760,-1895,2,95,-4693,23,-86,-39,35
761,-1893,-2,98,-4691,23,-89,-39,35
762,-1894,2,99,-4692,23,-88,-38,35
763,-1895,2,95,-4689,23,-88,-37,34
764,-1891,2,97,-4691,23,-88,-38,32
765,-1894,-2,94,-4691,23,-88,-38,32
766,-1894,0,88,-4694,23,-87,-38,33
767,-1895,-4,92,-4693,23,-88,-38,34
768,-1898,-4,89,-4692,23,-87,-38,34
769,-1898,-1,89,-4691,23,-87,-38,35
770,-1893,-3,86,-4691,23,-87,-38,34
771,-1894,2,97,-4692,23,-87,-40,34
772,-1892,1,96,-4694,23,-87,-39,35
773,-1894,5,94,-4698,23,-87,-38,33
774,-1899,1,92,-4692,23,-87,-38,32
775,-1894,-1,94,-4693,23,-87,-37,34
776,-1897,1,96,-4695,23,-87,-38,33
777,-1899,-3,91,-4694,23,-88,-38,34
778,-1897,-4,96,-4690,23,-88,-38,35
779,-1894,-6,95,-4693,23,-87,-40,34
780,-1896,-3,95,-4695,23,-85,-39,33
781,-1892,0,93,-4691,23,-86,-38,34
782,-1896,-1,90,-4691,23,-86,-39,33
783,-1896,0,98,-4695,23,-89,-39,35
784,-1895,-3,95,-4697,23,-88,-38,36
785,-1895,1,91,-4692,23,-88,-40,35
786,-1896,1,89,-4689,23,-88,-39,34
787,-1896,-4,95,-4686,23,-87,-37,34
788,-1897,-2,97,-4695,23,-87,-40,35
789,-1898,-1,96,-4694,23,-87,-39,35
790,-1896,-4,96,-4693,23,-90,-39,35
791,-1895,-2,98,-4691,23,-87,-38,34
792,-1897,-2,94,-4693,23,-86,-38,34
793,-1897,1,91,-4695,23,-87,-37,35
794,-1896,-3,95,-4693,23,-86,-39,37
795,-1896,-1,91,-4697,23,-87,-37,34
796,-1897,-1,94,-4694,23,-89,-38,35
797,-1898,-1,94,-4693,23,-87,-38,34
798,-1898,-3,93,-4695,23,-87,-38,34
799,-1893,-5,96,-4697,23,-87,-39,35
800,-1893,-4,100,-4700,23,-86,-40,35
801,-1893,-4,88,-4700,23,-87,-40,34
802,-1892,-1,90,-4697,23,-87,-38,35
803,-1893,-3,97,-4687,23,-87,-40,34
804,-1894,-5,98,-4686,23,-87,-39,35
805,-1900,-4,96,-4691,23,-88,-39,35
806,-1894,0,89,-4687,23,-88,-40,35
807,-1893,0,92,-4692,23,-87,-39,34
808,-1893,-2,92,-4693,23,-86,-40,35
809,-1894,-1,96,-4692,23,-86,-40,36
810,-1896,0,94,-4691,23,-88,-41,33
811,-1896,0,94,-4699,23,-88,-40,33
812,-1896,2,94,-4698,23,-88,-38,33
813,-1898,-3,94,-4697,23,-85,-38,34
814,-1896,-3,94,-4697,23,-87,-38,36
815,-1896,-2,94,-4689,23,-88,-36,36
816,-1895,-4,91,-4696,23,-86,-36,35
817,-1895,-6,88,-4687,23,-87,-38,34
818,-1894,-2,91,-4687,23,-86,-38,35
819,-1896,-5,99,-4686,23,-88,-38,34
820,-1894,-4,94,-4687,23,-87,-37,33
821,-1893,0,100,-4689,23,-86,-38,34
822,-1893,2,98,-4688,23,-87,-38,35
823,-1895,0,96,-4695,23,-87,-38,33
824,-1893,-6,97,-4693,23,-88,-39,36
825,-1895,-6,92,-4692,23,-88,-39,33
826,-1892,-4,90,-4693,23,-87,-40,34
827,-1889,-3,88,-4694,23,-88,-40,32
828,-1894,-1,92,-4692,23,-87,-39,32
829,-1896,1,93,-4690,23,-87,-38,35
830,-1894,0,98,-4692,23,-87,-38,34
831,-1893,-2,96,-4693,23,-86,-40,34
832,-1893,-4,94,-4695,23,-86,-39,36
833,-1892,-4,95,-4689,23,-86,-38,36
834,-1897,-4,90,-4689,23,-88,-38,35
835,-1897,-1,89,-4689,23,-87,-38,36
836,-1898,-2,94,-4696,23,-88,-40,34
837,-1893,-1,94,-4694,23,-88,-39,34
838,-1894,1,97,-4692,23,-87,-39,35
839,-1896,-2,94,-4690,23,-86,-39,34
840,-1895,-3,92,-4689,23,-86,-40,34
841,-1891,-4,95,-4691,23,-86,-39,36
842,-1892,-1,94,-4691,23,-85,-40,34
843,-1893,-1,95,-4695,23,-86,-40,35
844,-1894,-2,94,-4695,23,-88,-39,35
845,-1895,-1,93,-4689,23,-88,-38,34
846,-1896,-2,93,-4691,23,-88,-38,35
847,-1897,-4,90,-4693,23,-87,-37,36
848,-1896,-4,91,-4699,23,-87,-39,35
849,-1897,2,93,-4696,23,-85,-38,34
850,-1897,-2,97,-4696,23,-87,-39,35
851,-1896,1,91,-4702,23,-87,-40,35
852,-1894,0,93,-4700,23,-87,-40,34
853,-1896,-1,95,-4701,23,-88,-38,35
854,-1894,1,98,-4700,23,-86,-37,34
855,-1897,-1,93,-4696,23,-86,-37,34
856,-1895,-1,92,-4697,23,-88,-38,34
857,-1894,-3,90,-4694,23,-88,-38,35
858,-1891,-7,89,-4692,23,-88,-40,35
859,-1895,-2,91,-4697,23,-87,-39,34
860,-1895,3,91,-4690,23,-87,-40,34
861,-1897,-1,91,-4690,23,-85,-39,33
862,-1899,0,97,-4690,23,-87,-40,34
863,-1892,-1,93,-4693,23,-87,-38,35
864,-1897,0,89,-4694,23,-88,-40,36
865,-1896,-2,88,-4697,23,-89,-38,36
866,-1896,-1,91,-4698,23,-88,-39,34
867,-1894,-3,93,-4697,23,-88,-39,34
868,-1894,-3,94,-4697,23,-86,-39,35
869,-1893,-7,91,-4694,23,-86,-39,35
870,-1893,0,92,-4692,23,-86,-39,34
871,-1896,-5,93,-4690,23,-87,-40,33
872,-1891,-3,92,-4694,23,-89,-39,34
873,-1889,-6,90,-4694,23,-89,-38,35
874,-1893,-5,96,-4696,23,-86,-39,34
875,-1895,-7,92,-4692,23,-86,-39,33
876,-1897,-6,97,-4694,23,-87,-40,34
877,-1894,-3,91,-4694,23,-86,-40,34
878,-1893,-3,88,-4693,23,-87,-40,33
879,-1891,-2,91,-4696,23,-87,-39,33
880,-1893,0,87,-4697,23,-86,-39,34
881,-1895,1,92,-4691,23,-85,-39,33
882,-1895,-4,91,-4693,23,-87,-41,34
883,-1895,-3,92,-4693,23,-87,-40,35
884,-1893,-3,98,-4697,23,-88,-38,33
885,-1895,-2,94,-4696,23,-87,-40,35
886,-1894,-1,89,-4692,23,-86,-38,36
887,-1894,-4,89,-4697,23,-88,-39,36
888,-1897,-5,93,-4695,23,-88,-39,35
889,-1894,-2,94,-4692,23,-88,-40,34
890,-1894,-3,91,-4696,23,-87,-38,34
891,-1897,0,92,-4696,23,-89,-37,35
892,-1897,-3,95,-4689,23,-86,-37,35
893,-1895,1,92,-4693,23,-86,-38,35
894,-1896,3,93,-4695,23,-88,-39,35
895,-1896,1,95,-4698,23,-89,-39,35
896,-1897,0,94,-4691,23,-86,-37,34
897,-1895,4,94,-4687,23,-87,-37,33
898,-1896,0,97,-4697,23,-85,-39,34
899,-1892,0,95,-4700,23,-86,-37,34
900,-1893,-5,95,-4695,23,-87,-38,34
901,-1890,-1,90,-4699,23,-86,-39,33
902,-1891,-1,93,-4700,23,-86,-38,33
903,-1894,0,91,-4695,23,-87,-38,35
904,-1892,-1,93,-4696,23,-88,-37,34
905,-1894,-3,93,-4698,23,-89,-38,33
906,-1893,0,88,-4704,23,-87,-38,35
907,-1893,-1,96,-4699,23,-87,-38,35
908,-1897,-2,88,-4696,23,-87,-36,35
909,-1897,-3,90,-4693,23,-87,-37,34
910,-1895,-3,89,-4697,23,-87,-38,33
911,-1894,-3,90,-4697,23,-87,-38,34
912,-1893,-2,87,-4694,23,-87,-39,35
913,-1893,-1,93,-4695,23,-89,-37,35
914,-1894,1,97,-4692,23,-88,-37,35
915,-1893,0,93,-4691,23,-87,-37,34
916,-1894,1,91,-4698,23,-86,-37,35
917,-1892,0,91,-4698,23,-85,-39,36
918,-1892,-2,89,-4696,23,-87,-39,35
919,-1889,0,97,-4695,23,-88,-39,37
920,-1890,-2,95,-4693,23,-87,-39,35
921,-1894,-3,94,-4696,23,-85,-39,37
922,-1896,-3,95,-4696,23,-90,-41,35
923,-1898,-2,97,-4694,23,-88,-40,34
924,-1895,0,94,-4690,23,-88,-36,33
925,-1895,1,102,-4695,23,-89,-38,35
926,-1897,1,94,-4696,23,-86,-38,35
927,-1893,-3,92,-4694,23,-87,-40,35
928,-1895,-4,97,-4692,23,-86,-40,35
929,-1899,-5,94,-4692,23,-86,-40,34
930,-1898,-1,91,-4689,23,-85,-39,36
931,-1898,2,94,-4693,23,-87,-39,34
932,-1896,-4,90,-4691,23,-86,-39,33
933,-1895,0,95,-4694,23,-85,-40,33
934,-1897,1,95,-4697,23,-86,-39,34
935,-1897,-4,91,-4698,23,-87,-38,35
936,-1893,-2,93,-4693,23,-86,-39,35
937,-1897,-1,94,-4687,23,-86,-39,36
938,-1891,0,91,-4688,23,-87,-41,36
939,-1893,-4,96,-4687,23,-88,-39,36
940,-1898,-1,96,-4691,23,-86,-36,37
941,-1896,0,94,-4690,23,-89,-39,36
942,-1896,-4,106,-4691,23,-87,-39,35
943,-1896,-3,94,-4690,23,-86,-38,35
944,-1895,-1,94,-4689,23,-87,-40,34
945,-1897,-2,90,-4687,23,-87,-40,34
946,-1897,-3,88,-4688,23,-88,-38,34
947,-1894,0,93,-4689,23,-86,-38,34
948,-1892,-3,87,-4686,23,-87,-37,34
949,-1896,0,94,-4692,23,-85,-37,34
950,-1896,-4,95,-4693,23,-87,-37,34
951,-1898,-4,93,-4689,23,-88,-38,35
952,-1898,0,95,-4688,23,-87,-39,34
953,-1897,-2,88,-4693,23,-86,-39,34
954,-1896,-5,93,-4696,23,-87,-39,34
955,-1894,-3,91,-4692,23,-89,-39,35
956,-1896,-2,95,-4691,23,-88,-39,36
957,-1899,-2,93,-4695,23,-87,-38,35
958,-1891,0,98,-4693,23,-88,-39,34
959,-1893,-1,92,-4693,23,-87,-41,35
960,-1895,-3,99,-4689,23,-86,-40,35
961,-1895,-2,93,-4688,23,-85,-40,34
962,-1898,-3,92,-4694,23,-87,-40,35
963,-1894,-2,89,-4697,23,-89,-39,36
964,-1891,-2,91,-4695,23,-89,-37,35
965,-1894,-2,89,-4696,23,-87,-38,33
966,-1896,-3,93,-4698,23,-87,-39,34
967,-1894,-1,91,-4697,23,-86,-39,36
968,-1892,-1,93,-4691,23,-87,-39,36
969,-1896,1,95,-4690,23,-88,-38,36
970,-1892,-1,91,-4693,23,-87,-37,34
971,-1894,-3,95,-4697,23,-86,-38,35
972,-1894,-1,95,-4692,23,-85,-39,34
973,-1896,-3,95,-4696,23,-86,-38,34
974,-1892,-1,96,-4699,23,-87,-40,35
975,-1896,0,95,-4695,23,-88,-39,33
976,-1895,-2,92,-4697,23,-87,-39,33
977,-1894,2,101,-4695,23,-87,-37,36
978,-1895,1,94,-4694,23,-86,-38,37
979,-1899,0,94,-4694,23,-85,-41,35
980,-1899,0,94,-4696,23,-86,-39,36
981,-1893,1,90,-4696,23,-87,-38,35
982,-1897,2,92,-4691,23,-88,-37,34
983,-1897,1,92,-4693,23,-87,-38,34
984,-1894,-3,92,-4690,23,-86,-38,35
985,-1893,0,92,-4692,23,-87,-38,36
986,-1895,-1,91,-4693,23,-86,-36,36
987,-1897,-3,94,-4693,23,-87,-38,35
988,-1893,0,93,-4694,23,-87,-39,35
989,-1894,-1,90,-4694,23,-87,-40,34
990,-1896,0,95,-4693,23,-88,-39,35
991,-1895,-2,94,-4691,23,-87,-39,34
992,-1892,0,90,-4695,23,-86,-39,34
993,-1892,-3,93,-4694,23,-86,-40,34
994,-1895,-3,96,-4695,23,-87,-40,35
995,-1896,-6,98,-4693,23,-88,-38,34
996,-1893,-5,92,-4690,23,-90,-39,36
997,-1895,-2,95,-4688,23,-88,-38,34
998,-1896,-2,95,-4686,23,-87,-38,34
