,acc_X,acc_Y,acc_Z,temp,tempC,gyr_X,gyr_Y,gyr_Z
0,-15154,30,758,-4724,23,-176,-71,65
1,-15220,-58,762,-4739,23,-179,-80,72
2,-15188,-14,802,-4736,23,-175,-78,69
3,-15156,-22,694,-4746,23,-171,-82,76
4,-15164,-6,686,-4749,23,-165,-79,73
5,-15254,8,750,-4735,23,-172,-76,67
6,-15174,-18,718,-4739,23,-175,-70,67
7,-15114,18,814,-4736,23,-174,-72,74
8,-15096,14,802,-4736,23,-172,-72,68
9,-15110,16,702,-4744,23,-166,-79,67
10,-15152,38,710,-4737,23,-173,-75,63
11,-15160,-8,742,-4742,23,-170,-74,67
12,-15162,14,744,-4743,23,-174,-82,62
13,-15204,0,742,-4739,23,-178,-77,69
14,-15166,-20,720,-4731,23,-177,-76,73
15,-15112,-4,726,-4731,23,-177,-64,72
16,-15158,-20,812,-4737,23,-183,-82,70
17,-15120,-20,712,-4740,23,-176,-81,64
18,-15202,78,710,-4733,23,-177,-73,69
19,-15248,-2,760,-4736,23,-172,-79,71
20,-15198,16,746,-4740,23,-175,-75,72
21,-15174,-2,700,-4740,23,-175,-79,75
22,-15162,0,772,-4749,23,-177,-76,72
23,-15188,-28,752,-4732,23,-169,-72,71
24,-15120,-22,694,-4735,23,-175,-78,68
25,-15156,-24,778,-4742,23,-173,-84,74
26,-15132,22,656,-4748,23,-173,-76,71
27,-15248,4,702,-4729,23,-170,-82,66
28,-15140,54,720,-4746,23,-172,-78,71
29,-15142,42,748,-4724,23,-170,-77,72
30,-15182,-74,828,-4746,23,-174,-70,74
31,-15154,0,860,-4745,23,-175,-84,73
32,-15140,-2,736,-4747,23,-180,-73,71
33,-15116,-48,736,-4746,23,-172,-78,72
34,-15092,-44,718,-4727,23,-166,-75,72
35,-15140,-76,678,-4734,23,-171,-67,75
36,-15112,30,754,-4748,23,-172,-73,71
37,-15194,42,870,-4733,23,-173,-81,75
38,-15182,-52,830,-4739,23,-179,-82,70
39,-15132,48,764,-4731,23,-176,-76,73
40,-15120,16,704,-4742,23,-179,-73,74
41,-15156,-20,776,-4739,23,-171,-72,77
42,-15154,36,744,-4740,23,-175,-72,68
43,-15200,20,784,-4744,23,-172,-71,72
44,-15168,-46,788,-4741,23,-175,-75,67
45,-15192,0,724,-4739,23,-174,-75,73
46,-15196,4,860,-4736,23,-168,-81,74
47,-15162,16,774,-4750,23,-175,-74,66
48,-15150,-32,684,-4726,23,-171,-73,69
49,-15164,-2,762,-4735,23,-172,-81,67
50,-15110,30,692,-4739,23,-180,-78,70
51,-15176,4,732,-4737,23,-168,-70,70
52,-15158,-54,830,-4737,23,-172,-77,71
53,-15222,-78,680,-4740,23,-171,-79,73
54,-15134,-70,710,-4739,23,-178,-73,65
55,-15154,-38,682,-4731,23,-168,-90,72
56,-15178,-6,808,-4743,23,-174,-82,73
57,-15144,-14,676,-4728,23,-173,-74,74
58,-15146,-26,790,-4735,23,-181,-78,64
59,-15160,-2,792,-4740,23,-174,-78,74
60,-15138,-16,674,-4741,23,-171,-79,73
61,-15176,-50,718,-4740,23,-178,-75,69
62,-15110,2,680,-4730,23,-169,-79,74
63,-15126,-6,748,-4735,23,-174,-77,68
64,-15170,48,812,-4749,23,-180,-82,71
65,-15078,-64,758,-4736,23,-176,-78,73
66,-15170,16,740,-4744,23,-180,-78,67
67,-15134,-18,774,-4738,23,-174,-74,70
68,-15148,38,694,-4732,23,-177,-77,68
69,-15130,-52,776,-4742,23,-172,-77,65
70,-15130,-48,770,-4732,23,-168,-84,67
71,-15176,-8,694,-4737,23,-172,-76,70
72,-15142,-28,716,-4738,23,-178,-71,66
73,-15222,26,768,-4738,23,-176,-74,66
74,-15138,-14,712,-4742,23,-171,-76,69
75,-15180,-54,746,-4731,23,-172,-79,73
76,-15158,20,718,-4729,23,-177,-78,68
77,-15172,-2,710,-4742,23,-181,-74,69
78,-15132,2,732,-4732,23,-169,-80,72
79,-15122,-10,746,-4740,23,-174,-75,72
80,-15180,26,702,-4740,23,-178,-74,76
81,-15172,-8,746,-4742,23,-178,-75,63
82,-15134,22,744,-4739,23,-171,-77,71
83,-15220,-10,740,-4746,23,-176,-79,70
84,-15164,-24,744,-4749,23,-174,-75,68
85,-15160,-2,728,-4736,23,-175,-80,67
86,-15126,-32,754,-4733,23,-172,-76,61
87,-15074,-6,786,-4742,23,-174,-82,66
88,-15188,-74,684,-4731,23,-167,-75,72
89,-15194,18,724,-4732,23,-179,-80,73
90,-15106,-8,746,-4735,23,-175,-82,63
91,-15142,36,720,-4738,23,-173,-76,67
92,-15156,22,782,-4739,23,-174,-77,68
93,-15152,-24,808,-4746,23,-178,-79,64
94,-15192,22,686,-4739,23,-172,-70,73
95,-15152,2,662,-4735,23,-172,-75,71
96,-15210,-36,810,-4745,23,-176,-71,64
97,-15152,12,692,-4732,23,-174,-72,68
98,-15156,-18,728,-4733,23,-176,-73,68
99,-15186,24,766,-4744,23,-170,-79,68
100,-15168,-18,692,-4736,23,-163,-72,71
101,-15200,-72,750,-4748,23,-177,-71,67
102,-15154,14,722,-4743,23,-177,-76,70
103,-15104,-90,722,-4735,23,-172,-79,64
104,-15186,-46,724,-4730,23,-177,-82,70
105,-15132,-18,802,-4746,23,-173,-76,73
106,-15206,-20,800,-4738,23,-171,-79,72
107,-15162,4,744,-4744,23,-182,-78,67
108,-15138,-2,698,-4729,23,-172,-84,66
109,-15154,18,800,-4727,23,-169,-67,73
110,-15164,-14,742,-4732,23,-174,-77,68
111,-15090,-32,762,-4742,23,-174,-79,70
112,-15164,46,690,-4745,23,-171,-81,67
113,-15124,74,766,-4740,23,-173,-79,71
114,-15164,24,762,-4733,23,-178,-76,71
115,-15148,-30,784,-4736,23,-170,-73,69
116,-15184,8,692,-4740,23,-175,-80,73
117,-15148,-54,842,-4748,23,-175,-73,71
118,-15148,-14,804,-4737,23,-177,-80,70
119,-15150,-2,728,-4737,23,-177,-80,63
120,-15210,44,740,-4747,23,-174,-79,65
121,-15168,2,706,-4741,23,-170,-83,68
122,-15176,-24,732,-4734,23,-178,-76,68
123,-15188,44,690,-4744,23,-173,-84,65
124,-15174,4,790,-4734,23,-167,-82,69
125,-15164,-22,704,-4732,23,-174,-79,67
126,-15188,6,740,-4739,23,-170,-73,66
127,-15206,0,680,-4742,23,-165,-75,66
128,-15142,32,704,-4744,23,-175,-81,72
129,-15204,26,724,-4735,23,-175,-87,69
130,-15136,-30,726,-4732,23,-176,-74,69
131,-15196,-52,712,-4746,23,-178,-80,70
132,-15186,10,682,-4743,23,-178,-80,73
133,-15190,-70,754,-4732,23,-170,-79,69
134,-15160,-78,778,-4741,23,-173,-78,68
135,-15198,4,750,-4731,23,-174,-81,72
136,-15172,-8,738,-4734,23,-175,-78,70
137,-15138,8,742,-4734,23,-174,-80,64
138,-15176,16,810,-4739,23,-174,-79,74
139,-15170,-46,706,-4727,23,-170,-72,75
140,-15196,-64,854,-4750,23,-177,-80,76
141,-15134,12,762,-4746,23,-182,-81,71
142,-15188,-2,708,-4727,23,-179,-77,77
143,-15202,-48,740,-4733,23,-176,-75,71
144,-15110,-6,772,-4731,23,-180,-80,60
145,-15180,-80,802,-4734,23,-178,-76,71
146,-15146,62,760,-4726,23,-174,-77,64
147,-15180,-24,672,-4739,23,-171,-77,70
148,-15152,-12,828,-4729,23,-172,-81,69
149,-15148,-38,678,-4728,23,-174,-74,65
150,-15174,-8,798,-4738,23,-172,-77,66
151,-15126,32,702,-4733,23,-168,-80,69
152,-15144,6,726,-4730,23,-171,-70,77
153,-15160,-4,818,-4729,23,-176,-85,67
154,-15190,-10,712,-4727,23,-178,-76,71
155,-15160,-64,752,-4732,23,-175,-73,69
156,-15142,8,712,-4729,23,-174,-76,70
157,-15178,10,708,-4733,23,-169,-77,64
158,-15190,-98,706,-4734,23,-179,-75,70
159,-15106,-48,760,-4735,23,-172,-80,68
160,-15154,6,736,-4727,23,-171,-71,69
161,-15174,-4,738,-4732,23,-170,-73,73
162,-15194,6,758,-4740,23,-173,-75,72
163,-15188,16,756,-4738,23,-175,-83,66
164,-15166,62,840,-4738,23,-175,-80,64
165,-15152,8,734,-4746,23,-169,-75,68
166,-15160,2,724,-4738,23,-177,-73,69
167,-15158,-38,746,-4736,23,-170,-83,65
168,-15136,62,750,-4735,23,-175,-72,65
169,-15128,-4,732,-4733,23,-175,-74,66
170,-15166,12,730,-4737,23,-174,-80,73
171,-15158,-16,744,-4736,23,-175,-75,64
172,-15132,2,832,-4742,23,-183,-87,67
173,-15146,22,770,-4734,23,-176,-79,72
174,-15162,2,712,-4741,23,-174,-77,73
175,-15206,-4,820,-4734,23,-173,-75,72
176,-15206,-44,772,-4744,23,-173,-76,69
177,-15170,-12,808,-4738,23,-172,-77,72
178,-15140,-4,696,-4733,23,-178,-74,72
179,-15194,-30,698,-4735,23,-173,-71,68
180,-15134,-48,852,-4743,23,-179,-69,67
181,-15180,-38,812,-4745,23,-176,-81,64
182,-15152,4,722,-4737,23,-178,-76,71
183,-15172,18,746,-4751,23,-179,-75,69
184,-15206,-62,846,-4743,23,-171,-77,66
185,-15188,8,776,-4732,23,-171,-85,72
186,-15128,46,768,-4739,23,-168,-76,68
187,-15144,-26,696,-4741,23,-172,-76,64
188,-15178,-4,760,-4733,23,-172,-80,76
189,-15186,-28,754,-4741,23,-171,-79,71
190,-15142,-56,744,-4739,23,-175,-74,73
191,-15170,2,656,-4730,23,-173,-80,70
192,-15180,-22,716,-4744,23,-172,-71,71
193,-15126,32,664,-4732,23,-174,-76,68
194,-15174,-38,666,-4736,23,-176,-77,68
195,-15198,34,714,-4736,23,-169,-75,65
196,-15156,4,778,-4724,23,-179,-82,78
197,-15156,-16,782,-4736,23,-170,-76,69
198,-15140,-4,684,-4731,23,-177,-85,70
199,-15100,10,774,-4728,23,-176,-74,72
200,-15170,-22,804,-4732,23,-175,-79,73
201,-15180,-16,740,-4739,23,-175,-73,70
202,-15096,-40,754,-4737,23,-175,-85,72
203,-15198,0,768,-4740,23,-174,-77,69
204,-15152,-32,864,-4738,23,-169,-79,70
205,-15084,20,832,-4734,23,-174,-76,71
206,-15116,12,800,-4739,23,-175,-71,70
207,-15198,6,746,-4736,23,-169,-80,66
208,-15070,16,660,-4745,23,-172,-77,76
209,-15126,-14,770,-4724,23,-175,-77,76
210,-15166,-20,678,-4739,23,-173,-71,73
211,-15180,-22,754,-4731,23,-172,-81,75
212,-15102,-28,716,-4724,23,-175,-78,70
213,-15184,-18,792,-4738,23,-179,-71,72
214,-15164,48,696,-4732,23,-177,-73,71
215,-15098,-40,772,-4729,23,-179,-70,71
216,-15194,-34,720,-4728,23,-174,-77,70
217,-15184,-38,748,-4730,23,-179,-75,67
218,-15212,-24,710,-4738,23,-176,-79,69
219,-15198,-20,694,-4730,23,-175,-74,61
220,-15192,-82,814,-4731,23,-173,-76,70
221,-15088,-38,746,-4726,23,-177,-80,71
222,-15140,-40,734,-4729,23,-175,-74,69
223,-15148,-12,748,-4737,23,-171,-78,65
224,-15152,26,758,-4725,23,-174,-75,67
225,-15214,8,772,-4740,23,-166,-85,71
226,-15122,-30,730,-4734,23,-170,-75,69
227,-15132,6,772,-4743,23,-171,-77,71
228,-15172,6,858,-4736,23,-179,-74,71
229,-15136,32,686,-4734,23,-176,-75,73
230,-15156,14,824,-4730,23,-173,-74,68
231,-15130,-26,776,-4736,23,-173,-71,68
232,-15080,-32,736,-4728,23,-176,-79,68
233,-15178,32,716,-4733,23,-177,-82,71
234,-15164,-44,814,-4730,23,-175,-75,75
235,-15124,-8,712,-4740,23,-182,-79,68
236,-15150,-48,772,-4736,23,-175,-78,70
237,-15102,-38,702,-4736,23,-176,-75,70
238,-15140,-52,702,-4732,23,-175,-76,70
239,-15194,-14,770,-4736,23,-182,-81,66
240,-15178,-48,756,-4742,23,-182,-74,72
241,-15182,-26,700,-4738,23,-171,-79,65
242,-15196,-46,778,-4737,23,-172,-80,69
243,-15168,-18,652,-4732,23,-173,-72,65
244,-15140,-54,774,-4740,23,-167,-78,64
245,-15166,-26,760,-4730,23,-180,-74,75
246,-15166,-18,770,-4738,23,-173,-78,67
247,-15178,2,702,-4734,23,-175,-72,73
248,-15092,0,684,-4738,23,-178,-86,69
249,-15122,-44,728,-4738,23,-170,-77,68
250,-15150,-14,728,-4739,23,-172,-81,79
251,-15152,-20,798,-4726,23,-176,-77,73
252,-15164,-12,730,-4730,23,-170,-81,69
253,-15142,-30,768,-4727,23,-174,-81,70
254,-15140,4,698,-4744,23,-169,-77,65
255,-15154,-52,780,-4731,23,-178,-68,66
256,-15220,-22,738,-4733,23,-173,-73,68
257,-15176,26,738,-4731,23,-172,-82,69
258,-15150,34,802,-4735,23,-170,-81,69
259,-15180,-38,778,-4733,23,-176,-81,73
260,-15132,-40,748,-4733,23,-173,-75,70
261,-15154,-32,738,-4731,23,-182,-77,71
262,-15140,20,782,-4732,23,-174,-77,75
263,-15150,-36,682,-4721,23,-174,-77,69
264,-15094,54,798,-4736,23,-180,-76,65
265,-15134,40,682,-4720,23,-172,-75,67
266,-15092,-20,682,-4725,23,-177,-79,72
267,-15154,-16,762,-4735,23,-169,-79,70
268,-15148,18,712,-4725,23,-174,-70,66
269,-15194,-46,732,-4718,23,-172,-80,65
270,-15126,2,806,-4728,23,-174,-73,64
271,-15112,8,758,-4734,23,-173,-81,63
272,-15140,0,734,-4727,23,-173,-81,67
273,-15130,-28,712,-4732,23,-175,-74,70
274,-15148,2,768,-4724,23,-178,-68,75
275,-15096,40,758,-4729,23,-175,-73,67
276,-15152,-24,854,-4723,23,-174,-80,71
277,-15140,-38,790,-4736,23,-173,-80,68
278,-15152,-36,808,-4735,23,-170,-79,74
279,-15160,-48,794,-4741,23,-177,-87,68
280,-15144,4,790,-4741,23,-167,-81,74
281,-15146,-10,828,-4724,23,-178,-77,68
282,-15150,-62,728,-4742,23,-176,-80,62
283,-15124,-48,740,-4728,23,-167,-79,71
284,-15174,-16,772,-4729,23,-177,-82,66
285,-15196,-44,748,-4740,23,-172,-74,70
286,-15118,28,818,-4732,23,-179,-73,71
287,-15166,20,750,-4732,23,-172,-78,67
288,-15140,36,718,-4733,23,-176,-80,75
289,-15080,14,734,-4732,23,-175,-71,71
290,-15100,38,770,-4743,23,-172,-81,65
291,-15214,6,810,-4741,23,-175,-80,75
292,-15134,-4,740,-4731,23,-176,-73,69
293,-15158,-50,732,-4741,23,-168,-78,74
294,-15158,12,810,-4716,23,-175,-73,67
295,-15138,-72,762,-4738,23,-172,-71,77
296,-15154,24,782,-4729,23,-179,-68,69
297,-15228,0,736,-4738,23,-168,-73,68
298,-15178,58,832,-4726,23,-171,-77,67
299,-15198,38,776,-4730,23,-176,-73,73
300,-15158,4,874,-4745,23,-173,-79,68
301,-15218,-8,794,-4734,23,-182,-77,70
302,-15152,-28,722,-4750,23,-172,-76,66
303,-15098,-46,750,-4734,23,-176,-76,71
304,-15122,-10,768,-4730,23,-170,-76,72
305,-15116,-32,770,-4732,23,-169,-76,68
306,-15138,-6,816,-4724,23,-167,-74,69
307,-15186,-80,692,-4722,23,-179,-78,74
308,-15150,-10,740,-4727,23,-169,-76,76
309,-15118,-48,804,-4719,23,-167,-76,69
310,-15120,20,782,-4737,23,-173,-82,66
311,-15164,20,754,-4731,23,-180,-77,75
312,-15160,8,830,-4733,23,-173,-75,67
313,-15188,2,790,-4738,23,-177,-73,73
314,-15170,-52,698,-4734,23,-174,-80,68
315,-15164,-32,702,-4730,23,-175,-76,71
316,-15144,-64,764,-4735,23,-176,-81,68
317,-15112,-36,770,-4734,23,-172,-78,67
318,-15180,16,750,-4738,23,-177,-76,68
319,-15172,-10,694,-4730,23,-171,-73,67
320,-15124,-26,802,-4731,23,-175,-83,74
321,-15150,16,686,-4732,23,-166,-72,61
322,-15182,-18,736,-4736,23,-176,-79,80
323,-15134,-68,758,-4735,23,-178,-80,72
324,-15090,0,718,-4730,23,-174,-69,69
325,-15162,-30,772,-4739,23,-177,-76,73
326,-15158,-22,758,-4732,23,-173,-82,66
327,-15150,-42,696,-4728,23,-177,-73,62
328,-15166,-50,704,-4733,23,-173,-70,66
329,-15148,-28,654,-4735,23,-176,-73,72
330,-15180,14,756,-4735,23,-176,-77,68
331,-15128,-22,816,-4728,23,-171,-76,64
332,-15174,-36,756,-4730,23,-172,-74,74
333,-15152,-24,836,-4725,23,-180,-81,72
334,-15196,-36,776,-4727,23,-171,-69,66
335,-15134,-8,636,-4741,23,-175,-78,70
336,-15202,-40,738,-4734,23,-174,-79,66
337,-15188,-8,734,-4730,23,-177,-84,68
338,-15118,6,696,-4736,23,-167,-73,68
339,-15108,-6,710,-4732,23,-171,-65,70
340,-15182,-2,698,-4724,23,-180,-85,65
341,-15120,-42,754,-4734,23,-174,-84,68
342,-15138,-22,724,-4736,23,-174,-82,71
343,-15194,-42,772,-4732,23,-177,-80,65
344,-15170,-38,740,-4729,23,-173,-80,77
345,-15188,-30,806,-4733,23,-177,-69,66
346,-15142,-38,716,-4731,23,-171,-74,73
347,-15156,-4,746,-4730,23,-174,-74,65
348,-15154,-16,766,-4730,23,-173,-76,64
349,-15176,10,728,-4729,23,-173,-72,65
350,-15162,-52,838,-4729,23,-169,-70,75
351,-15096,-18,748,-4736,23,-173,-73,71
352,-15142,-2,758,-4733,23,-170,-72,71
353,-15086,-12,744,-4727,23,-171,-78,73
354,-15204,18,822,-4718,23,-174,-78,68
355,-15152,40,666,-4727,23,-175,-75,69
356,-15140,-36,648,-4731,23,-180,-82,71
357,-15166,-32,744,-4737,23,-170,-75,73
358,-15116,-24,730,-4726,23,-171,-76,67
359,-15132,-30,746,-4733,23,-178,-80,66
360,-15140,-28,846,-4733,23,-174,-76,71
361,-15160,2,706,-4734,23,-173,-81,71
362,-15052,-60,708,-4728,23,-180,-79,71
363,-15126,-32,732,-4735,23,-176,-76,74
364,-15150,8,714,-4733,23,-176,-74,70
365,-15194,6,800,-4730,23,-173,-81,69
366,-15148,0,762,-4735,23,-176,-70,74
367,-15182,-22,728,-4722,23,-177,-72,77
368,-15200,-22,790,-4734,23,-178,-76,70
369,-15166,-6,632,-4740,23,-174,-80,78
370,-15182,8,748,-4732,23,-176,-73,73
371,-15106,-2,654,-4724,23,-168,-81,69
372,-15128,-66,712,-4733,23,-168,-72,68
373,-15166,-28,724,-4728,23,-174,-69,68
374,-15184,-26,730,-4733,23,-179,-82,72
375,-15196,-8,764,-4742,23,-179,-79,72
376,-15180,-40,798,-4720,23,-174,-72,66
377,-15224,48,804,-4730,23,-169,-76,68
378,-15162,2,706,-4730,23,-176,-73,66
379,-15142,56,750,-4729,23,-171,-71,66
380,-15178,-10,776,-4718,23,-173,-85,69
381,-15106,-28,764,-4726,23,-175,-85,69
382,-15172,-28,710,-4733,23,-177,-81,63
383,-15170,10,786,-4720,23,-173,-78,70
384,-15122,-6,658,-4735,23,-175,-76,67
385,-15128,-2,758,-4736,23,-178,-78,68
386,-15166,-106,756,-4723,23,-170,-74,68
387,-15156,-56,748,-4724,23,-175,-81,66
388,-15130,-32,756,-4734,23,-174,-78,70
389,-15206,-20,712,-4731,23,-171,-77,65
390,-15190,-56,730,-4718,23,-167,-79,69
391,-15156,-24,790,-4735,23,-169,-75,74
392,-15184,36,806,-4729,23,-171,-72,71
393,-15164,20,790,-4726,23,-176,-79,73
394,-15122,-60,650,-4732,23,-176,-77,68
395,-15144,0,730,-4718,23,-168,-75,70
396,-15174,-18,784,-4730,23,-174,-75,71
397,-15154,-24,662,-4723,23,-172,-75,70
398,-15126,-36,742,-4740,23,-181,-78,72
399,-15144,-14,706,-4736,23,-174,-84,67
400,-15168,-62,718,-4739,23,-178,-82,61
401,-15164,-22,866,-4724,23,-174,-77,72
402,-15114,-38,900,-4729,23,-172,-72,62
403,-15182,22,684,-4722,23,-167,-78,61
404,-15192,24,736,-4740,23,-179,-71,66
405,-15194,-60,798,-4727,23,-178,-76,68
406,-15152,14,740,-4728,23,-174,-74,66
407,-15200,-38,710,-4722,23,-168,-82,70
408,-15176,28,710,-4745,23,-171,-74,72
409,-15108,-56,776,-4723,23,-173,-71,67
410,-15138,-70,678,-4744,23,-183,-76,66
411,-15174,40,696,-4735,23,-181,-80,61
412,-15166,-12,776,-4733,23,-171,-75,65
413,-15122,2,836,-4732,23,-171,-82,75
414,-15194,16,660,-4732,23,-178,-83,67
415,-15186,-40,780,-4727,23,-176,-69,71
416,-15124,-10,782,-4725,23,-166,-79,67
417,-15164,-24,810,-4727,23,-171,-78,65
418,-15108,32,756,-4726,23,-171,-77,71
419,-15168,12,798,-4733,23,-175,-65,62
420,-15144,86,720,-4721,23,-176,-73,67
421,-15140,36,904,-4723,23,-171,-67,73
422,-15118,58,794,-4737,23,-179,-72,68
423,-15148,-66,758,-4722,23,-172,-75,67
424,-15156,-30,732,-4728,23,-175,-74,68
425,-15118,-14,764,-4729,23,-167,-72,67
426,-15150,-30,770,-4733,23,-166,-80,72
427,-15122,18,750,-4731,23,-168,-75,65
428,-15146,-48,772,-4730,23,-170,-68,70
429,-15120,-36,782,-4733,23,-177,-78,70
430,-15208,-46,618,-4739,23,-172,-75,69
431,-15168,34,834,-4726,23,-172,-76,61
432,-15176,-10,798,-4740,23,-169,-72,78
433,-15212,-32,796,-4732,23,-178,-72,74
434,-15120,22,726,-4732,23,-184,-76,74
435,-15132,32,772,-4751,23,-173,-77,73
436,-15138,100,760,-4742,23,-176,-69,73
437,-15100,42,744,-4744,23,-169,-84,64
438,-15120,-52,750,-4735,23,-173,-73,67
439,-15154,38,672,-4735,23,-174,-72,65
440,-15096,10,686,-4735,23,-170,-69,70
441,-15160,54,748,-4730,23,-176,-85,68
442,-15176,-54,772,-4726,23,-166,-75,77
443,-15154,4,824,-4725,23,-170,-69,72
444,-15202,0,644,-4722,23,-177,-79,64
445,-15172,2,756,-4737,23,-170,-75,68
446,-15218,0,760,-4728,23,-175,-76,70
447,-15166,-28,804,-4736,23,-176,-71,75
448,-15144,-70,696,-4716,23,-175,-75,71
449,-15244,14,704,-4725,23,-168,-75,74
450,-15164,-32,700,-4727,23,-180,-74,68
451,-15156,4,666,-4725,23,-175,-77,73
452,-15140,-20,720,-4733,23,-167,-76,64
453,-15166,-68,732,-4725,23,-170,-80,67
454,-15144,-38,774,-4728,23,-171,-80,68
455,-15184,8,802,-4729,23,-177,-76,72
456,-15156,16,714,-4725,23,-175,-75,74
457,-15166,-30,784,-4731,23,-173,-70,60
458,-15140,6,656,-4722,23,-176,-73,67
459,-15122,-54,774,-4718,23,-172,-78,76
460,-15202,32,774,-4723,23,-174,-87,75
461,-15152,-18,730,-4736,23,-175,-75,72
462,-15140,30,752,-4731,23,-169,-73,67
463,-15192,2,688,-4734,23,-180,-75,73
464,-15144,-90,646,-4737,23,-179,-80,76
465,-15142,-12,668,-4730,23,-177,-75,69
466,-15194,16,812,-4731,23,-170,-69,75
467,-15164,12,678,-4727,23,-177,-78,72
468,-15180,-88,750,-4727,23,-173,-73,69
469,-15084,-44,834,-4728,23,-172,-72,74
470,-15208,-8,666,-4720,23,-172,-77,70
471,-15130,42,694,-4734,23,-170,-74,69
472,-15174,-44,780,-4728,23,-173,-73,71
473,-15134,-18,766,-4729,23,-171,-76,67
474,-15192,-14,648,-4730,23,-169,-72,75
475,-15122,14,784,-4715,23,-173,-77,71
476,-15152,-10,794,-4729,23,-175,-72,61
477,-15124,16,804,-4721,23,-177,-79,66
478,-15128,20,766,-4729,23,-174,-72,66
479,-15152,-4,792,-4732,23,-170,-78,66
480,-15158,-6,738,-4729,23,-175,-74,66
481,-15156,-30,792,-4738,23,-179,-79,68
482,-15118,-18,694,-4715,23,-172,-73,72
483,-15106,-12,734,-4739,23,-165,-82,70
484,-15154,78,778,-4726,23,-174,-75,63
485,-15186,-60,830,-4732,23,-177,-75,68
486,-15198,30,752,-4729,23,-175,-76,63
487,-15140,0,774,-4734,23,-170,-74,66
488,-15192,18,782,-4731,23,-172,-71,62
489,-15174,30,760,-4717,23,-178,-77,74
490,-15172,44,736,-4726,23,-179,-77,76
491,-15190,-12,828,-4720,23,-178,-77,71
492,-15122,12,672,-4724,23,-170,-77,75
493,-15228,-32,736,-4728,23,-172,-72,74
494,-15234,-20,720,-4735,23,-173,-81,71
495,-15142,-26,744,-4726,23,-178,-82,67
496,-15148,14,746,-4735,23,-179,-72,67
497,-15216,-40,728,-4719,23,-166,-75,73
498,-15082,32,720,-4726,23,-175,-83,66
499,-15198,-4,706,-4723,23,-178,-70,72
500,-15190,-20,828,-4734,23,-177,-77,70
501,-15098,-56,836,-4724,23,-176,-77,66
502,-15154,-56,776,-4733,23,-173,-76,75
503,-15206,-12,626,-4725,23,-167,-80,69
504,-15192,-26,772,-4724,23,-177,-81,71
505,-15212,8,678,-4725,23,-176,-74,72
506,-15198,-34,740,-4723,23,-168,-79,69
507,-15128,-20,684,-4726,23,-176,-75,66
508,-15132,58,712,-4722,23,-176,-76,69
509,-15122,-8,752,-4729,23,-175,-76,74
510,-15176,-36,800,-4717,23,-174,-75,74
511,-15178,-2,778,-4724,23,-174,-70,72
512,-15100,-56,848,-4729,23,-179,-78,66
513,-15158,4,818,-4731,23,-177,-77,71
514,-15192,32,744,-4713,23,-180,-75,69
515,-15146,14,672,-4737,23,-171,-83,69
516,-15156,-46,728,-4728,23,-174,-75,70
517,-15132,-6,722,-4731,23,-174,-74,68
518,-15186,-26,694,-4730,23,-179,-83,67
519,-15132,-56,688,-4729,23,-169,-73,68
520,-15138,-6,678,-4727,23,-178,-82,71
521,-15134,-20,810,-4730,23,-173,-81,68
522,-15136,-32,710,-4732,23,-175,-81,73
523,-15126,18,794,-4723,23,-173,-77,65
524,-15108,-22,800,-4728,23,-174,-71,72
525,-15218,40,676,-4729,23,-181,-77,66
526,-15176,8,774,-4720,23,-176,-72,65
527,-15170,-10,796,-4740,23,-172,-71,66
528,-15158,-60,686,-4728,23,-177,-77,71
529,-15162,-84,832,-4740,23,-174,-75,72
530,-15178,-14,676,-4730,23,-170,-82,71
531,-15212,-8,748,-4731,23,-172,-77,74
532,-15180,34,712,-4734,23,-171,-77,71
533,-15152,-20,786,-4737,23,-168,-76,68
534,-15100,10,864,-4719,23,-177,-76,69
535,-15174,-8,800,-4712,23,-173,-71,70
536,-15192,-8,758,-4718,23,-177,-69,80
537,-15180,-18,706,-4724,23,-174,-77,74
538,-15124,-56,794,-4724,23,-171,-72,74
539,-15136,-26,690,-4728,23,-167,-73,73
540,-15122,-62,724,-4739,23,-169,-79,71
541,-15224,-2,716,-4715,23,-178,-82,67
542,-15132,-34,782,-4715,23,-170,-78,70
543,-15178,-54,742,-4724,23,-174,-76,71
544,-15208,-40,708,-4725,23,-175,-75,68
545,-15126,-58,710,-4727,23,-166,-81,72
546,-15120,-38,784,-4717,23,-176,-76,73
547,-15086,-18,718,-4723,23,-170,-79,69
548,-15126,-26,744,-4729,23,-172,-72,69
549,-15198,-6,710,-4733,23,-177,-80,71
550,-15206,-46,750,-4728,23,-178,-75,64
551,-15112,-2,638,-4737,23,-176,-78,68
552,-15166,-40,646,-4723,23,-174,-69,69
553,-15086,16,794,-4739,23,-175,-76,72
554,-15156,-32,802,-4725,23,-178,-75,75
555,-15178,-46,798,-4719,23,-167,-79,67
556,-15144,-28,804,-4731,23,-174,-74,66
557,-15172,12,782,-4724,23,-179,-72,75
558,-15126,-48,710,-4729,23,-179,-75,74
559,-15170,26,690,-4725,23,-169,-74,72
560,-15146,-50,726,-4728,23,-173,-70,64
561,-15166,-22,800,-4720,23,-177,-79,76
562,-15192,-44,754,-4731,23,-170,-79,72
563,-15146,32,756,-4724,23,-167,-79,68
564,-15192,42,708,-4725,23,-178,-84,71
565,-15154,-4,778,-4719,23,-178,-74,71
566,-15184,2,794,-4713,23,-176,-74,76
567,-15136,-28,696,-4711,23,-177,-79,73
568,-15128,-28,704,-4716,23,-167,-78,71
569,-15076,2,778,-4721,23,-172,-77,73
570,-15202,-2,678,-4728,23,-169,-72,67
571,-15142,-16,794,-4728,23,-176,-75,68
572,-15142,-26,694,-4721,23,-173,-82,67
573,-15156,-54,806,-4727,23,-168,-76,73
574,-15142,-46,776,-4729,23,-174,-75,68
575,-15146,-34,710,-4720,23,-176,-68,68
576,-15172,-66,838,-4728,23,-177,-74,72
577,-15240,-44,690,-4723,23,-179,-76,66
578,-15152,8,734,-4726,23,-171,-78,67
579,-15190,48,778,-4735,23,-171,-78,73
580,-15114,-2,688,-4736,23,-176,-77,69
581,-15152,-2,766,-4737,23,-178,-85,70
582,-15206,-50,796,-4727,23,-174,-81,65
583,-15180,-32,732,-4724,23,-177,-71,75
584,-15134,6,780,-4726,23,-163,-73,68
585,-15162,-70,826,-4729,23,-178,-75,70
586,-15218,-84,676,-4715,23,-172,-71,70
587,-15178,24,732,-4729,23,-176,-78,67
588,-15134,0,744,-4718,23,-176,-76,65
589,-15120,26,776,-4723,23,-173,-75,68
590,-15204,-30,764,-4722,23,-178,-76,71
591,-15172,4,774,-4721,23,-175,-80,69
592,-15130,8,750,-4720,23,-178,-76,68
593,-15156,-22,668,-4730,23,-170,-73,73
594,-15276,-2,746,-4723,23,-169,-78,65
595,-15182,6,714,-4729,23,-177,-72,68
596,-15150,-94,758,-4733,23,-165,-71,76
597,-15170,32,688,-4733,23,-181,-79,69
598,-15158,24,676,-4720,23,-182,-71,65
599,-15190,-10,716,-4722,23,-182,-67,73
600,-15172,4,760,-4732,23,-175,-78,65
601,-15174,16,740,-4731,23,-165,-77,72
602,-15174,-6,706,-4731,23,-172,-77,68
603,-15140,-38,668,-4732,23,-181,-74,67
604,-15110,-22,854,-4727,23,-174,-82,74
605,-15152,14,690,-4727,23,-176,-75,72
606,-15152,36,714,-4720,23,-175,-73,69
607,-15136,42,752,-4744,23,-168,-74,72
608,-15146,22,784,-4727,23,-177,-74,65
609,-15130,28,640,-4722,23,-172,-77,69
610,-15156,-28,752,-4730,23,-173,-73,64
611,-15146,-60,756,-4732,23,-174,-70,72
612,-15176,-2,740,-4730,23,-176,-77,70
613,-15186,-52,824,-4717,23,-179,-74,69
614,-15152,-26,778,-4726,23,-175,-72,72
615,-15144,4,770,-4732,23,-173,-75,67
616,-15162,-2,688,-4728,23,-173,-71,72
617,-15210,-34,842,-4726,23,-183,-86,68
618,-15196,18,810,-4726,23,-171,-79,72
619,-15176,-24,638,-4724,23,-171,-75,72
620,-15198,-24,794,-4712,23,-174,-76,66
621,-15114,-34,702,-4714,23,-179,-76,61
622,-15136,-42,698,-4728,23,-169,-74,73
623,-15176,-56,814,-4724,23,-176,-76,69
624,-15142,-14,752,-4734,23,-171,-72,68
625,-15104,-44,762,-4730,23,-170,-73,71
626,-15138,6,830,-4723,23,-170,-78,69
627,-15106,-24,786,-4724,23,-178,-83,73
628,-15114,-20,788,-4720,23,-173,-71,71
629,-15198,-6,706,-4725,23,-171,-72,64
630,-15194,-6,736,-4725,23,-171,-74,69
631,-15186,40,686,-4718,23,-172,-83,71
632,-15088,26,758,-4734,23,-173,-74,73
633,-15192,-16,696,-4724,23,-167,-76,77
634,-15102,-32,748,-4726,23,-171,-73,66
635,-15158,-74,724,-4724,23,-172,-73,71
636,-15148,-4,752,-4727,23,-172,-78,68
637,-15158,24,736,-4725,23,-178,-74,65
638,-15106,30,754,-4723,23,-173,-73,66
639,-15140,-2,720,-4720,23,-173,-73,65
640,-15152,-2,722,-4722,23,-174,-84,68
641,-15124,-24,724,-4717,23,-179,-82,66
642,-15140,-58,752,-4727,23,-173,-72,70
643,-15128,-12,778,-4714,23,-171,-83,64
644,-15268,4,804,-4729,23,-176,-69,73
645,-15142,-60,782,-4727,23,-169,-79,73
646,-15176,-46,708,-4735,23,-174,-74,71
647,-15202,-12,700,-4735,23,-171,-83,60
648,-15138,-4,796,-4729,23,-171,-75,67
649,-15128,-76,738,-4728,23,-173,-82,72
650,-15158,16,804,-4714,23,-173,-72,71
651,-15182,-8,710,-4723,23,-176,-82,68
652,-15146,-12,640,-4722,23,-175,-74,76
653,-15134,-68,804,-4724,23,-174,-76,64
654,-15162,-46,716,-4716,23,-173,-76,71
655,-15102,-74,768,-4729,23,-176,-78,70
656,-15186,-24,744,-4713,23,-167,-78,70
657,-15194,-8,744,-4720,23,-172,-80,77
658,-15170,52,642,-4715,23,-171,-87,65
659,-15126,40,700,-4728,23,-173,-74,63
660,-15174,4,756,-4721,23,-173,-76,65
661,-15138,-40,698,-4722,23,-177,-77,70
662,-15174,-28,806,-4716,23,-174,-78,74
663,-15086,-16,794,-4711,23,-176,-76,69
664,-15188,6,756,-4729,23,-169,-70,69
665,-15188,-64,748,-4710,23,-178,-72,70
666,-15202,-12,738,-4721,23,-175,-74,72
667,-15142,-72,724,-4722,23,-172,-73,64
668,-15216,6,710,-4723,23,-166,-77,67
669,-15162,-8,704,-4728,23,-184,-82,66
670,-15206,-84,774,-4719,23,-165,-73,63
671,-15172,-10,708,-4720,23,-171,-73,70
672,-15114,-8,826,-4724,23,-172,-72,64
673,-15148,34,696,-4716,23,-169,-72,74
674,-15156,-18,690,-4717,23,-175,-76,64
675,-15154,20,760,-4731,23,-168,-75,67
676,-15242,-18,778,-4717,23,-171,-74,66
677,-15178,16,760,-4725,23,-174,-79,65
678,-15118,-6,792,-4725,23,-175,-76,67
679,-15194,-28,684,-4719,23,-176,-73,66
680,-15142,6,726,-4722,23,-176,-79,71
681,-15184,-4,776,-4725,23,-172,-67,76
682,-15182,-42,802,-4729,23,-171,-74,71
683,-15150,-18,824,-4722,23,-174,-75,67
684,-15160,2,780,-4721,23,-182,-75,73
685,-15134,-54,742,-4722,23,-175,-78,77
686,-15096,32,758,-4721,23,-179,-78,75
687,-15180,-10,722,-4723,23,-170,-72,68
688,-15142,-76,810,-4724,23,-171,-78,67
689,-15128,14,764,-4726,23,-175,-76,70
690,-15162,-36,870,-4726,23,-170,-77,68
691,-15170,-24,742,-4726,23,-177,-79,76
692,-15192,-46,724,-4727,23,-178,-86,72
693,-15168,30,730,-4718,23,-175,-75,64
694,-15210,-62,726,-4725,23,-176,-72,72
695,-15142,40,712,-4728,23,-175,-81,75
696,-15094,-28,800,-4729,23,-173,-85,66
697,-15146,-32,684,-4725,23,-172,-78,69
698,-15164,-36,772,-4731,23,-173,-79,66
699,-15122,-48,748,-4718,23,-176,-79,71
700,-15152,-50,790,-4724,23,-179,-74,65
701,-15158,-52,772,-4720,23,-172,-82,71
702,-15160,-38,722,-4723,23,-175,-69,72
703,-15132,-2,722,-4718,23,-174,-74,70
704,-15128,-54,762,-4729,23,-180,-74,73
705,-15150,-8,722,-4713,23,-172,-84,70
706,-15168,-72,786,-4718,23,-173,-69,65
707,-15220,-64,746,-4713,23,-175,-71,66
708,-15152,-70,738,-4722,23,-177,-78,78
709,-15120,18,808,-4725,23,-173,-81,65
710,-15136,-12,764,-4712,23,-175,-79,68
711,-15158,0,730,-4716,23,-176,-80,69
712,-15104,-92,796,-4726,23,-180,-74,68
713,-15068,-14,804,-4723,23,-169,-75,63
714,-15150,-48,890,-4719,23,-169,-78,64
715,-15130,-34,794,-4716,23,-176,-78,73
716,-15178,-4,740,-4718,23,-179,-68,73
717,-15138,36,660,-4722,23,-177,-74,74
718,-15206,28,776,-4717,23,-171,-78,74
719,-15136,-32,734,-4719,23,-180,-81,66
720,-15180,-14,710,-4723,23,-176,-74,71
721,-15246,-32,730,-4735,23,-172,-78,65
722,-15152,-18,782,-4724,23,-180,-76,67
723,-15192,0,786,-4730,23,-178,-74,68
724,-15186,-32,796,-4725,23,-170,-80,74
725,-15126,-10,772,-4725,23,-178,-75,74
726,-15116,-10,810,-4725,23,-170,-76,67
727,-15170,12,786,-4735,23,-169,-70,72
728,-15124,-4,760,-4734,23,-171,-74,68
729,-15218,12,690,-4717,23,-167,-78,69
730,-15180,-14,840,-4725,23,-174,-76,69
731,-15126,36,760,-4723,23,-175,-74,64
732,-15150,-26,796,-4722,23,-170,-84,67
733,-15144,-74,714,-4735,23,-180,-77,73
734,-15182,-12,764,-4729,23,-167,-84,70
735,-15198,-22,722,-4731,23,-172,-81,73
736,-15192,-18,662,-4731,23,-175,-74,66
737,-15194,4,690,-4729,23,-177,-74,64
738,-15122,-44,782,-4725,23,-174,-81,71
739,-15182,24,706,-4722,23,-173,-71,72
740,-15152,-36,750,-4721,23,-174,-82,67
741,-15170,-36,696,-4729,23,-172,-84,71
742,-15130,8,698,-4736,23,-173,-79,71
743,-15186,30,734,-4725,23,-177,-85,71
744,-15144,-28,710,-4730,23,-169,-78,64
745,-15182,26,784,-4729,23,-173,-81,60
746,-15188,-22,744,-4722,23,-179,-85,66
747,-15196,-14,808,-4720,23,-176,-80,73
748,-15156,-84,756,-4728,23,-173,-77,70
749,-15146,-8,780,-4727,23,-173,-72,72
750,-15132,-6,708,-4721,23,-168,-79,79
751,-15188,4,654,-4721,23,-173,-76,71
752,-15186,-2,790,-4730,23,-164,-71,76
753,-15120,48,674,-4717,23,-174,-75,69
754,-15142,16,718,-4723,23,-172,-67,73
755,-15088,34,714,-4720,23,-172,-76,67
756,-15124,-42,782,-4738,23,-176,-80,74
757,-15160,-26,776,-4713,23,-169,-75,70
758,-15152,54,680,-4726,23,-173,-78,64
759,-15146,54,798,-4724,23,-179,-75,66
760,-15166,8,752,-4730,23,-178,-75,74
761,-15138,8,776,-4726,23,-168,-77,72
762,-15092,8,688,-4729,23,-172,-74,68
763,-15150,-36,794,-4721,23,-169,-80,63
764,-15140,2,758,-4708,23,-172,-77,75
765,-15138,-30,760,-4723,23,-177,-77,71
766,-15160,-68,698,-4704,23,-175,-73,72
767,-15204,16,770,-4732,23,-170,-87,67
768,-15182,-40,728,-4719,23,-176,-80,64
769,-15232,34,700,-4716,23,-175,-82,71
770,-15136,-34,784,-4722,23,-174,-82,74
771,-15204,2,692,-4719,23,-174,-80,64
772,-15132,56,672,-4726,23,-175,-82,69
773,-15158,-42,808,-4721,23,-176,-77,74
774,-15140,0,744,-4723,23,-179,-73,62
775,-15114,0,776,-4714,23,-172,-74,63
776,-15132,2,698,-4726,23,-176,-80,70
777,-15134,-16,804,-4728,23,-178,-75,70
778,-15098,-60,760,-4720,23,-176,-80,74
779,-15142,-62,780,-4723,23,-178,-77,74
780,-15184,-56,712,-4724,23,-174,-75,71
781,-15190,-30,766,-4733,23,-172,-80,74
782,-15116,36,724,-4718,23,-173,-73,65
783,-15154,-32,708,-4711,23,-173,-78,71
784,-15186,2,624,-4730,23,-166,-84,64
785,-15164,20,772,-4709,23,-175,-76,74
786,-15140,10,772,-4724,23,-175,-66,78
787,-15126,-10,724,-4713,23,-176,-77,68
788,-15146,4,694,-4715,23,-169,-76,68
789,-15214,30,768,-4732,23,-172,-69,68
790,-15134,-34,818,-4723,23,-174,-69,68
791,-15212,-40,740,-4731,23,-175,-84,66
792,-15202,-4,718,-4717,23,-173,-84,66
793,-15152,-6,814,-4721,23,-168,-75,70
794,-15178,-12,780,-4725,23,-173,-69,72
795,-15144,-16,726,-4728,23,-173,-70,74
796,-15130,22,690,-4721,23,-172,-74,70
797,-15230,-6,788,-4726,23,-174,-77,70
798,-15142,-32,752,-4717,23,-175,-68,69
799,-15134,-38,796,-4720,23,-170,-79,66
800,-15102,-20,720,-4721,23,-171,-73,67
801,-15160,-50,740,-4734,23,-170,-76,77
802,-15166,-12,704,-4709,23,-170,-71,72
803,-15150,16,662,-4731,23,-170,-78,75
804,-15224,-4,760,-4727,23,-173,-75,76
805,-15164,-40,768,-4715,23,-169,-68,69
806,-15138,-48,732,-4719,23,-175,-82,70
807,-15112,10,706,-4725,23,-172,-70,69
808,-15186,6,830,-4723,23,-168,-76,70
809,-15180,-56,784,-4717,23,-173,-77,62
810,-15188,-4,772,-4721,23,-173,-79,75
811,-15132,-14,786,-4718,23,-173,-87,73
812,-15154,-58,794,-4732,23,-170,-86,67
813,-15182,-42,730,-4716,23,-175,-72,71
814,-15114,40,702,-4707,23,-167,-78,65
815,-15194,-42,724,-4720,23,-172,-73,71
816,-15160,-56,716,-4707,23,-171,-77,71
817,-15144,-80,748,-4719,23,-179,-69,66
818,-15210,-22,766,-4731,23,-175,-75,72
819,-15092,18,762,-4726,23,-172,-74,69
820,-15124,4,756,-4724,23,-173,-75,71
821,-15174,0,742,-4724,23,-177,-76,71
822,-15140,12,776,-4726,23,-175,-84,67
823,-15124,-16,594,-4726,23,-176,-72,70
824,-15158,-50,812,-4725,23,-177,-75,71
825,-15084,-104,720,-4719,23,-177,-70,68
826,-15210,2,706,-4721,23,-168,-74,64
827,-15132,-30,724,-4723,23,-175,-78,71
828,-15148,4,744,-4718,23,-172,-78,71
829,-15202,-34,836,-4718,23,-181,-81,67
830,-15154,-68,856,-4712,23,-174,-80,69
831,-15126,-52,724,-4713,23,-169,-77,72
832,-15174,-16,682,-4714,23,-172,-76,65
833,-15170,-32,864,-4715,23,-178,-78,67
834,-15190,22,728,-4722,23,-169,-79,67
835,-15158,-32,796,-4726,23,-171,-75,69
836,-15160,26,730,-4723,23,-173,-83,71
837,-15156,28,706,-4709,23,-172,-81,63
838,-15164,-24,752,-4719,23,-177,-79,65
839,-15136,-40,766,-4716,23,-171,-72,65
840,-15158,12,814,-4721,23,-178,-80,69
841,-15136,-56,738,-4710,23,-177,-80,72
842,-15170,8,676,-4728,23,-168,-81,66
843,-15192,6,726,-4732,23,-176,-81,76
844,-15114,-8,860,-4715,23,-174,-78,76
845,-15156,-26,678,-4724,23,-174,-77,75
846,-15160,18,782,-4730,23,-178,-77,75
847,-15140,-10,740,-4721,23,-178,-78,71
848,-15104,-24,708,-4724,23,-178,-75,69
849,-15188,0,798,-4710,23,-169,-72,68
850,-15180,-62,694,-4714,23,-174,-76,71
851,-15172,-48,680,-4728,23,-174,-73,68
852,-15164,-22,832,-4726,23,-175,-72,70
853,-15120,2,686,-4711,23,-167,-78,65
854,-15156,18,780,-4724,23,-172,-77,70
855,-15156,-62,688,-4724,23,-175,-72,72
856,-15156,-16,696,-4720,23,-177,-80,72
857,-15186,2,780,-4721,23,-168,-86,69
858,-15210,-76,746,-4729,23,-178,-72,68
859,-15166,-36,644,-4717,23,-166,-76,70
860,-15118,-10,762,-4725,23,-175,-86,74
861,-15114,-40,672,-4722,23,-173,-69,73
862,-15202,-38,674,-4724,23,-177,-79,66
863,-15176,-38,732,-4721,23,-175,-78,66
864,-15144,-2,756,-4713,23,-171,-66,69
865,-15162,22,748,-4716,23,-180,-75,63
866,-15184,-8,690,-4714,23,-176,-81,68
867,-15156,16,780,-4724,23,-172,-79,76
868,-15156,-28,760,-4719,23,-174,-74,68
869,-15156,-48,690,-4716,23,-170,-75,73
870,-15152,0,726,-4717,23,-174,-72,70
871,-15154,2,792,-4723,23,-174,-78,79
872,-15168,-30,758,-4723,23,-175,-75,60
873,-15172,-64,690,-4719,23,-169,-73,72
874,-15150,-46,750,-4722,23,-175,-75,71
875,-15154,-38,724,-4728,23,-169,-73,72
876,-15146,24,754,-4712,23,-168,-79,67
877,-15166,-20,660,-4711,23,-177,-81,66
878,-15164,-60,726,-4720,23,-169,-77,69
879,-15124,18,724,-4732,23,-180,-75,70
880,-15126,-58,738,-4720,23,-176,-74,68
881,-15154,-12,800,-4722,23,-169,-72,74
882,-15176,-62,706,-4718,23,-173,-81,71
883,-15146,-48,756,-4717,23,-170,-75,74
884,-15146,-22,848,-4714,23,-172,-74,72
885,-15180,-22,768,-4712,23,-167,-83,72
886,-15184,-6,712,-4731,23,-174,-74,76
887,-15124,-10,814,-4719,23,-169,-69,70
888,-15086,6,910,-4716,23,-175,-78,74
889,-15112,-26,816,-4720,23,-175,-77,69
890,-15118,26,690,-4717,23,-177,-87,68
891,-15088,-52,734,-4715,23,-177,-77,69
892,-15148,-22,828,-4727,23,-175,-78,63
893,-15112,-68,726,-4721,23,-178,-79,68
894,-15146,-8,720,-4733,23,-175,-76,72
895,-15126,20,820,-4726,23,-172,-86,71
896,-15140,48,832,-4717,23,-172,-75,72
897,-15168,26,688,-4712,23,-172,-77,70
898,-15102,-24,702,-4711,23,-165,-74,71
899,-15188,12,616,-4725,23,-175,-72,72
900,-15228,0,694,-4719,23,-169,-77,65
901,-15184,-38,826,-4716,23,-177,-81,76
902,-15134,-54,764,-4717,23,-173,-78,69
903,-15144,-30,768,-4716,23,-175,-72,73
904,-15174,-20,762,-4719,23,-172,-73,75
905,-15126,6,732,-4717,23,-174,-78,69
906,-15150,-24,788,-4720,23,-182,-81,69
907,-15138,2,756,-4707,23,-175,-81,71
908,-15138,16,696,-4713,23,-171,-72,69
909,-15124,-12,608,-4717,23,-172,-80,70
910,-15134,-46,794,-4727,23,-169,-80,64
911,-15194,-38,728,-4720,23,-179,-80,72
912,-15128,18,764,-4716,23,-176,-72,66
913,-15180,-8,676,-4711,23,-177,-78,71
914,-15078,-46,874,-4722,23,-175,-78,74
915,-15166,-44,736,-4720,23,-164,-80,68
916,-15156,-66,720,-4722,23,-173,-75,72
917,-15176,-16,804,-4720,23,-170,-73,73
918,-15184,14,786,-4711,23,-173,-70,73
919,-15134,4,724,-4715,23,-167,-76,72
920,-15184,38,700,-4711,23,-170,-79,76
921,-15154,-10,678,-4717,23,-180,-75,74
922,-15128,-48,794,-4710,23,-169,-75,72
923,-15130,-6,830,-4725,23,-172,-76,73
924,-15116,-10,792,-4724,23,-179,-77,70
925,-15156,-22,820,-4716,23,-172,-76,71
926,-15162,-14,694,-4716,23,-176,-81,70
927,-15138,-12,726,-4719,23,-178,-82,74
928,-15120,20,708,-4718,23,-171,-73,73
929,-15146,-2,666,-4719,23,-167,-76,66
930,-15136,-78,710,-4714,23,-170,-75,66
931,-15118,-12,794,-4720,23,-173,-74,69
932,-15186,-20,786,-4705,23,-174,-81,70
933,-15164,18,792,-4716,23,-172,-86,78
934,-15192,30,644,-4720,23,-175,-78,72
935,-15110,-32,772,-4719,23,-172,-78,73
936,-15206,12,814,-4713,23,-168,-75,70
937,-15172,8,792,-4714,23,-171,-76,67
938,-15150,2,714,-4707,23,-172,-84,71
939,-15114,20,678,-4725,23,-180,-84,69
940,-15188,-58,860,-4717,23,-179,-78,70
941,-15118,-6,848,-4721,23,-173,-77,72
942,-15136,16,668,-4715,23,-168,-76,67
943,-15172,-22,762,-4723,23,-174,-80,71
944,-15120,2,786,-4712,23,-174,-75,68
945,-15120,30,750,-4722,23,-171,-79,75
946,-15214,-48,724,-4709,23,-171,-75,70
947,-15210,-32,708,-4716,23,-171,-78,68
948,-15178,-56,754,-4715,23,-174,-74,70
949,-15102,-52,776,-4719,23,-170,-74,68
950,-15170,0,794,-4723,23,-168,-69,72
951,-15192,-54,710,-4715,23,-177,-73,76
952,-15148,-22,776,-4713,23,-169,-74,77
953,-15132,-6,642,-4727,23,-172,-70,72
954,-15148,32,694,-4719,23,-175,-82,72
955,-15130,2,772,-4727,23,-170,-75,74
956,-15228,-58,708,-4711,23,-173,-74,70
957,-15126,12,716,-4716,23,-174,-72,66
958,-15112,14,676,-4717,23,-173,-76,78
959,-15132,-60,772,-4714,23,-181,-81,72
960,-15208,-44,686,-4707,23,-169,-78,74
961,-15170,-2,660,-4716,23,-176,-80,69
962,-15084,-64,772,-4712,23,-168,-78,65
963,-15158,-36,804,-4705,23,-164,-77,69
964,-15184,0,726,-4723,23,-171,-77,79
965,-15154,-16,852,-4710,23,-177,-82,68
966,-15102,-18,750,-4719,23,-178,-79,67
967,-15166,-42,732,-4716,23,-173,-82,67
968,-15204,-48,704,-4722,23,-172,-76,69
969,-15140,12,736,-4712,23,-176,-74,64
970,-15154,-28,720,-4719,23,-175,-78,66
971,-15164,4,764,-4717,23,-166,-71,72
972,-15150,-18,638,-4716,23,-175,-81,69
973,-15170,4,800,-4715,23,-174,-75,62
974,-15126,28,714,-4716,23,-177,-84,77
975,-15146,-30,722,-4713,23,-169,-84,73
976,-15174,8,910,-4717,23,-173,-69,72
977,-15164,28,774,-4716,23,-177,-77,78
978,-15194,-4,720,-4709,23,-175,-80,72
979,-15122,-20,690,-4725,23,-171,-76,72
980,-15156,28,784,-4716,23,-175,-78,66
981,-15174,-62,722,-4726,23,-179,-72,70
982,-15186,-54,690,-4725,23,-174,-80,70
983,-15134,10,704,-4705,23,-175,-79,70
984,-15202,-6,664,-4713,23,-170,-72,67
985,-15160,-62,828,-4721,23,-171,-74,69
986,-15178,66,744,-4706,23,-170,-83,70
987,-15144,10,678,-4718,23,-168,-72,69
988,-15072,-38,742,-4715,23,-175,-70,72
989,-15174,0,730,-4717,23,-174,-81,69
990,-15178,18,714,-4714,23,-175,-79,64
991,-15144,4,736,-4721,23,-170,-73,66
992,-15148,-12,734,-4707,23,-170,-73,72
993,-15108,-30,794,-4712,23,-174,-76,70
994,-15168,-14,794,-4718,23,-179,-89,65
995,-15144,-18,844,-4718,23,-175,-72,74
996,-15190,-56,722,-4718,23,-168,-77,74
997,-15098,-2,786,-4714,23,-174,-83,70
998,-15104,-8,784,-4718,23,-172,-86,69
