,acc_X,acc_Y,acc_Z,temp,tempC,gyr_X,gyr_Y,gyr_Z
0,-3791,-7,186,-4638,23,-357,-153,144
1,-3790,-5,185,-4641,23,-352,-153,139
2,-3788,-8,189,-4629,23,-357,-153,136
3,-3792,-6,192,-4641,23,-353,-154,137
4,-3792,-4,194,-4639,23,-350,-156,137
5,-3792,-7,198,-4639,23,-349,-156,140
6,-3780,-4,187,-4643,23,-345,-160,145
7,-3786,-7,184,-4642,23,-348,-151,137
8,-3786,-7,178,-4642,23,-345,-148,140
9,-3787,-6,188,-4638,23,-346,-149,144
10,-3795,-9,181,-4641,23,-351,-147,138
11,-3793,-6,190,-4641,23,-357,-151,143
12,-3792,1,179,-4636,23,-354,-155,138
13,-3794,-3,190,-4632,23,-347,-151,139
14,-3796,0,190,-4637,23,-354,-151,145
15,-3794,-1,183,-4642,23,-348,-154,145
16,-3790,-2,186,-4641,23,-344,-158,141
17,-3791,-6,189,-4637,23,-346,-152,141
18,-3789,-2,190,-4640,23,-351,-153,139
19,-3794,-3,189,-4643,23,-348,-155,137
20,-3790,-1,182,-4643,23,-345,-157,141
21,-3788,-7,185,-4645,23,-357,-155,140
22,-3784,1,185,-4641,23,-356,-152,137
23,-3787,1,186,-4637,23,-351,-158,141
24,-3786,-5,188,-4637,23,-357,-153,141
25,-3790,-4,193,-4645,23,-354,-161,143
26,-3791,1,187,-4644,23,-351,-158,139
27,-3796,-3,181,-4641,23,-350,-153,138
28,-3787,-11,191,-4639,23,-350,-154,136
29,-3789,8,199,-4639,23,-348,-153,138
30,-3793,-8,189,-4636,23,-346,-158,131
31,-3792,-3,177,-4639,23,-348,-146,140
32,-3783,-3,170,-4635,23,-345,-152,141
33,-3793,-2,193,-4638,23,-349,-151,134
34,-3789,-11,184,-4642,23,-346,-158,140
35,-3785,-6,191,-4639,23,-344,-153,145
36,-3794,2,192,-4644,23,-356,-154,141
37,-3793,-2,188,-4639,23,-355,-152,143
38,-3785,-1,180,-4644,23,-350,-148,146
39,-3800,-6,181,-4639,23,-347,-150,141
40,-3792,-8,179,-4636,23,-350,-149,137
41,-3790,-2,186,-4639,23,-347,-150,138
42,-3784,3,182,-4640,23,-345,-155,142
43,-3787,-4,186,-4641,23,-345,-153,139
44,-3786,-2,192,-4639,23,-342,-156,133
45,-3782,-3,194,-4637,23,-342,-151,138
46,-3785,0,195,-4641,23,-352,-157,131
47,-3798,3,181,-4638,23,-356,-155,134
48,-3792,-5,193,-4636,23,-347,-150,142
49,-3789,-9,200,-4638,23,-338,-152,139
50,-3781,4,193,-4636,23,-346,-162,137
51,-3783,-8,198,-4638,23,-339,-156,142
52,-3794,-1,189,-4637,23,-345,-155,140
53,-3788,-3,188,-4637,23,-346,-156,135
54,-3784,-1,172,-4637,23,-357,-156,145
55,-3785,-4,184,-4641,23,-342,-152,144
56,-3790,-10,188,-4639,23,-349,-153,140
57,-3793,-6,194,-4644,23,-355,-151,146
58,-3790,-3,185,-4641,23,-349,-152,145
59,-3789,-3,193,-4639,23,-347,-149,152
60,-3792,-7,193,-4642,23,-349,-150,141
61,-3794,-13,191,-4640,23,-342,-150,143
62,-3791,-9,189,-4640,23,-345,-144,138
63,-3796,-13,191,-4640,23,-348,-149,141
64,-3797,-6,198,-4637,23,-349,-155,142
65,-3793,-4,197,-4636,23,-349,-146,134
66,-3784,-7,192,-4639,23,-346,-146,142
67,-3784,2,193,-4639,23,-344,-147,141
68,-3785,0,191,-4637,23,-347,-152,140
69,-3792,-7,188,-4636,23,-352,-151,137
70,-3783,-4,188,-4639,23,-347,-155,136
71,-3789,-2,196,-4641,23,-352,-150,133
72,-3793,0,182,-4634,23,-350,-156,137
73,-3797,-18,181,-4638,23,-352,-152,135
74,-3795,-6,193,-4640,23,-346,-150,148
75,-3792,-4,183,-4638,23,-348,-150,138
76,-3788,-1,182,-4627,23,-352,-150,143
77,-3784,-8,179,-4632,23,-355,-152,145
78,-3790,-10,190,-4638,23,-345,-149,139
79,-3790,-6,195,-4637,23,-341,-146,135
80,-3788,-1,188,-4641,23,-344,-151,134
81,-3793,-6,187,-4637,23,-345,-150,137
82,-3789,-5,186,-4636,23,-346,-155,141
83,-3792,-2,188,-4640,23,-351,-152,140
84,-3790,-6,206,-4637,23,-347,-159,140
85,-3788,-7,196,-4644,23,-351,-155,139
86,-3785,-2,191,-4641,23,-341,-155,142
87,-3793,-2,188,-4636,23,-346,-151,142
88,-3786,1,188,-4637,23,-347,-151,139
89,-3787,-3,191,-4635,23,-338,-147,136
90,-3788,6,187,-4635,23,-347,-149,138
91,-3792,-1,190,-4640,23,-351,-150,139
92,-3790,-2,178,-4640,23,-348,-158,139
93,-3785,-2,185,-4639,23,-352,-154,143
94,-3796,0,190,-4643,23,-346,-151,139
95,-3793,-13,193,-4640,23,-348,-151,136
96,-3786,0,191,-4638,23,-348,-155,137
97,-3785,0,190,-4635,23,-349,-156,134
98,-3788,3,187,-4636,23,-352,-153,133
99,-3789,-11,182,-4637,23,-356,-154,142
100,-3783,-8,184,-4638,23,-348,-152,142
101,-3776,-4,185,-4639,23,-340,-145,138
102,-3786,-3,188,-4643,23,-343,-149,140
103,-3780,-7,185,-4638,23,-350,-153,138
104,-3786,-5,187,-4637,23,-347,-158,148
105,-3784,-13,192,-4639,23,-354,-152,142
106,-3791,-9,187,-4641,23,-353,-149,141
107,-3796,-4,183,-4640,23,-347,-158,137
108,-3792,-5,191,-4639,23,-347,-154,142
109,-3789,3,185,-4636,23,-350,-153,138
110,-3786,-1,196,-4639,23,-350,-156,140
111,-3785,-8,193,-4635,23,-349,-159,141
112,-3783,-2,188,-4638,23,-348,-154,141
113,-3787,7,193,-4639,23,-354,-157,144
114,-3791,-1,193,-4642,23,-350,-158,145
115,-3785,-4,193,-4641,23,-344,-162,142
116,-3792,-7,190,-4648,23,-348,-153,139
117,-3788,2,195,-4647,23,-353,-153,146
118,-3788,6,195,-4637,23,-350,-156,138
119,-3787,3,186,-4645,23,-353,-159,145
120,-3788,-6,180,-4643,23,-352,-154,140
121,-3792,-2,185,-4636,23,-349,-151,137
122,-3785,-2,189,-4637,23,-354,-159,135
123,-3788,-4,182,-4640,23,-354,-154,138
124,-3788,-1,188,-4642,23,-352,-151,138
125,-3785,-7,187,-4640,23,-358,-146,141
126,-3792,3,194,-4642,23,-359,-155,136
127,-3780,-9,191,-4638,23,-353,-153,140
128,-3782,-10,198,-4633,23,-346,-158,138
129,-3789,-8,185,-4638,23,-346,-151,145
130,-3782,-3,184,-4639,23,-348,-152,142
131,-3783,-9,188,-4639,23,-347,-160,139
132,-3791,-4,184,-4636,23,-355,-158,141
133,-3789,0,185,-4638,23,-350,-152,141
134,-3785,-9,172,-4636,23,-354,-155,144
135,-3783,-4,175,-4637,23,-346,-155,139
136,-3790,-4,191,-4643,23,-349,-150,141
137,-3785,-6,191,-4637,23,-348,-151,147
138,-3791,-10,188,-4639,23,-348,-149,146
139,-3789,-5,189,-4636,23,-351,-151,139
140,-3787,2,187,-4639,23,-352,-149,137
141,-3789,-4,181,-4638,23,-350,-145,137
142,-3792,-5,183,-4635,23,-348,-150,132
143,-3787,-7,179,-4636,23,-346,-151,140
144,-3787,-15,186,-4640,23,-343,-155,140
145,-3783,-11,182,-4641,23,-349,-152,140
146,-3787,0,178,-4641,23,-346,-149,143
147,-3791,-7,180,-4638,23,-348,-156,140
148,-3784,-1,182,-4640,23,-349,-153,137
149,-3785,-2,197,-4640,23,-346,-153,138
150,-3788,-3,187,-4640,23,-344,-148,137
151,-3793,-5,190,-4640,23,-355,-153,140
152,-3794,3,194,-4639,23,-346,-158,137
153,-3794,1,176,-4637,23,-348,-147,139
154,-3785,-7,185,-4637,23,-351,-155,141
155,-3782,2,184,-4640,23,-348,-153,139
156,-3786,4,184,-4634,23,-355,-155,147
157,-3788,-1,180,-4635,23,-354,-156,142
158,-3786,-4,182,-4639,23,-349,-154,143
159,-3785,-5,198,-4641,23,-349,-153,143
160,-3786,-10,185,-4636,23,-349,-155,138
161,-3784,-1,185,-4641,23,-345,-145,137
162,-3785,3,191,-4636,23,-345,-153,138
163,-3782,-8,190,-4636,23,-354,-158,138
164,-3787,0,184,-4637,23,-354,-152,142
165,-3786,-12,179,-4634,23,-348,-150,141
166,-3784,-6,189,-4636,23,-348,-150,136
167,-3794,-3,195,-4638,23,-355,-148,141
168,-3788,-4,196,-4643,23,-357,-153,145
169,-3791,-6,194,-4639,23,-350,-161,144
170,-3790,-3,184,-4639,23,-347,-147,141
171,-3787,0,186,-4642,23,-351,-150,142
172,-3785,-5,181,-4639,23,-344,-151,141
173,-3787,-5,197,-4637,23,-355,-159,143
174,-3790,-3,190,-4642,23,-357,-156,136
175,-3788,-3,185,-4636,23,-350,-157,138
176,-3795,-1,187,-4638,23,-350,-155,140
177,-3795,-7,174,-4634,23,-349,-162,138
178,-3793,-13,184,-4638,23,-343,-148,136
179,-3796,-10,186,-4645,23,-354,-159,133
180,-3794,-8,193,-4639,23,-353,-158,140
181,-3781,-8,193,-4635,23,-354,-155,141
182,-3785,-6,189,-4636,23,-354,-155,148
183,-3788,-5,190,-4634,23,-354,-156,149
184,-3792,-5,189,-4636,23,-349,-158,140
185,-3786,-9,190,-4636,23,-353,-148,136
186,-3783,-7,182,-4632,23,-346,-143,144
187,-3786,-7,186,-4638,23,-346,-158,145
188,-3790,-5,187,-4641,23,-348,-153,140
189,-3784,-3,189,-4638,23,-345,-152,139
190,-3779,-8,189,-4638,23,-344,-151,136
191,-3786,-5,187,-4635,23,-351,-148,139
192,-3785,-8,185,-4645,23,-352,-148,147
193,-3794,-2,184,-4646,23,-359,-150,141
194,-3792,-10,187,-4645,23,-351,-153,141
195,-3797,-7,187,-4639,23,-352,-146,141
196,-3787,-1,189,-4637,23,-346,-152,137
197,-3789,4,186,-4635,23,-349,-155,140
198,-3795,-5,192,-4630,23,-353,-157,145
199,-3795,-6,196,-4635,23,-350,-153,144
200,-3788,-9,195,-4636,23,-348,-146,140
201,-3794,-3,184,-4638,23,-345,-152,139
202,-3788,-2,191,-4642,23,-345,-152,144
203,-3789,-4,200,-4640,23,-347,-147,136
204,-3782,-1,187,-4637,23,-344,-149,145
205,-3791,-2,188,-4638,23,-341,-158,143
206,-3785,1,189,-4640,23,-340,-153,147
207,-3797,2,181,-4637,23,-342,-156,141
208,-3785,-3,181,-4634,23,-344,-162,147
209,-3789,0,186,-4632,23,-354,-157,139
210,-3790,-3,187,-4635,23,-353,-157,143
211,-3793,0,188,-4632,23,-348,-156,142
212,-3789,0,189,-4631,23,-350,-152,150
213,-3785,-5,181,-4640,23,-351,-155,148
214,-3781,-3,191,-4638,23,-351,-157,143
215,-3784,-3,193,-4635,23,-357,-159,143
216,-3786,1,186,-4631,23,-349,-153,137
217,-3787,-3,186,-4635,23,-354,-154,138
218,-3790,-9,190,-4633,23,-356,-152,142
219,-3787,-13,193,-4637,23,-347,-158,144
220,-3788,0,204,-4636,23,-352,-154,142
221,-3793,3,199,-4641,23,-346,-157,144
222,-3788,1,194,-4642,23,-349,-161,142
223,-3793,-1,186,-4639,23,-344,-152,140
224,-3791,-5,190,-4636,23,-345,-155,144
225,-3789,-11,192,-4635,23,-348,-152,145
226,-3789,-9,184,-4638,23,-350,-149,139
227,-3791,-15,190,-4635,23,-349,-152,136
228,-3796,-8,187,-4630,23,-345,-159,137
229,-3795,-9,178,-4636,23,-350,-162,139
230,-3785,1,180,-4637,23,-355,-162,138
231,-3784,2,180,-4639,23,-350,-165,137
232,-3790,-4,177,-4639,23,-348,-161,140
233,-3787,-4,186,-4637,23,-352,-155,136
234,-3790,1,195,-4636,23,-351,-146,136
235,-3793,-6,194,-4637,23,-351,-149,140
236,-3789,-7,176,-4634,23,-351,-149,137
237,-3792,-1,189,-4634,23,-347,-155,145
238,-3795,-6,191,-4633,23,-349,-153,143
239,-3790,-6,184,-4630,23,-350,-153,138
240,-3781,-7,193,-4627,23,-345,-159,133
241,-3785,-9,184,-4627,23,-346,-156,137
242,-3785,-6,178,-4629,23,-339,-155,141
243,-3787,0,188,-4633,23,-347,-152,144
244,-3791,-8,192,-4630,23,-339,-155,149
245,-3794,-5,193,-4630,23,-344,-147,144
246,-3792,-5,185,-4632,23,-349,-163,150
247,-3790,-8,199,-4628,23,-348,-156,145
248,-3789,-4,192,-4632,23,-351,-151,135
249,-3784,-3,190,-4629,23,-350,-160,142
250,-3785,-6,181,-4631,23,-344,-153,137
251,-3779,-9,185,-4629,23,-350,-160,136
252,-3780,-5,188,-4635,23,-351,-162,131
253,-3787,-10,192,-4635,23,-354,-150,140
254,-3794,-4,173,-4637,23,-355,-156,141
255,-3788,-6,178,-4640,23,-347,-153,142
256,-3789,-5,188,-4635,23,-347,-151,139
257,-3795,-13,193,-4637,23,-346,-164,145
258,-3795,-8,183,-4634,23,-347,-150,140
259,-3800,-4,178,-4637,23,-345,-151,139
260,-3791,-8,174,-4631,23,-348,-142,139
261,-3798,-3,192,-4636,23,-351,-153,141
262,-3791,-5,181,-4635,23,-353,-147,139
263,-3790,-7,185,-4630,23,-351,-151,136
264,-3789,-9,193,-4630,23,-357,-151,140
265,-3783,-7,191,-4635,23,-349,-153,144
266,-3780,-4,182,-4632,23,-346,-156,140
267,-3795,1,190,-4634,23,-350,-148,136
268,-3794,-4,183,-4635,23,-348,-155,141
269,-3792,-10,186,-4639,23,-351,-155,135
270,-3789,-6,174,-4641,23,-347,-156,143
271,-3789,-9,185,-4636,23,-354,-152,136
272,-3790,-4,191,-4638,23,-350,-149,147
273,-3790,-1,192,-4635,23,-350,-151,137
274,-3796,-3,183,-4634,23,-356,-153,140
275,-3789,-4,173,-4637,23,-342,-147,144
276,-3788,-2,173,-4639,23,-343,-151,140
277,-3793,-7,178,-4637,23,-345,-153,138
278,-3787,-10,177,-4637,23,-347,-148,136
279,-3791,-6,183,-4637,23,-347,-156,138
280,-3792,-8,188,-4633,23,-349,-156,134
281,-3784,-2,188,-4637,23,-352,-153,142
282,-3787,-4,203,-4635,23,-357,-159,141
283,-3789,-5,180,-4630,23,-348,-151,139
284,-3787,-1,167,-4631,23,-351,-154,137
285,-3781,-4,170,-4630,23,-349,-153,138
286,-3785,-3,171,-4633,23,-348,-148,135
287,-3784,-3,178,-4638,23,-350,-157,139
288,-3789,-7,189,-4636,23,-341,-156,137
289,-3794,-5,188,-4642,23,-349,-149,141
290,-3796,-8,192,-4641,23,-341,-152,142
291,-3796,-2,185,-4637,23,-346,-148,142
292,-3791,-8,195,-4636,23,-355,-144,143
293,-3785,-1,196,-4639,23,-356,-147,140
294,-3793,-5,198,-4640,23,-343,-149,138
295,-3789,-5,195,-4636,23,-350,-145,141
296,-3793,-5,182,-4634,23,-353,-145,139
297,-3792,-9,182,-4633,23,-352,-157,144
298,-3791,-3,189,-4632,23,-348,-152,140
299,-3787,1,188,-4631,23,-347,-153,140
300,-3791,1,197,-4633,23,-347,-150,141
301,-3793,9,189,-4635,23,-349,-160,141
302,-3789,-2,188,-4633,23,-357,-155,143
303,-3794,-2,191,-4634,23,-353,-155,144
304,-3792,-2,202,-4631,23,-351,-162,143
305,-3786,-1,191,-4636,23,-349,-154,142
306,-3785,-8,184,-4633,23,-348,-155,135
307,-3786,-7,191,-4631,23,-345,-157,134
308,-3784,-5,200,-4634,23,-342,-155,137
309,-3786,-9,192,-4632,23,-345,-151,136
310,-3790,-3,198,-4633,23,-347,-144,136
311,-3792,-6,191,-4634,23,-343,-141,142
312,-3788,2,174,-4632,23,-353,-152,136
313,-3793,-8,189,-4636,23,-352,-154,136
314,-3789,0,186,-4639,23,-354,-156,140
315,-3790,-11,189,-4633,23,-354,-161,135
316,-3789,-8,192,-4633,23,-347,-154,141
317,-3784,-4,181,-4629,23,-350,-154,136
318,-3782,-4,184,-4634,23,-351,-152,140
319,-3787,-12,201,-4634,23,-356,-153,143
320,-3788,-2,197,-4635,23,-350,-158,142
321,-3790,-7,189,-4635,23,-349,-160,141
322,-3779,-4,191,-4635,23,-350,-150,137
323,-3784,-12,193,-4632,23,-355,-160,138
324,-3790,-11,187,-4628,23,-351,-159,135
325,-3788,-9,191,-4634,23,-343,-155,134
326,-3788,-9,176,-4632,23,-347,-148,134
327,-3796,-4,178,-4633,23,-347,-158,136
328,-3789,-2,179,-4633,23,-351,-154,140
329,-3791,-2,181,-4638,23,-347,-146,140
330,-3791,-1,174,-4638,23,-348,-150,140
331,-3789,-1,194,-4635,23,-349,-156,137
332,-3783,-3,186,-4635,23,-344,-149,134
333,-3787,0,191,-4636,23,-343,-150,138
334,-3786,-4,181,-4638,23,-349,-154,136
335,-3788,-7,187,-4641,23,-353,-154,143
336,-3790,-12,191,-4638,23,-356,-154,141
337,-3786,-7,179,-4635,23,-352,-149,137
338,-3786,-5,182,-4638,23,-353,-145,138
339,-3788,-12,180,-4637,23,-356,-155,138
340,-3785,-12,177,-4636,23,-354,-156,145
341,-3788,-9,183,-4636,23,-352,-151,141
342,-3787,-2,190,-4638,23,-355,-148,140
343,-3790,-2,188,-4635,23,-352,-156,140
344,-3786,1,192,-4632,23,-345,-157,140
345,-3792,-7,184,-4631,23,-347,-150,137
346,-3781,-9,186,-4639,23,-345,-149,136
347,-3780,-6,193,-4636,23,-343,-153,138
348,-3790,-10,197,-4631,23,-341,-154,135
349,-3788,-5,185,-4636,23,-342,-150,136
350,-3789,-11,185,-4635,23,-354,-148,132
351,-3787,-2,186,-4635,23,-355,-152,134
352,-3786,-4,181,-4633,23,-352,-147,134
353,-3791,-6,183,-4637,23,-347,-153,136
354,-3789,-10,181,-4638,23,-346,-160,140
355,-3793,-7,190,-4638,23,-347,-154,141
356,-3793,-8,188,-4633,23,-345,-159,139
357,-3786,-9,184,-4634,23,-340,-158,147
358,-3794,-12,198,-4639,23,-348,-156,149
359,-3794,-12,203,-4634,23,-352,-155,143
360,-3790,-8,183,-4636,23,-352,-152,139
361,-3787,3,190,-4634,23,-345,-153,138
362,-3790,1,188,-4632,23,-348,-150,137
363,-3784,1,197,-4636,23,-349,-152,132
364,-3789,-8,196,-4635,23,-347,-153,136
365,-3787,-4,195,-4639,23,-344,-156,134
366,-3787,-5,190,-4632,23,-348,-157,136
367,-3793,-8,190,-4631,23,-346,-161,140
368,-3792,-3,184,-4636,23,-339,-161,140
369,-3791,-2,187,-4630,23,-343,-146,139
370,-3785,1,185,-4633,23,-339,-150,142
371,-3785,-3,191,-4634,23,-344,-153,142
372,-3787,-1,189,-4632,23,-348,-147,142
373,-3792,-5,182,-4636,23,-353,-145,140
374,-3790,-5,185,-4634,23,-351,-146,135
375,-3788,-5,197,-4638,23,-348,-147,138
376,-3795,-7,186,-4637,23,-340,-153,139
377,-3790,-5,190,-4635,23,-346,-154,139
378,-3786,-5,188,-4632,23,-347,-155,138
379,-3784,-3,210,-4629,23,-348,-152,138
380,-3786,-12,199,-4631,23,-348,-153,136
381,-3788,-5,195,-4636,23,-341,-154,141
382,-3785,-6,191,-4637,23,-347,-157,146
383,-3794,-8,198,-4637,23,-352,-149,147
384,-3790,-3,180,-4639,23,-350,-147,148
385,-3784,-2,188,-4629,23,-356,-149,139
386,-3788,-7,186,-4637,23,-351,-151,139
387,-3799,-6,185,-4642,23,-353,-151,138
388,-3798,-2,193,-4637,23,-350,-151,137
389,-3795,-11,191,-4631,23,-356,-156,137
390,-3791,-5,189,-4634,23,-351,-151,137
391,-3792,-10,177,-4633,23,-352,-147,145
392,-3795,-6,191,-4626,23,-346,-147,143
393,-3794,-10,186,-4635,23,-348,-150,144
394,-3789,-7,196,-4635,23,-340,-158,149
395,-3784,2,185,-4637,23,-347,-156,144
396,-3783,-1,183,-4637,23,-348,-155,141
397,-3790,-5,179,-4637,23,-350,-150,138
398,-3791,-2,188,-4637,23,-348,-154,133
399,-3789,-10,186,-4638,23,-351,-163,136
400,-3788,-10,189,-4637,23,-341,-161,139
401,-3796,-10,193,-4633,23,-345,-154,140
402,-3790,-7,181,-4632,23,-350,-150,137
403,-3790,-4,188,-4633,23,-347,-150,134
404,-3790,-8,191,-4632,23,-352,-152,136
405,-3786,-6,191,-4635,23,-346,-154,139
406,-3781,-7,181,-4635,23,-349,-156,140
407,-3780,-4,196,-4637,23,-346,-152,139
408,-3784,0,194,-4635,23,-350,-155,138
409,-3785,-7,180,-4631,23,-353,-157,140
410,-3790,-8,182,-4636,23,-347,-154,139
411,-3788,-8,183,-4642,23,-346,-155,133
412,-3781,-7,188,-4641,23,-349,-153,135
413,-3779,-1,174,-4634,23,-348,-146,140
414,-3779,-3,189,-4637,23,-354,-151,130
415,-3780,-1,188,-4635,23,-349,-149,131
416,-3792,6,185,-4635,23,-353,-156,134
417,-3790,6,191,-4630,23,-348,-155,140
418,-3790,-4,192,-4634,23,-351,-157,136
419,-3788,-6,190,-4628,23,-347,-149,134
420,-3791,-8,184,-4630,23,-347,-151,138
421,-3782,-4,187,-4638,23,-350,-158,141
422,-3784,-7,184,-4634,23,-350,-161,134
423,-3788,-7,188,-4635,23,-340,-155,135
424,-3791,-12,200,-4638,23,-344,-156,139
425,-3797,-5,196,-4637,23,-347,-156,139
426,-3795,-6,191,-4638,23,-352,-155,139
427,-3793,-6,187,-4636,23,-351,-152,147
428,-3789,-4,187,-4635,23,-349,-147,141
429,-3794,-5,179,-4629,23,-353,-151,140
430,-3790,-2,183,-4630,23,-347,-148,138
431,-3790,-5,186,-4631,23,-353,-156,139
432,-3793,1,186,-4630,23,-357,-151,142
433,-3792,-7,181,-4635,23,-345,-151,135
434,-3793,-10,192,-4638,23,-344,-155,139
435,-3785,-3,190,-4636,23,-347,-159,135
436,-3786,1,185,-4636,23,-348,-159,140
437,-3789,-3,192,-4637,23,-350,-157,133
438,-3782,-1,192,-4637,23,-347,-152,131
439,-3790,-3,190,-4635,23,-351,-151,137
440,-3789,-5,186,-4633,23,-349,-155,140
441,-3793,-6,194,-4636,23,-351,-155,139
442,-3790,-4,185,-4635,23,-356,-151,145
443,-3790,1,195,-4633,23,-349,-153,132
444,-3783,-9,189,-4634,23,-354,-154,141
445,-3788,-9,188,-4636,23,-345,-152,136
446,-3790,-11,192,-4635,23,-342,-157,137
447,-3791,-6,188,-4633,23,-353,-148,146
448,-3781,-11,197,-4640,23,-347,-155,143
449,-3781,3,184,-4635,23,-348,-148,144
450,-3790,-3,185,-4637,23,-348,-154,138
451,-3789,0,193,-4638,23,-350,-153,140
452,-3786,2,197,-4637,23,-349,-161,137
453,-3787,9,192,-4638,23,-354,-155,134
454,-3791,1,192,-4636,23,-356,-156,138
455,-3787,-2,195,-4639,23,-349,-149,136
456,-3787,-4,186,-4637,23,-347,-154,142
457,-3793,-14,187,-4634,23,-355,-159,136
458,-3799,0,189,-4636,23,-356,-158,138
459,-3798,4,174,-4637,23,-350,-154,138
460,-3787,-1,188,-4635,23,-350,-148,137
461,-3787,-7,185,-4637,23,-354,-151,141
462,-3796,-11,186,-4641,23,-356,-149,143
463,-3795,-8,182,-4640,23,-346,-154,135
464,-3793,-7,187,-4639,23,-353,-154,133
465,-3792,-5,186,-4633,23,-346,-156,137
466,-3792,-7,182,-4631,23,-348,-156,139
467,-3793,2,193,-4639,23,-346,-153,142
468,-3786,-6,190,-4640,23,-351,-152,144
469,-3796,-1,183,-4632,23,-343,-153,147
470,-3797,-6,186,-4628,23,-350,-145,147
471,-3791,-4,182,-4630,23,-341,-154,142
472,-3787,1,180,-4641,23,-348,-153,139
473,-3783,-2,186,-4635,23,-345,-150,143
474,-3787,-3,185,-4632,23,-355,-147,133
475,-3787,-3,188,-4631,23,-354,-149,140
476,-3787,-9,198,-4628,23,-355,-144,136
477,-3786,-8,190,-4634,23,-352,-145,145
478,-3791,1,178,-4633,23,-355,-154,131
479,-3791,-7,172,-4631,23,-355,-153,132
480,-3788,-1,191,-4638,23,-355,-155,136
481,-3788,-3,187,-4637,23,-348,-152,139
482,-3788,-6,176,-4633,23,-350,-152,138
483,-3787,-7,174,-4635,23,-354,-153,137
484,-3781,0,188,-4636,23,-347,-148,136
485,-3779,-4,198,-4633,23,-343,-153,133
486,-3780,-6,185,-4636,23,-351,-152,140
487,-3785,-9,182,-4637,23,-350,-149,142
488,-3789,0,185,-4637,23,-361,-151,142
489,-3786,3,189,-4639,23,-347,-152,141
490,-3796,-4,192,-4632,23,-342,-152,141
491,-3802,-4,197,-4635,23,-342,-150,141
492,-3795,-2,187,-4632,23,-350,-143,136
493,-3787,-3,194,-4631,23,-348,-143,138
494,-3787,-6,193,-4634,23,-348,-144,131
495,-3786,-9,181,-4631,23,-345,-147,139
496,-3782,-7,182,-4632,23,-339,-149,145
497,-3784,-3,189,-4630,23,-340,-151,138
498,-3786,-6,191,-4630,23,-340,-153,139
499,-3787,-7,193,-4639,23,-346,-155,139
500,-3786,-2,201,-4633,23,-347,-151,143
501,-3790,-2,193,-4637,23,-349,-157,144
502,-3790,-10,193,-4632,23,-349,-152,136
503,-3789,-3,187,-4634,23,-348,-153,131
504,-3790,-16,196,-4633,23,-353,-155,137
505,-3777,-14,192,-4636,23,-351,-152,140
506,-3781,-6,189,-4630,23,-354,-152,138
507,-3786,-7,194,-4630,23,-350,-158,137
508,-3784,-2,194,-4628,23,-347,-153,134
509,-3790,5,186,-4626,23,-349,-151,134
510,-3793,-9,182,-4633,23,-348,-155,132
511,-3786,0,178,-4633,23,-346,-144,137
512,-3788,-1,176,-4638,23,-344,-150,140
513,-3795,-8,187,-4636,23,-353,-154,140
514,-3790,-15,184,-4638,23,-349,-161,139
515,-3782,-8,194,-4635,23,-344,-155,141
516,-3783,5,189,-4633,23,-342,-154,145
517,-3788,2,191,-4636,23,-340,-163,148
518,-3793,-5,191,-4636,23,-341,-157,142
519,-3790,1,182,-4637,23,-344,-159,142
520,-3796,-11,189,-4636,23,-352,-159,135
521,-3794,-3,186,-4634,23,-347,-148,132
522,-3793,2,187,-4633,23,-346,-154,142
523,-3794,-2,185,-4635,23,-350,-152,134
524,-3792,-8,183,-4637,23,-354,-155,135
525,-3787,-5,181,-4640,23,-350,-149,138
526,-3782,-7,175,-4632,23,-344,-152,141
527,-3790,-4,170,-4639,23,-346,-154,140
528,-3792,-6,172,-4637,23,-345,-155,141
529,-3791,-11,180,-4637,23,-349,-163,142
530,-3792,-5,190,-4635,23,-346,-162,139
531,-3790,-12,196,-4632,23,-352,-152,140
532,-3785,-1,194,-4629,23,-347,-150,138
533,-3786,-4,201,-4633,23,-349,-157,138
534,-3782,-5,194,-4631,23,-343,-150,144
535,-3785,0,195,-4631,23,-344,-151,143
536,-3787,0,187,-4631,23,-351,-155,144
537,-3785,-11,189,-4629,23,-350,-154,142
538,-3784,-13,185,-4633,23,-349,-151,135
539,-3787,-14,184,-4635,23,-348,-149,139
540,-3790,-12,178,-4638,23,-346,-150,145
541,-3785,-6,178,-4631,23,-350,-153,147
542,-3788,-4,177,-4633,23,-352,-151,143
543,-3794,-1,187,-4634,23,-349,-143,140
544,-3792,7,192,-4628,23,-346,-152,142
545,-3790,-6,195,-4628,23,-341,-152,135
546,-3790,-3,185,-4632,23,-352,-150,135
547,-3790,-4,179,-4633,23,-350,-154,132
548,-3796,-5,180,-4632,23,-339,-152,136
549,-3794,-9,190,-4638,23,-343,-154,137
550,-3788,-8,201,-4635,23,-351,-157,136
551,-3793,0,193,-4634,23,-346,-156,138
552,-3791,-5,189,-4630,23,-343,-150,142
553,-3786,-9,190,-4627,23,-347,-149,137
554,-3786,-2,195,-4629,23,-340,-148,142
555,-3793,1,204,-4632,23,-347,-153,145
556,-3788,1,190,-4635,23,-345,-158,133
557,-3789,-5,178,-4634,23,-347,-149,140
558,-3795,-7,188,-4633,23,-342,-150,140
559,-3787,-6,178,-4630,23,-346,-152,140
560,-3788,1,178,-4635,23,-351,-149,137
561,-3789,-2,185,-4635,23,-347,-150,140
562,-3789,3,190,-4632,23,-350,-156,136
563,-3796,-6,193,-4632,23,-349,-155,143
564,-3789,-12,184,-4636,23,-348,-157,142
565,-3779,-7,185,-4634,23,-345,-149,141
566,-3791,-5,193,-4625,23,-345,-150,141
567,-3790,2,189,-4624,23,-345,-157,141
568,-3793,-3,181,-4623,23,-346,-156,138
569,-3779,-7,184,-4631,23,-350,-155,136
570,-3787,0,189,-4637,23,-345,-157,139
571,-3781,-7,202,-4636,23,-344,-152,137
572,-3782,-14,197,-4639,23,-340,-155,140
573,-3791,-5,195,-4631,23,-345,-150,147
574,-3780,-3,185,-4636,23,-355,-148,143
575,-3784,-3,198,-4633,23,-349,-154,138
576,-3786,-3,191,-4638,23,-349,-156,135
577,-3787,-1,191,-4636,23,-351,-159,135
578,-3788,-1,188,-4639,23,-351,-162,142
579,-3793,-2,184,-4633,23,-347,-158,138
580,-3797,-8,180,-4636,23,-352,-153,145
581,-3789,-6,194,-4635,23,-347,-151,139
582,-3783,-5,199,-4638,23,-346,-152,136
583,-3792,-9,186,-4631,23,-352,-148,139
584,-3791,-3,186,-4634,23,-348,-151,134
585,-3789,-4,188,-4633,23,-347,-159,140
586,-3790,-10,192,-4638,23,-344,-150,144
587,-3789,-4,171,-4635,23,-340,-147,142
588,-3789,-5,183,-4637,23,-346,-148,139
589,-3784,-2,183,-4637,23,-353,-155,145
590,-3779,-5,188,-4636,23,-353,-147,142
591,-3786,-2,190,-4638,23,-349,-147,132
592,-3787,-3,188,-4640,23,-348,-150,132
593,-3781,-5,189,-4633,23,-342,-150,135
594,-3787,-11,190,-4633,23,-350,-146,141
595,-3786,-6,191,-4631,23,-351,-154,142
596,-3779,-2,180,-4632,23,-351,-156,143
597,-3796,-5,183,-4632,23,-352,-151,137
598,-3792,-7,191,-4631,23,-351,-148,135
599,-3797,-12,190,-4630,23,-347,-156,137
600,-3791,-4,182,-4637,23,-350,-155,146
601,-3791,-11,186,-4632,23,-346,-155,137
602,-3790,-5,176,-4635,23,-345,-150,135
603,-3787,-8,190,-4633,23,-348,-152,135
604,-3785,-10,202,-4629,23,-347,-149,142
605,-3788,-7,180,-4631,23,-351,-153,142
606,-3792,-11,195,-4629,23,-349,-150,144
607,-3786,0,195,-4633,23,-347,-156,140
608,-3786,-2,207,-4631,23,-351,-161,139
609,-3785,-2,187,-4634,23,-351,-151,140
610,-3788,-3,204,-4634,23,-344,-146,141
611,-3787,0,194,-4631,23,-349,-153,143
612,-3786,-1,198,-4636,23,-348,-155,144
613,-3789,1,191,-4635,23,-349,-149,145
614,-3791,-3,190,-4632,23,-345,-156,135
615,-3792,-2,191,-4633,23,-348,-149,140
616,-3796,-3,191,-4628,23,-347,-152,142
617,-3792,0,204,-4630,23,-350,-151,135
618,-3783,-1,192,-4633,23,-351,-154,139
619,-3787,2,191,-4630,23,-354,-161,131
620,-3788,1,191,-4636,23,-353,-163,138
621,-3793,-6,195,-4632,23,-350,-151,136
622,-3786,-5,189,-4638,23,-354,-150,132
623,-3782,1,192,-4634,23,-345,-152,138
624,-3784,-7,190,-4627,23,-348,-147,139
625,-3787,-3,192,-4632,23,-354,-158,139
626,-3793,-1,202,-4635,23,-353,-150,135
627,-3786,-6,204,-4637,23,-355,-160,131
628,-3792,-7,194,-4632,23,-357,-151,129
629,-3792,2,190,-4633,23,-355,-151,133
630,-3794,2,186,-4631,23,-352,-148,136
631,-3789,-12,191,-4636,23,-355,-155,137
632,-3796,-14,195,-4640,23,-354,-153,135
633,-3789,-13,185,-4639,23,-351,-147,135
634,-3792,-3,187,-4633,23,-345,-151,142
635,-3796,-3,183,-4637,23,-352,-148,145
636,-3795,-4,175,-4638,23,-348,-150,142
637,-3798,-3,188,-4637,23,-351,-147,144
638,-3800,-3,181,-4637,23,-342,-157,134
639,-3790,2,176,-4635,23,-347,-153,142
640,-3788,-4,180,-4635,23,-344,-149,141
641,-3798,0,174,-4635,23,-352,-151,135
642,-3791,-1,173,-4635,23,-349,-155,139
643,-3797,2,169,-4635,23,-340,-150,141
644,-3788,-4,176,-4636,23,-350,-142,141
645,-3794,-2,184,-4632,23,-347,-149,143
646,-3791,-1,190,-4637,23,-351,-154,143
647,-3789,-3,180,-4635,23,-347,-154,143
648,-3797,-3,187,-4635,23,-347,-147,140
649,-3781,-4,183,-4628,23,-345,-155,142
650,-3787,-1,179,-4631,23,-352,-151,138
651,-3789,-4,182,-4633,23,-358,-151,141
652,-3786,-2,187,-4639,23,-353,-154,139
653,-3792,1,192,-4640,23,-355,-157,140
654,-3788,-2,185,-4633,23,-358,-155,138
655,-3785,-7,187,-4638,23,-353,-156,141
656,-3791,-8,177,-4638,23,-344,-152,131
657,-3793,-5,178,-4637,23,-346,-155,140
658,-3794,-1,183,-4636,23,-352,-158,140
659,-3791,-1,191,-4640,23,-349,-157,136
660,-3789,-4,189,-4639,23,-345,-150,140
661,-3795,-11,187,-4633,23,-351,-158,138
662,-3792,-5,189,-4637,23,-351,-147,136
663,-3791,-5,188,-4636,23,-350,-152,140
664,-3793,-1,183,-4632,23,-350,-160,136
665,-3799,-5,174,-4636,23,-348,-162,139
666,-3791,-4,177,-4634,23,-341,-159,144
667,-3785,-6,186,-4637,23,-342,-151,140
668,-3792,-4,188,-4632,23,-341,-157,136
669,-3794,-3,182,-4627,23,-336,-155,138
670,-3788,-2,188,-4631,23,-345,-155,136
671,-3783,-5,187,-4631,23,-349,-156,135
672,-3793,-6,174,-4635,23,-352,-151,135
673,-3795,-7,197,-4638,23,-348,-155,132
674,-3797,-3,202,-4630,23,-356,-150,133
675,-3795,-3,178,-4633,23,-348,-149,132
676,-3789,-5,186,-4634,23,-345,-152,137
677,-3789,-2,181,-4632,23,-345,-155,138
678,-3788,4,189,-4629,23,-353,-159,143
679,-3794,-3,184,-4633,23,-345,-156,139
680,-3796,-8,186,-4633,23,-343,-152,145
681,-3790,-2,184,-4634,23,-341,-152,143
682,-3791,-7,180,-4631,23,-346,-148,137
683,-3783,-13,178,-4624,23,-351,-148,141
684,-3789,-13,196,-4630,23,-352,-151,143
685,-3787,-5,179,-4631,23,-352,-156,137
686,-3783,-2,182,-4625,23,-347,-161,150
687,-3788,-4,184,-4635,23,-344,-157,149
688,-3789,-7,191,-4636,23,-344,-155,139
689,-3789,4,182,-4629,23,-346,-150,139
690,-3784,4,184,-4627,23,-347,-154,136
691,-3778,0,183,-4631,23,-343,-159,138
692,-3786,-7,183,-4632,23,-349,-150,143
693,-3790,-15,189,-4637,23,-349,-152,137
694,-3790,-6,191,-4633,23,-355,-155,140
695,-3790,0,184,-4635,23,-345,-155,138
696,-3788,-6,182,-4634,23,-350,-147,141
697,-3784,-6,186,-4635,23,-343,-150,138
698,-3788,-6,193,-4634,23,-353,-150,136
699,-3787,-4,192,-4631,23,-350,-150,142
700,-3795,-3,183,-4632,23,-349,-152,139
701,-3793,-5,188,-4636,23,-355,-147,143
702,-3790,-2,188,-4630,23,-355,-153,140
703,-3786,-1,198,-4632,23,-354,-154,139
704,-3790,-4,189,-4635,23,-346,-145,136
705,-3795,-6,185,-4632,23,-349,-150,141
706,-3796,-4,189,-4630,23,-352,-155,145
707,-3790,-3,187,-4636,23,-355,-152,135
708,-3782,-3,194,-4633,23,-346,-161,131
709,-3782,3,185,-4634,23,-338,-152,136
710,-3790,-1,185,-4635,23,-347,-148,140
711,-3781,2,187,-4633,23,-351,-154,137
712,-3789,5,196,-4631,23,-352,-154,137
713,-3782,1,194,-4629,23,-352,-149,137
714,-3788,-1,173,-4630,23,-352,-152,147
715,-3788,-4,184,-4633,23,-343,-149,147
716,-3789,0,189,-4634,23,-347,-152,146
717,-3781,3,190,-4637,23,-348,-147,144
718,-3792,3,191,-4638,23,-354,-157,141
719,-3797,7,200,-4637,23,-355,-151,141
720,-3796,12,199,-4636,23,-354,-147,140
721,-3800,4,183,-4640,23,-352,-153,133
722,-3791,5,198,-4643,23,-351,-145,143
723,-3790,0,197,-4635,23,-357,-153,143
724,-3790,-4,185,-4637,23,-352,-157,140
725,-3789,-3,184,-4634,23,-347,-161,140
726,-3787,-12,182,-4631,23,-344,-157,141
727,-3785,-7,182,-4627,23,-343,-152,140
728,-3795,-4,177,-4628,23,-343,-157,132
729,-3793,-5,193,-4637,23,-346,-154,135
730,-3786,-7,192,-4637,23,-351,-145,134
731,-3789,0,185,-4634,23,-360,-145,141
732,-3795,-5,188,-4639,23,-355,-141,136
733,-3797,-4,187,-4636,23,-354,-146,138
734,-3800,-2,196,-4632,23,-352,-152,141
735,-3789,-3,180,-4632,23,-351,-153,149
736,-3790,0,178,-4637,23,-346,-148,151
737,-3786,2,180,-4633,23,-353,-154,135
738,-3788,-3,193,-4634,23,-348,-163,136
739,-3790,-4,198,-4632,23,-344,-164,132
740,-3791,-1,188,-4632,23,-348,-161,136
741,-3787,-1,182,-4632,23,-355,-153,137
742,-3790,-1,186,-4633,23,-350,-156,141
743,-3791,1,178,-4631,23,-351,-155,142
744,-3794,-1,175,-4635,23,-348,-162,143
745,-3793,3,189,-4639,23,-354,-159,137
746,-3793,0,187,-4638,23,-350,-160,142
747,-3797,-9,183,-4636,23,-345,-159,136
748,-3787,-10,187,-4635,23,-357,-152,136
749,-3797,-3,184,-4635,23,-352,-158,134
750,-3784,-2,180,-4633,23,-351,-158,138
751,-3786,-10,182,-4630,23,-340,-148,145
752,-3788,-5,190,-4633,23,-347,-148,145
753,-3789,-4,188,-4635,23,-354,-160,143
754,-3786,-3,181,-4631,23,-350,-156,145
755,-3785,0,188,-4631,23,-345,-157,146
756,-3789,0,188,-4635,23,-348,-159,145
757,-3790,-3,189,-4634,23,-349,-152,147
758,-3788,-3,194,-4631,23,-344,-154,144
759,-3782,-10,189,-4630,23,-349,-154,138
760,-3785,-10,190,-4627,23,-356,-151,134
761,-3788,-7,187,-4633,23,-353,-155,136
762,-3794,-5,194,-4629,23,-352,-151,138
763,-3791,3,188,-4631,23,-350,-149,138
764,-3789,3,187,-4630,23,-345,-152,147
765,-3795,2,190,-4633,23,-352,-147,142
766,-3790,1,181,-4630,23,-352,-146,137
767,-3786,0,188,-4636,23,-350,-144,136
768,-3789,2,192,-4635,23,-346,-150,141
769,-3787,-1,180,-4635,23,-346,-156,140
770,-3784,-2,189,-4636,23,-345,-153,133
771,-3790,-8,188,-4634,23,-343,-156,143
772,-3791,-2,179,-4631,23,-353,-152,140
773,-3791,3,171,-4639,23,-347,-147,144
774,-3803,-5,184,-4635,23,-352,-143,144
775,-3791,-6,181,-4633,23,-352,-144,139
776,-3800,-8,189,-4625,23,-349,-151,140
777,-3788,-8,182,-4632,23,-350,-152,145
778,-3788,-5,189,-4631,23,-345,-155,143
779,-3796,-1,193,-4631,23,-350,-160,138
780,-3796,-3,195,-4629,23,-350,-149,142
781,-3786,3,195,-4630,23,-353,-155,145
782,-3789,-2,191,-4632,23,-353,-158,141
783,-3787,-7,180,-4635,23,-347,-156,138
784,-3788,-6,188,-4634,23,-346,-145,143
785,-3778,-7,197,-4632,23,-350,-156,140
786,-3786,-2,181,-4631,23,-350,-159,143
787,-3792,0,182,-4632,23,-352,-154,139
788,-3785,-7,188,-4629,23,-350,-157,144
789,-3792,-7,188,-4628,23,-347,-157,138
790,-3795,-6,184,-4633,23,-343,-154,141
791,-3788,-2,180,-4636,23,-350,-150,142
792,-3789,-5,178,-4633,23,-349,-158,139
793,-3790,3,180,-4636,23,-345,-149,139
794,-3791,-5,172,-4642,23,-348,-151,138
795,-3786,-4,168,-4639,23,-349,-151,139
796,-3786,-8,192,-4638,23,-345,-160,135
797,-3786,-7,184,-4635,23,-345,-150,140
798,-3794,-1,189,-4633,23,-350,-155,143
799,-3791,-4,179,-4637,23,-355,-156,140
800,-3792,-9,176,-4631,23,-359,-149,138
801,-3783,0,183,-4631,23,-358,-150,139
802,-3789,3,199,-4636,23,-358,-149,141
803,-3792,-7,197,-4639,23,-353,-160,139
804,-3785,-4,192,-4634,23,-346,-165,139
805,-3787,-5,189,-4635,23,-347,-156,139
806,-3787,-4,189,-4634,23,-349,-154,143
807,-3790,-1,183,-4629,23,-351,-153,137
808,-3789,-3,179,-4632,23,-352,-154,139
809,-3781,-6,190,-4636,23,-348,-157,142
810,-3789,-8,174,-4639,23,-351,-153,144
811,-3802,-5,184,-4638,23,-355,-151,144
812,-3786,-8,177,-4638,23,-350,-149,141
813,-3795,2,191,-4633,23,-350,-153,141
814,-3788,-2,191,-4631,23,-339,-158,144
815,-3793,-7,194,-4631,23,-344,-151,140
816,-3784,-1,202,-4631,23,-342,-154,138
817,-3783,-6,179,-4629,23,-344,-158,138
818,-3794,-4,188,-4636,23,-344,-150,146
819,-3792,-12,181,-4637,23,-354,-155,140
820,-3794,-2,175,-4633,23,-352,-152,138
821,-3786,-1,182,-4634,23,-349,-152,143
822,-3794,-4,182,-4635,23,-345,-155,140
823,-3787,-1,176,-4633,23,-348,-149,144
824,-3784,-12,187,-4633,23,-345,-153,145
825,-3790,-9,197,-4631,23,-344,-161,142
826,-3794,-12,195,-4634,23,-353,-154,147
827,-3787,-5,198,-4636,23,-348,-159,138
828,-3793,0,196,-4632,23,-342,-163,140
829,-3791,-5,176,-4637,23,-342,-153,139
830,-3789,-2,182,-4638,23,-348,-155,143
831,-3788,2,186,-4635,23,-358,-154,142
832,-3782,-1,190,-4632,23,-357,-157,139
833,-3784,0,185,-4629,23,-351,-159,141
834,-3789,-4,189,-4635,23,-355,-163,150
835,-3790,-1,185,-4637,23,-353,-151,138
836,-3787,-3,178,-4635,23,-345,-154,139
837,-3788,0,184,-4641,23,-346,-151,140
838,-3790,-2,187,-4635,23,-351,-153,140
839,-3789,-9,194,-4638,23,-343,-153,138
840,-3783,-8,196,-4633,23,-350,-153,141
841,-3791,-8,178,-4635,23,-346,-149,137
842,-3794,-5,186,-4629,23,-351,-152,141
843,-3791,-8,187,-4632,23,-350,-148,143
844,-3794,-8,191,-4627,23,-348,-147,136
845,-3789,3,180,-4630,23,-343,-149,144
846,-3788,-1,177,-4635,23,-345,-153,139
847,-3785,-4,187,-4636,23,-345,-152,136
848,-3788,-9,182,-4633,23,-342,-151,136
849,-3793,-7,174,-4632,23,-348,-153,144
850,-3793,-3,190,-4630,23,-346,-157,138
851,-3790,-6,183,-4634,23,-352,-156,141
852,-3792,-6,196,-4637,23,-351,-155,141
853,-3786,-7,191,-4637,23,-348,-151,143
854,-3788,-9,196,-4635,23,-344,-149,139
855,-3785,1,188,-4629,23,-345,-152,139
856,-3788,3,177,-4628,23,-346,-145,141
857,-3789,1,172,-4633,23,-348,-145,141
858,-3794,-14,176,-4631,23,-347,-150,144
859,-3796,-7,182,-4629,23,-351,-147,144
860,-3793,-2,192,-4633,23,-351,-156,142
861,-3786,-4,190,-4638,23,-351,-152,144
862,-3790,-4,199,-4635,23,-353,-153,143
863,-3789,0,192,-4633,23,-352,-147,141
864,-3783,-5,202,-4633,23,-357,-146,150
865,-3790,-4,185,-4633,23,-351,-152,142
866,-3791,-3,187,-4635,23,-347,-153,139
867,-3782,-4,195,-4633,23,-356,-159,138
868,-3792,-4,187,-4639,23,-352,-157,137
869,-3795,-3,185,-4636,23,-351,-154,129
870,-3790,-1,196,-4633,23,-352,-154,142
871,-3793,-4,189,-4632,23,-349,-148,140
872,-3789,-7,177,-4632,23,-347,-157,140
873,-3785,-4,182,-4629,23,-344,-158,141
874,-3788,-1,184,-4627,23,-351,-153,139
875,-3787,4,189,-4635,23,-351,-164,140
876,-3787,2,189,-4634,23,-354,-154,143
877,-3789,1,177,-4634,23,-343,-154,145
878,-3792,-5,188,-4636,23,-348,-149,139
879,-3791,-9,185,-4631,23,-349,-150,136
880,-3792,-8,183,-4633,23,-348,-156,138
881,-3787,-6,189,-4631,23,-347,-152,135
882,-3789,-1,184,-4629,23,-356,-146,138
883,-3786,-2,186,-4627,23,-351,-153,141
884,-3788,-10,191,-4636,23,-355,-152,134
885,-3783,-12,187,-4639,23,-355,-152,141
886,-3783,-5,176,-4638,23,-358,-148,137
887,-3785,-6,181,-4639,23,-353,-149,132
888,-3787,-10,180,-4644,23,-349,-155,139
889,-3789,-7,180,-4643,23,-354,-153,141
890,-3787,-11,180,-4641,23,-353,-159,131
891,-3791,-8,187,-4639,23,-355,-154,138
892,-3789,-2,189,-4637,23,-349,-152,141
893,-3788,-7,190,-4635,23,-348,-153,138
894,-3783,0,188,-4637,23,-349,-154,141
895,-3791,-4,190,-4641,23,-347,-156,144
896,-3787,1,194,-4635,23,-347,-156,142
897,-3789,-3,184,-4633,23,-342,-155,138
898,-3786,-6,188,-4638,23,-352,-150,136
899,-3785,-3,182,-4634,23,-347,-149,135
900,-3789,5,188,-4637,23,-353,-155,137
901,-3787,-1,190,-4634,23,-341,-150,136
902,-3787,0,193,-4637,23,-352,-147,143
903,-3792,3,186,-4641,23,-356,-154,147
904,-3790,7,182,-4634,23,-351,-154,136
905,-3792,-7,191,-4634,23,-353,-155,143
906,-3790,-3,182,-4635,23,-354,-155,138
907,-3779,-11,181,-4634,23,-351,-155,136
908,-3794,-4,185,-4633,23,-357,-158,138
909,-3789,-5,184,-4630,23,-354,-156,139
910,-3792,-2,180,-4632,23,-355,-153,139
911,-3793,3,184,-4636,23,-353,-146,139
912,-3784,3,180,-4631,23,-352,-153,138
913,-3788,0,186,-4633,23,-353,-163,141
914,-3786,0,175,-4637,23,-350,-159,136
915,-3790,0,186,-4635,23,-346,-159,139
916,-3786,4,193,-4632,23,-342,-154,132
917,-3783,2,187,-4630,23,-348,-156,146
918,-3791,0,197,-4631,23,-348,-157,140
919,-3793,-2,189,-4632,23,-351,-157,140
920,-3791,1,192,-4631,23,-352,-160,134
921,-3785,6,182,-4630,23,-354,-156,132
922,-3786,-6,191,-4632,23,-358,-151,137
923,-3791,-6,179,-4632,23,-358,-148,138
924,-3794,-9,198,-4634,23,-354,-159,147
925,-3790,-7,193,-4633,23,-350,-157,139
926,-3787,-1,194,-4635,23,-350,-153,140
927,-3789,-4,183,-4630,23,-347,-151,139
928,-3788,-10,191,-4631,23,-347,-157,141
929,-3794,1,188,-4636,23,-349,-160,138
930,-3791,-4,185,-4636,23,-343,-157,139
931,-3793,-2,179,-4636,23,-345,-154,140
932,-3792,2,182,-4634,23,-344,-163,140
933,-3800,-3,193,-4634,23,-348,-148,141
934,-3787,-6,189,-4630,23,-351,-148,143
935,-3781,-6,186,-4629,23,-343,-151,134
936,-3788,-9,191,-4628,23,-354,-153,140
937,-3789,2,188,-4629,23,-345,-158,141
938,-3791,2,177,-4631,23,-346,-156,140
939,-3787,-3,194,-4634,23,-351,-154,135
940,-3789,-8,200,-4633,23,-356,-153,133
941,-3790,-1,188,-4632,23,-353,-152,143
942,-3784,-5,195,-4636,23,-345,-149,138
943,-3787,-4,195,-4637,23,-346,-151,143
944,-3788,-6,191,-4632,23,-346,-153,145
945,-3789,-3,183,-4630,23,-356,-157,143
946,-3790,-4,183,-4632,23,-352,-148,143
947,-3789,-10,186,-4633,23,-352,-148,144
948,-3787,-8,179,-4632,23,-349,-155,139
949,-3787,-4,178,-4631,23,-351,-160,134
950,-3783,-3,183,-4631,23,-351,-159,131
951,-3788,4,186,-4634,23,-356,-153,140
952,-3793,-5,182,-4634,23,-355,-155,141
953,-3786,-3,179,-4633,23,-350,-157,142
954,-3787,-1,182,-4632,23,-342,-149,146
955,-3789,-2,176,-4632,23,-347,-155,133
956,-3788,-2,183,-4629,23,-355,-155,137
957,-3781,-1,189,-4631,23,-352,-154,144
958,-3777,-2,201,-4632,23,-346,-150,148
959,-3782,-1,197,-4629,23,-347,-153,138
960,-3781,0,191,-4632,23,-345,-153,131
961,-3788,-10,185,-4633,23,-351,-161,139
962,-3790,-6,190,-4633,23,-351,-156,140
963,-3782,-9,191,-4634,23,-349,-151,144
964,-3787,-12,193,-4633,23,-343,-155,141
965,-3790,-7,197,-4634,23,-342,-153,141
966,-3787,-5,182,-4635,23,-343,-146,152
967,-3796,-6,182,-4633,23,-353,-148,138
968,-3793,-7,191,-4634,23,-351,-150,139
969,-3794,-3,193,-4635,23,-355,-151,143
970,-3800,-5,178,-4634,23,-353,-152,141
971,-3798,-5,183,-4635,23,-353,-155,145
972,-3793,2,189,-4634,23,-353,-161,142
973,-3789,0,181,-4632,23,-349,-154,143
974,-3792,-3,180,-4631,23,-353,-156,143
975,-3796,1,184,-4635,23,-350,-155,142
976,-3793,-2,191,-4636,23,-353,-159,137
977,-3795,-6,187,-4635,23,-355,-159,137
978,-3790,-5,185,-4640,23,-358,-157,139
979,-3794,-2,194,-4634,23,-353,-154,145
980,-3790,-5,186,-4630,23,-348,-151,146
981,-3794,-1,190,-4634,23,-344,-156,141
982,-3789,-7,193,-4634,23,-343,-151,140
983,-3785,-4,185,-4635,23,-349,-161,143
984,-3788,-7,184,-4632,23,-343,-151,136
985,-3783,-3,188,-4635,23,-350,-158,140
986,-3784,-6,193,-4635,23,-352,-154,131
987,-3788,1,189,-4633,23,-347,-155,140
988,-3791,2,184,-4635,23,-350,-152,134
989,-3785,1,191,-4630,23,-351,-144,140
990,-3784,-6,195,-4628,23,-355,-150,137
991,-3787,-6,192,-4631,23,-347,-149,137
992,-3791,-7,187,-4638,23,-344,-151,136
993,-3795,-8,183,-4637,23,-346,-149,140
994,-3789,-6,188,-4636,23,-352,-148,135
995,-3784,-4,191,-4633,23,-350,-147,139
996,-3782,-7,186,-4636,23,-351,-156,142
997,-3782,1,181,-4631,23,-344,-155,140
998,-3789,-8,179,-4630,23,-346,-147,144
