,acc_X,acc_Y,acc_Z,temp,tempC,gyr_X,gyr_Y,gyr_Z
0,-3786,-2,193,-4630,23,-44,-19,17
1,-3787,-1,194,-4631,23,-44,-20,17
2,-3789,-1,193,-4632,23,-44,-20,17
3,-3789,-3,189,-4630,23,-44,-19,17
4,-3788,-3,186,-4628,23,-44,-19,17
5,-3790,-3,185,-4628,23,-44,-19,17
6,-3788,-2,187,-4627,23,-44,-20,17
7,-3786,-1,187,-4625,23,-44,-20,17
8,-3787,-1,186,-4627,23,-44,-20,17
9,-3784,1,184,-4626,23,-44,-19,17
10,-3787,0,187,-4628,23,-44,-19,17
11,-3788,-1,188,-4628,23,-44,-19,17
12,-3790,-1,186,-4627,23,-44,-20,17
13,-3789,0,187,-4627,23,-44,-19,18
14,-3788,-1,185,-4627,23,-44,-20,17
15,-3787,0,184,-4626,23,-44,-20,17
16,-3787,0,180,-4627,23,-44,-20,17
17,-3787,-1,182,-4627,23,-44,-20,17
18,-3790,0,188,-4629,23,-44,-20,17
19,-3789,0,190,-4628,23,-44,-20,17
20,-3789,2,192,-4628,23,-44,-20,17
21,-3788,1,192,-4627,23,-44,-20,17
22,-3789,1,185,-4630,23,-44,-20,17
23,-3788,-1,186,-4631,23,-44,-19,17
24,-3788,-1,190,-4630,23,-44,-19,17
25,-3788,-5,185,-4629,23,-44,-19,17
26,-3788,-7,185,-4629,23,-44,-19,17
27,-3790,-4,185,-4629,23,-44,-19,17
28,-3791,-5,185,-4627,23,-44,-19,17
29,-3791,-7,189,-4626,23,-45,-19,17
30,-3789,-7,189,-4628,23,-44,-19,17
31,-3790,-5,191,-4627,23,-44,-19,17
32,-3791,-5,190,-4627,23,-44,-19,17
33,-3791,-2,190,-4626,23,-44,-19,17
34,-3790,-1,187,-4627,23,-45,-19,17
35,-3788,-3,186,-4627,23,-45,-19,17
36,-3790,-5,185,-4628,23,-45,-19,17
37,-3791,-7,183,-4628,23,-44,-20,17
38,-3793,-4,184,-4628,23,-44,-20,17
39,-3790,-1,187,-4627,23,-44,-20,17
40,-3790,-3,184,-4629,23,-44,-19,17
41,-3792,-2,184,-4629,23,-44,-19,17
42,-3789,-1,188,-4628,23,-44,-20,17
43,-3789,1,188,-4627,23,-44,-20,17
44,-3786,-1,188,-4627,23,-44,-20,17
45,-3786,-4,189,-4628,23,-44,-19,17
46,-3787,-4,192,-4628,23,-44,-19,17
47,-3786,-6,190,-4629,23,-44,-19,17
48,-3787,-4,189,-4626,23,-44,-19,17
49,-3787,-3,189,-4626,23,-44,-19,17
50,-3789,-2,187,-4626,23,-44,-20,17
51,-3793,-4,189,-4626,23,-44,-20,17
52,-3791,-4,188,-4626,23,-44,-19,17
53,-3787,-5,189,-4627,23,-44,-19,17
54,-3789,-6,186,-4628,23,-45,-20,17
55,-3791,-6,188,-4627,23,-44,-19,17
56,-3791,-5,189,-4628,23,-44,-20,17
57,-3791,-4,191,-4630,23,-44,-20,17
58,-3794,-3,191,-4630,23,-44,-19,17
59,-3792,-3,191,-4631,23,-44,-19,17
60,-3788,-6,193,-4631,23,-44,-20,17
61,-3789,-2,190,-4628,23,-44,-20,17
62,-3788,-3,190,-4628,23,-44,-19,18
63,-3787,-4,184,-4627,23,-44,-20,17
64,-3786,-3,189,-4627,23,-44,-20,18
65,-3787,-4,187,-4627,23,-44,-20,18
66,-3788,0,188,-4628,23,-44,-20,18
67,-3788,-1,186,-4627,23,-44,-20,18
68,-3789,-3,189,-4626,23,-44,-20,17
69,-3789,-3,190,-4627,23,-43,-20,17
70,-3787,-2,188,-4628,23,-44,-20,17
71,-3791,-5,188,-4628,23,-44,-20,17
72,-3789,-5,186,-4628,23,-44,-20,17
73,-3788,-6,189,-4628,23,-44,-20,17
74,-3788,-1,186,-4629,23,-44,-20,17
75,-3789,-3,185,-4630,23,-44,-20,17
76,-3788,-3,187,-4628,23,-44,-20,17
77,-3787,-5,191,-4628,23,-44,-20,17
78,-3788,-6,195,-4630,23,-44,-20,17
79,-3789,-6,193,-4630,23,-44,-20,17
80,-3789,-4,190,-4629,23,-44,-19,17
81,-3790,-2,192,-4628,23,-44,-19,17
82,-3791,-3,193,-4629,23,-44,-20,17
83,-3791,-4,194,-4629,23,-44,-20,17
84,-3790,-6,195,-4628,23,-44,-20,17
85,-3788,-6,191,-4629,23,-44,-19,17
86,-3787,-6,192,-4629,23,-44,-19,17
87,-3790,-6,191,-4631,23,-44,-19,17
88,-3791,-6,193,-4631,23,-44,-19,17
89,-3791,-6,193,-4631,23,-44,-19,17
90,-3790,-6,193,-4630,23,-44,-20,17
91,-3790,-5,195,-4630,23,-44,-20,17
92,-3789,-5,192,-4629,23,-44,-20,17
93,-3791,-5,188,-4628,23,-44,-19,17
94,-3789,-4,188,-4628,23,-44,-19,17
95,-3790,-4,187,-4628,23,-44,-20,17
96,-3791,-2,188,-4629,23,-44,-19,17
97,-3790,0,187,-4628,23,-44,-20,17
98,-3789,0,186,-4627,23,-44,-19,17
99,-3788,-1,185,-4628,23,-44,-20,17
100,-3786,1,189,-4628,23,-44,-19,17
101,-3787,1,187,-4629,23,-44,-20,17
102,-3785,-3,189,-4628,23,-44,-19,17
103,-3786,-3,187,-4628,23,-45,-19,17
104,-3788,-3,190,-4629,23,-45,-19,17
105,-3787,-2,191,-4627,23,-44,-19,18
106,-3788,-4,189,-4628,23,-44,-19,17
107,-3791,-9,189,-4627,23,-44,-20,17
108,-3791,-7,186,-4627,23,-44,-20,17
109,-3790,-6,190,-4628,23,-44,-20,17
110,-3790,-6,188,-4628,23,-44,-19,17
111,-3788,-4,189,-4626,23,-44,-19,17
112,-3789,-3,189,-4625,23,-44,-19,17
113,-3789,-5,188,-4626,23,-44,-19,17
114,-3788,-4,193,-4626,23,-44,-19,17
115,-3789,-2,193,-4625,23,-44,-19,17
116,-3790,-2,196,-4625,23,-44,-19,17
117,-3791,-4,193,-4625,23,-44,-19,17
118,-3791,-2,190,-4625,23,-44,-19,17
119,-3791,-1,189,-4626,23,-44,-19,17
120,-3792,2,189,-4626,23,-44,-19,17
121,-3793,2,185,-4625,23,-44,-19,17
122,-3792,-2,187,-4626,23,-44,-19,17
123,-3790,0,188,-4628,23,-44,-19,17
124,-3790,-4,193,-4626,23,-44,-19,17
125,-3790,-5,190,-4625,23,-44,-19,17
126,-3789,-5,189,-4626,23,-44,-19,17
127,-3787,-7,188,-4626,23,-44,-19,17
128,-3788,-6,191,-4626,23,-44,-20,17
129,-3788,-6,191,-4625,23,-44,-20,17
130,-3789,-5,190,-4626,23,-44,-20,17
131,-3789,-4,187,-4627,23,-44,-20,17
132,-3790,-4,189,-4627,23,-44,-19,17
133,-3788,-4,189,-4627,23,-44,-19,17
134,-3788,-3,193,-4624,23,-44,-19,17
135,-3790,-3,191,-4625,23,-44,-19,17
136,-3790,-3,186,-4624,23,-44,-19,17
137,-3789,-2,189,-4624,23,-44,-19,17
138,-3789,-2,190,-4623,23,-43,-19,17
139,-3790,-4,188,-4625,23,-44,-19,17
140,-3790,-3,188,-4626,23,-44,-20,17
141,-3790,-3,185,-4626,23,-44,-20,17
142,-3791,-2,189,-4627,23,-44,-20,17
143,-3791,-1,190,-4627,23,-44,-20,17
144,-3790,-2,189,-4626,23,-44,-20,17
145,-3788,-4,188,-4627,23,-44,-20,17
146,-3789,-3,186,-4626,23,-44,-20,17
147,-3792,-3,187,-4626,23,-44,-20,17
148,-3792,-4,185,-4626,23,-44,-20,17
149,-3792,-3,186,-4627,23,-44,-20,17
150,-3792,-4,188,-4627,23,-44,-20,17
151,-3791,-3,187,-4625,23,-44,-20,17
152,-3791,-4,189,-4625,23,-44,-20,17
153,-3792,-2,188,-4625,23,-44,-20,17
154,-3792,-1,187,-4627,23,-44,-20,17
155,-3792,-4,184,-4627,23,-44,-20,17
156,-3790,-3,184,-4628,23,-44,-19,17
157,-3789,-6,183,-4627,23,-44,-19,17
158,-3788,-6,185,-4628,23,-44,-19,17
159,-3790,-7,185,-4628,23,-44,-19,17
160,-3786,-6,190,-4628,23,-44,-19,17
161,-3785,-3,190,-4629,23,-45,-19,17
162,-3785,-4,193,-4630,23,-45,-20,17
163,-3783,-4,192,-4628,23,-45,-19,17
164,-3785,-4,191,-4628,23,-45,-19,17
165,-3784,-3,190,-4628,23,-45,-19,17
166,-3784,-2,189,-4627,23,-45,-19,17
167,-3787,-1,190,-4628,23,-44,-19,17
168,-3789,-3,185,-4626,23,-44,-19,17
169,-3787,-2,186,-4624,23,-44,-19,17
170,-3790,0,183,-4625,23,-44,-19,17
171,-3791,0,184,-4625,23,-44,-19,17
172,-3788,-2,184,-4625,23,-44,-19,17
173,-3789,-4,187,-4625,23,-44,-20,17
174,-3789,-3,185,-4624,23,-44,-20,17
175,-3789,-5,187,-4624,23,-44,-20,17
176,-3789,-5,189,-4626,23,-44,-20,17
177,-3789,-4,187,-4627,23,-44,-20,17
178,-3789,-2,185,-4628,23,-44,-19,17
179,-3789,0,184,-4626,23,-44,-20,17
180,-3788,-1,188,-4626,23,-44,-20,17
181,-3787,-1,187,-4628,23,-44,-20,17
182,-3788,-1,189,-4625,23,-44,-20,17
183,-3789,1,191,-4627,23,-44,-20,17
184,-3791,0,191,-4625,23,-44,-20,18
185,-3789,0,190,-4625,23,-44,-20,18
186,-3789,-1,189,-4625,23,-44,-20,17
187,-3791,-2,189,-4623,23,-44,-20,17
188,-3791,-1,190,-4624,23,-44,-19,17
189,-3792,-2,190,-4624,23,-44,-19,17
190,-3793,-3,193,-4626,23,-44,-19,17
191,-3793,-3,189,-4626,23,-44,-19,17
192,-3792,-5,187,-4626,23,-44,-19,18
193,-3793,-3,185,-4624,23,-44,-19,18
194,-3792,-4,186,-4624,23,-44,-19,17
195,-3794,-2,193,-4625,23,-44,-19,17
196,-3791,-3,194,-4623,23,-44,-19,17
197,-3791,-2,193,-4623,23,-44,-19,17
198,-3792,-4,194,-4623,23,-44,-19,17
199,-3791,-2,190,-4623,23,-44,-20,17
200,-3791,0,190,-4623,23,-44,-20,17
201,-3789,-4,190,-4622,23,-44,-20,17
202,-3788,-4,187,-4622,23,-44,-20,17
203,-3789,-5,186,-4621,23,-44,-19,17
204,-3792,-2,185,-4620,23,-44,-20,17
205,-3791,-2,187,-4623,23,-44,-20,17
206,-3790,-3,190,-4625,23,-44,-20,17
207,-3789,-4,190,-4623,23,-44,-20,17
208,-3790,-2,190,-4622,23,-44,-19,17
209,-3790,-3,190,-4625,23,-44,-19,17
210,-3790,-2,190,-4624,23,-44,-19,17
211,-3789,-6,192,-4625,23,-44,-20,17
212,-3788,-9,195,-4625,23,-44,-20,17
213,-3789,-8,196,-4626,23,-44,-19,17
214,-3789,-9,197,-4625,23,-44,-19,17
215,-3788,-9,197,-4626,23,-44,-19,17
216,-3788,-8,194,-4625,23,-44,-19,17
217,-3789,-5,191,-4624,23,-44,-19,17
218,-3788,-6,187,-4624,23,-44,-20,17
219,-3788,-7,186,-4626,23,-44,-20,17
220,-3786,-6,189,-4626,23,-44,-20,17
221,-3787,-6,185,-4627,23,-44,-20,17
222,-3788,-5,188,-4625,23,-44,-20,17
223,-3788,-6,187,-4627,23,-44,-20,17
224,-3789,-4,183,-4626,23,-44,-20,17
225,-3789,-3,182,-4626,23,-44,-19,17
226,-3790,-1,182,-4624,23,-44,-19,17
227,-3790,1,178,-4623,23,-44,-20,17
228,-3791,-2,176,-4622,23,-44,-20,17
229,-3790,-2,178,-4622,23,-44,-19,17
230,-3789,-1,183,-4623,23,-44,-19,17
231,-3790,-2,182,-4623,23,-44,-19,17
232,-3791,-2,184,-4625,23,-44,-19,17
233,-3790,-2,183,-4622,23,-44,-20,16
234,-3789,-2,181,-4624,23,-44,-20,17
235,-3786,-2,182,-4622,23,-44,-20,17
236,-3785,-5,183,-4623,23,-44,-20,17
237,-3784,-6,182,-4624,23,-44,-20,17
238,-3785,-5,184,-4622,23,-44,-20,17
239,-3785,-5,185,-4622,23,-44,-20,17
240,-3787,-2,189,-4624,23,-44,-20,17
241,-3790,-2,191,-4622,23,-45,-20,17
242,-3789,-3,191,-4620,23,-44,-20,17
243,-3789,0,190,-4619,23,-44,-20,17
244,-3787,1,190,-4619,23,-44,-20,17
245,-3788,2,187,-4619,23,-44,-20,17
246,-3791,-3,184,-4619,23,-44,-20,17
247,-3790,-3,189,-4618,23,-44,-20,17
248,-3789,-3,190,-4620,23,-44,-20,17
249,-3789,-3,192,-4620,23,-44,-20,17
250,-3789,-5,189,-4620,23,-45,-19,17
251,-3790,-6,191,-4619,23,-45,-19,17
252,-3786,-4,190,-4621,23,-44,-20,17
253,-3788,-3,189,-4622,23,-44,-20,17
254,-3787,-3,192,-4621,23,-44,-19,17
255,-3787,0,191,-4621,23,-44,-19,17
256,-3788,1,189,-4622,23,-44,-19,18
257,-3787,1,187,-4622,23,-44,-19,17
258,-3784,2,185,-4623,23,-44,-19,17
259,-3784,2,183,-4622,23,-44,-19,17
260,-3784,1,181,-4623,23,-44,-19,17
261,-3788,0,183,-4622,23,-44,-19,17
262,-3786,0,188,-4622,23,-44,-19,17
263,-3785,0,188,-4622,23,-44,-19,17
264,-3781,0,187,-4621,23,-44,-19,17
265,-3780,1,190,-4620,23,-44,-19,17
266,-3782,2,188,-4619,23,-45,-19,17
267,-3786,1,189,-4620,23,-44,-19,17
268,-3788,1,190,-4622,23,-44,-20,17
269,-3786,0,189,-4625,23,-44,-19,17
270,-3789,0,190,-4626,23,-44,-20,17
271,-3788,-1,190,-4625,23,-44,-19,17
272,-3788,0,188,-4624,23,-44,-20,17
273,-3786,0,190,-4623,23,-44,-19,17
274,-3783,-2,191,-4623,23,-44,-20,17
275,-3783,-1,193,-4623,23,-44,-19,17
276,-3785,-2,189,-4623,23,-44,-19,17
277,-3788,-2,188,-4623,23,-44,-19,17
278,-3787,-2,185,-4624,23,-44,-19,17
279,-3787,-3,185,-4622,23,-44,-19,17
280,-3786,-3,184,-4623,23,-45,-19,17
281,-3786,-1,183,-4623,23,-44,-19,17
282,-3788,-1,181,-4624,23,-44,-20,17
283,-3787,-1,183,-4624,23,-44,-20,17
284,-3787,-2,186,-4624,23,-44,-20,17
285,-3786,-2,185,-4622,23,-44,-20,17
286,-3788,-1,185,-4623,23,-44,-20,17
287,-3789,-1,186,-4622,23,-44,-20,18
288,-3789,-4,188,-4623,23,-44,-20,17
289,-3787,-5,186,-4625,23,-44,-20,17
290,-3787,-7,187,-4624,23,-44,-20,17
291,-3790,-6,187,-4626,23,-44,-19,17
292,-3789,-5,188,-4625,23,-44,-20,17
293,-3789,-3,186,-4623,23,-44,-20,17
294,-3789,-4,187,-4623,23,-44,-20,17
295,-3787,0,187,-4623,23,-44,-20,17
296,-3790,-2,184,-4624,23,-44,-20,17
297,-3790,-4,189,-4623,23,-44,-19,17
298,-3791,-3,191,-4623,23,-44,-20,17
299,-3793,-2,189,-4624,23,-44,-19,17
300,-3792,-3,189,-4624,23,-44,-20,17
301,-3793,-2,188,-4623,23,-44,-20,17
302,-3791,-1,188,-4622,23,-44,-20,16
303,-3791,0,192,-4622,23,-44,-19,17
304,-3792,-1,193,-4622,23,-44,-20,16
305,-3791,0,187,-4622,23,-44,-20,16
306,-3790,2,187,-4621,23,-44,-20,17
307,-3790,-1,190,-4620,23,-44,-20,17
308,-3788,0,190,-4619,23,-44,-20,17
309,-3787,-1,191,-4619,23,-44,-20,17
310,-3789,-1,191,-4620,23,-44,-20,17
311,-3791,-2,187,-4621,23,-44,-20,17
312,-3790,-2,186,-4621,23,-44,-20,17
313,-3788,-2,186,-4621,23,-44,-20,17
314,-3788,-2,189,-4621,23,-44,-19,17
315,-3789,-1,189,-4621,23,-44,-19,17
316,-3790,-3,188,-4621,23,-44,-19,17
317,-3794,-2,190,-4622,23,-44,-19,17
318,-3793,-4,189,-4622,23,-44,-19,17
319,-3791,-4,190,-4622,23,-44,-20,17
320,-3789,-6,192,-4623,23,-44,-20,17
321,-3789,-5,193,-4624,23,-44,-20,17
322,-3791,-4,189,-4624,23,-44,-19,17
323,-3790,-2,190,-4625,23,-44,-19,17
324,-3790,-1,190,-4624,23,-44,-19,17
325,-3791,-4,189,-4624,23,-44,-19,17
326,-3792,-6,186,-4625,23,-44,-19,17
327,-3793,-7,183,-4625,23,-44,-19,17
328,-3793,-8,186,-4625,23,-44,-19,17
329,-3795,-6,186,-4624,23,-44,-19,17
330,-3793,-5,187,-4623,23,-44,-19,17
331,-3794,-4,190,-4624,23,-44,-19,17
332,-3795,-5,191,-4623,23,-44,-19,17
333,-3793,-3,189,-4622,23,-44,-19,17
334,-3789,-3,189,-4621,23,-44,-19,17
335,-3790,-1,185,-4620,23,-44,-20,17
336,-3790,0,184,-4619,23,-44,-19,17
337,-3787,1,184,-4619,23,-44,-20,17
338,-3787,0,187,-4620,23,-44,-19,17
339,-3788,-1,188,-4620,23,-44,-20,17
340,-3790,-1,185,-4619,23,-44,-19,17
341,-3790,-1,187,-4619,23,-44,-20,17
342,-3790,-1,189,-4619,23,-44,-20,17
343,-3789,-3,192,-4621,23,-44,-20,17
344,-3789,-5,191,-4621,23,-44,-20,17
345,-3789,-4,194,-4621,23,-44,-20,17
346,-3788,-4,191,-4621,23,-44,-20,17
347,-3787,-5,193,-4622,23,-44,-20,17
348,-3789,-4,190,-4621,23,-44,-20,17
349,-3791,-4,187,-4622,23,-44,-20,17
350,-3792,-6,190,-4623,23,-44,-19,17
351,-3791,-5,191,-4624,23,-44,-19,17
352,-3794,-3,187,-4624,23,-44,-19,17
353,-3791,-3,186,-4624,23,-44,-19,17
354,-3791,-2,190,-4624,23,-44,-19,17
355,-3793,-3,190,-4623,23,-45,-19,17
356,-3794,-4,192,-4622,23,-44,-19,17
357,-3792,-3,190,-4623,23,-44,-19,17
358,-3791,-1,189,-4622,23,-44,-19,17
359,-3793,-4,190,-4622,23,-44,-19,17
360,-3790,-3,190,-4621,23,-44,-19,17
361,-3789,-4,192,-4623,23,-44,-19,17
362,-3790,-3,193,-4623,23,-44,-19,17
363,-3787,-5,192,-4622,23,-44,-19,17
364,-3789,-6,188,-4621,23,-44,-19,18
365,-3789,-4,185,-4621,23,-44,-19,18
366,-3789,-3,190,-4622,23,-44,-20,17
367,-3788,-4,191,-4622,23,-44,-20,17
368,-3787,-5,190,-4619,23,-44,-19,17
369,-3787,-5,190,-4619,23,-44,-19,17
370,-3787,-5,192,-4617,23,-44,-19,17
371,-3786,-5,193,-4619,23,-44,-19,17
372,-3786,-4,190,-4619,23,-44,-19,17
373,-3786,-3,190,-4621,23,-44,-19,17
374,-3785,-3,185,-4620,23,-44,-20,17
375,-3785,-4,187,-4621,23,-44,-20,17
376,-3787,-3,188,-4622,23,-44,-20,17
377,-3789,-2,186,-4620,23,-44,-20,17
378,-3788,-1,186,-4622,23,-44,-20,18
379,-3790,-1,186,-4622,23,-44,-20,18
380,-3789,-1,187,-4621,23,-44,-20,17
381,-3787,-2,187,-4621,23,-44,-20,17
382,-3788,-4,189,-4621,23,-44,-20,17
383,-3788,-6,189,-4624,23,-44,-20,17
384,-3788,-3,189,-4625,23,-44,-20,17
385,-3787,-1,190,-4624,23,-44,-20,17
386,-3785,-1,187,-4623,23,-44,-20,17
387,-3786,-2,185,-4623,23,-44,-19,17
388,-3787,-4,186,-4623,23,-44,-19,17
389,-3789,-3,187,-4623,23,-44,-19,17
390,-3788,-3,188,-4623,23,-44,-19,17
391,-3788,-2,188,-4623,23,-44,-19,17
392,-3786,-2,191,-4623,23,-44,-19,17
393,-3786,-3,192,-4623,23,-44,-19,17
394,-3788,-6,191,-4624,23,-44,-20,17
395,-3789,-5,194,-4623,23,-44,-20,17
396,-3788,-4,195,-4622,23,-44,-20,17
397,-3789,-3,194,-4623,23,-44,-20,17
398,-3789,-2,194,-4624,23,-44,-20,17
399,-3788,-3,194,-4622,23,-44,-20,18
400,-3787,-3,194,-4621,23,-44,-19,17
401,-3787,-3,194,-4619,23,-44,-20,17
402,-3787,-1,192,-4621,23,-44,-19,17
403,-3787,-2,194,-4621,23,-44,-20,17
404,-3788,-4,194,-4622,23,-44,-20,17
405,-3789,-6,194,-4621,23,-44,-20,17
406,-3786,-7,190,-4622,23,-44,-19,17
407,-3785,-6,190,-4622,23,-44,-20,17
408,-3788,-5,188,-4623,23,-44,-19,17
409,-3788,-6,191,-4621,23,-44,-19,17
410,-3788,-6,187,-4620,23,-44,-19,17
411,-3789,-5,187,-4620,23,-44,-19,17
412,-3790,-6,187,-4621,23,-44,-19,17
413,-3791,-7,191,-4621,23,-44,-20,17
414,-3790,-6,191,-4620,23,-44,-20,17
415,-3790,-6,194,-4621,23,-44,-19,17
416,-3790,-5,192,-4620,23,-44,-19,17
417,-3788,-8,195,-4618,23,-44,-19,17
418,-3787,-4,193,-4619,23,-44,-20,17
419,-3787,-4,192,-4618,23,-44,-20,17
420,-3790,-4,190,-4618,23,-44,-20,16
421,-3789,-4,187,-4619,23,-44,-20,17
422,-3791,-4,188,-4617,23,-44,-20,17
423,-3789,-6,187,-4617,23,-44,-20,17
424,-3789,-6,188,-4617,23,-44,-20,17
425,-3790,-8,187,-4616,23,-44,-20,17
426,-3788,-9,190,-4617,23,-44,-20,17
427,-3788,-7,188,-4617,23,-44,-19,17
428,-3788,-9,189,-4618,23,-44,-20,17
429,-3790,-8,186,-4619,23,-44,-19,17
430,-3786,-6,189,-4621,23,-44,-19,17
431,-3786,-4,189,-4619,23,-44,-19,17
432,-3786,-3,188,-4620,23,-44,-20,17
433,-3787,-4,186,-4620,23,-44,-20,17
434,-3785,-3,185,-4620,23,-44,-19,17
435,-3789,-4,184,-4620,23,-44,-19,17
436,-3791,-6,181,-4621,23,-44,-19,17
437,-3789,-8,184,-4622,23,-44,-19,17
438,-3791,-5,184,-4621,23,-44,-20,17
439,-3792,-5,185,-4619,23,-44,-20,17
440,-3791,-6,187,-4617,23,-44,-20,17
441,-3788,-6,187,-4616,23,-44,-20,17
442,-3789,-6,190,-4617,23,-44,-19,17
443,-3788,-6,187,-4619,23,-44,-19,17
444,-3790,-5,188,-4618,23,-44,-19,17
445,-3790,-4,191,-4619,23,-44,-19,17
446,-3791,-4,192,-4619,23,-44,-20,17
447,-3794,-4,190,-4617,23,-44,-20,17
448,-3792,-6,190,-4619,23,-44,-20,18
449,-3791,-4,191,-4619,23,-44,-20,17
450,-3788,-6,189,-4620,23,-44,-20,17
451,-3784,-3,185,-4621,23,-44,-19,17
452,-3786,-3,186,-4620,23,-44,-19,17
453,-3787,-3,187,-4621,23,-44,-19,17
454,-3787,-5,186,-4620,23,-44,-19,17
455,-3787,-7,182,-4621,23,-44,-19,17
456,-3787,-6,180,-4620,23,-44,-19,17
457,-3788,-5,182,-4621,23,-44,-19,17
458,-3789,-5,181,-4619,23,-44,-19,17
459,-3790,-3,181,-4620,23,-44,-19,17
460,-3788,-5,185,-4619,23,-44,-19,17
461,-3787,-4,186,-4620,23,-44,-20,17
462,-3788,-4,188,-4620,23,-44,-20,17
463,-3789,-3,188,-4620,23,-44,-20,17
464,-3788,-2,188,-4621,23,-44,-20,17
465,-3788,-1,189,-4619,23,-44,-20,17
466,-3789,-3,188,-4620,23,-44,-20,17
467,-3790,-2,187,-4620,23,-44,-20,17
468,-3792,-4,190,-4621,23,-44,-20,17
469,-3791,-4,188,-4621,23,-45,-20,17
470,-3790,-5,186,-4621,23,-44,-20,17
471,-3789,-5,182,-4620,23,-44,-20,17
472,-3789,-4,182,-4620,23,-44,-19,17
473,-3790,-4,185,-4619,23,-44,-20,17
474,-3789,-4,188,-4619,23,-44,-20,17
475,-3789,-2,187,-4620,23,-44,-20,17
476,-3788,-3,188,-4618,23,-44,-19,17
477,-3788,-5,187,-4617,23,-44,-19,17
478,-3790,-4,185,-4617,23,-44,-19,17
479,-3791,-6,183,-4617,23,-44,-19,17
480,-3792,-6,186,-4619,23,-44,-20,17
481,-3792,-6,188,-4619,23,-44,-19,17
482,-3792,-4,188,-4618,23,-44,-19,17
483,-3791,-5,186,-4618,23,-44,-19,17
484,-3790,-4,186,-4617,23,-44,-19,17
485,-3788,-4,187,-4617,23,-44,-19,17
486,-3788,-3,187,-4616,23,-44,-19,17
487,-3789,-5,189,-4617,23,-44,-20,17
488,-3789,-5,190,-4616,23,-44,-20,17
489,-3788,-4,190,-4615,23,-44,-20,17
490,-3790,-5,190,-4616,23,-44,-20,17
491,-3788,-1,193,-4616,23,-44,-20,17
492,-3789,-3,194,-4616,23,-44,-19,17
493,-3788,-3,197,-4616,23,-44,-20,17
494,-3789,-6,198,-4616,23,-44,-20,17
495,-3788,-6,193,-4616,23,-44,-19,17
496,-3789,-5,195,-4616,23,-44,-19,17
497,-3788,-4,198,-4614,23,-44,-19,17
498,-3790,-5,196,-4614,23,-44,-19,17
499,-3790,-5,192,-4615,23,-44,-19,17
500,-3789,-6,197,-4614,23,-44,-19,17
501,-3788,-7,195,-4613,23,-44,-19,17
502,-3787,-6,193,-4614,23,-44,-19,17
503,-3786,-4,192,-4615,23,-44,-19,17
504,-3787,-3,190,-4615,23,-44,-19,17
505,-3789,-4,193,-4615,23,-44,-20,17
506,-3788,-5,191,-4616,23,-44,-20,17
507,-3787,-5,185,-4615,23,-44,-20,17
508,-3788,-4,186,-4614,23,-44,-20,17
509,-3789,-4,183,-4615,23,-44,-20,17
510,-3788,-2,186,-4615,23,-44,-20,17
511,-3788,0,186,-4616,23,-44,-20,17
512,-3791,-1,186,-4617,23,-44,-20,17
513,-3791,0,186,-4618,23,-44,-20,17
514,-3791,-1,186,-4618,23,-44,-19,17
515,-3790,-1,186,-4618,23,-44,-19,17
516,-3790,0,190,-4619,23,-44,-19,17
517,-3790,0,189,-4618,23,-44,-19,17
518,-3792,-1,192,-4617,23,-44,-20,17
519,-3790,-3,188,-4617,23,-44,-19,17
520,-3789,-3,192,-4616,23,-44,-19,17
521,-3786,-1,192,-4617,23,-44,-19,17
522,-3786,0,194,-4618,23,-44,-19,17
523,-3788,-2,194,-4617,23,-44,-19,17
524,-3788,-3,194,-4617,23,-44,-19,17
525,-3788,-3,194,-4617,23,-44,-20,17
526,-3787,-3,189,-4615,23,-44,-20,17
527,-3787,-5,188,-4614,23,-44,-20,17
528,-3789,-4,186,-4614,23,-44,-19,17
529,-3788,-6,185,-4615,23,-44,-20,17
530,-3787,-5,186,-4616,23,-44,-19,17
531,-3785,-8,184,-4616,23,-44,-19,17
532,-3785,-4,183,-4616,23,-44,-19,17
533,-3785,-6,185,-4616,23,-44,-19,17
534,-3788,-6,186,-4616,23,-44,-19,17
535,-3788,-8,188,-4614,23,-44,-19,17
536,-3789,-5,188,-4616,23,-44,-19,17
537,-3789,-4,190,-4616,23,-44,-19,17
538,-3788,-1,189,-4615,23,-44,-19,17
539,-3790,-1,188,-4615,23,-44,-20,17
540,-3793,-4,189,-4615,23,-44,-20,17
541,-3793,-1,193,-4617,23,-44,-20,17
542,-3791,-3,189,-4618,23,-44,-19,17
543,-3790,0,186,-4618,23,-44,-20,17
544,-3791,0,183,-4620,23,-44,-19,17
545,-3791,0,182,-4619,23,-44,-19,17
546,-3795,-1,184,-4622,23,-44,-19,17
547,-3794,-3,183,-4622,23,-44,-19,17
548,-3795,-3,186,-4622,23,-44,-19,17
549,-3794,-3,188,-4620,23,-44,-20,17
550,-3791,-2,192,-4620,23,-44,-20,17
551,-3790,-2,191,-4621,23,-44,-20,17
552,-3790,-2,191,-4620,23,-44,-19,17
553,-3788,-1,193,-4618,23,-44,-19,17
554,-3790,-2,192,-4617,23,-43,-19,17
555,-3791,-1,186,-4617,23,-44,-19,17
556,-3790,-2,187,-4617,23,-44,-19,17
557,-3791,-3,191,-4617,23,-44,-19,17
558,-3793,-2,191,-4617,23,-44,-19,17
559,-3793,0,193,-4617,23,-44,-19,17
560,-3791,-1,196,-4616,23,-44,-19,17
561,-3789,-4,195,-4616,23,-44,-19,17
562,-3787,-5,193,-4616,23,-44,-19,17
563,-3790,-4,192,-4617,23,-44,-19,17
564,-3788,-5,196,-4616,23,-44,-19,17
565,-3786,-4,192,-4619,23,-44,-19,17
566,-3785,-5,193,-4619,23,-44,-20,17
567,-3788,-5,192,-4618,23,-44,-19,17
568,-3785,-5,195,-4618,23,-44,-20,17
569,-3785,-5,196,-4617,23,-44,-20,17
570,-3786,-3,197,-4617,23,-44,-20,17
571,-3787,-2,194,-4616,23,-44,-20,17
572,-3787,0,194,-4616,23,-44,-20,17
573,-3787,0,197,-4614,23,-44,-20,17
574,-3787,2,195,-4616,23,-44,-20,17
575,-3789,1,191,-4617,23,-44,-20,17
576,-3787,-2,193,-4616,23,-44,-19,18
577,-3790,-1,190,-4616,23,-44,-20,17
578,-3790,-1,192,-4616,23,-43,-19,17
579,-3790,-2,191,-4617,23,-44,-19,17
580,-3791,-2,189,-4617,23,-44,-19,17
581,-3791,-4,190,-4615,23,-44,-19,17
582,-3789,-3,190,-4614,23,-44,-20,17
583,-3789,-3,193,-4614,23,-44,-20,17
584,-3789,-3,193,-4615,23,-44,-20,17
585,-3787,0,195,-4615,23,-44,-20,17
586,-3787,1,194,-4614,23,-44,-20,17
587,-3787,-1,192,-4615,23,-44,-20,17
588,-3787,-1,190,-4616,23,-44,-20,17
589,-3787,0,189,-4617,23,-44,-20,17
590,-3787,-1,189,-4617,23,-44,-19,17
591,-3789,-4,191,-4617,23,-44,-20,17
592,-3788,-6,188,-4617,23,-44,-19,17
593,-3789,-6,193,-4616,23,-44,-19,17
594,-3789,-5,192,-4616,23,-44,-19,17
595,-3790,-4,188,-4614,23,-44,-19,17
596,-3789,-7,189,-4615,23,-44,-19,17
597,-3789,-6,186,-4615,23,-44,-19,17
598,-3791,-5,185,-4614,23,-44,-19,17
599,-3792,-6,185,-4615,23,-44,-19,17
600,-3793,-3,181,-4615,23,-44,-19,17
601,-3794,-2,187,-4615,23,-44,-19,17
602,-3793,-2,187,-4613,23,-44,-19,17
603,-3794,-4,187,-4613,23,-44,-19,17
604,-3794,-4,189,-4613,23,-44,-19,17
605,-3794,-2,187,-4613,23,-44,-19,17
606,-3792,-3,184,-4614,23,-44,-20,17
607,-3793,-2,185,-4612,23,-44,-20,17
608,-3792,-3,183,-4612,23,-44,-20,17
609,-3790,-4,185,-4615,23,-44,-20,17
610,-3790,-6,182,-4616,23,-44,-19,17
611,-3789,-3,187,-4614,23,-44,-20,17
612,-3791,-3,184,-4615,23,-44,-20,17
613,-3791,-3,185,-4614,23,-44,-20,17
614,-3790,-1,185,-4616,23,-44,-20,17
615,-3790,-1,183,-4616,23,-44,-20,17
616,-3790,-1,181,-4615,23,-44,-20,17
617,-3790,2,182,-4616,23,-44,-19,17
618,-3790,0,182,-4615,23,-44,-20,18
619,-3789,1,183,-4615,23,-44,-19,17
620,-3789,2,184,-4615,23,-44,-19,17
621,-3789,2,181,-4614,23,-44,-19,17
622,-3792,1,184,-4614,23,-44,-19,17
623,-3790,0,188,-4614,23,-44,-19,17
624,-3788,-1,190,-4613,23,-44,-20,17
625,-3789,-2,193,-4612,23,-44,-20,17
626,-3787,-1,191,-4613,23,-44,-20,17
627,-3788,-2,188,-4614,23,-44,-19,17
628,-3788,-1,192,-4614,23,-44,-19,17
629,-3792,-3,194,-4611,23,-44,-19,17
630,-3791,-2,192,-4611,23,-44,-19,17
631,-3794,-4,192,-4612,23,-44,-20,17
632,-3793,-3,192,-4613,23,-44,-20,17
633,-3790,-3,193,-4614,23,-44,-20,17
634,-3790,-5,191,-4613,23,-44,-20,18
635,-3792,-7,191,-4613,23,-44,-20,18
636,-3792,-4,192,-4611,23,-44,-20,18
637,-3791,-6,189,-4612,23,-44,-20,18
638,-3790,-7,188,-4612,23,-44,-20,18
639,-3789,-4,188,-4614,23,-44,-20,17
640,-3789,0,187,-4614,23,-44,-20,17
641,-3789,0,186,-4616,23,-44,-20,17
642,-3789,-1,187,-4615,23,-44,-20,17
643,-3789,-1,189,-4616,23,-44,-20,17
644,-3788,0,186,-4616,23,-44,-19,17
645,-3789,-1,188,-4617,23,-44,-20,17
646,-3791,1,185,-4616,23,-44,-20,17
647,-3791,-1,184,-4616,23,-44,-20,18
648,-3790,-1,187,-4614,23,-44,-20,18
649,-3791,-3,188,-4613,23,-44,-20,17
650,-3792,-2,186,-4614,23,-44,-20,17
651,-3791,-2,185,-4611,23,-45,-20,18
652,-3791,-2,191,-4611,23,-44,-20,18
653,-3793,-3,185,-4613,23,-44,-19,18
654,-3790,1,188,-4612,23,-44,-20,18
655,-3787,1,184,-4612,23,-44,-19,18
656,-3787,1,184,-4613,23,-44,-19,17
657,-3786,-2,183,-4615,23,-44,-19,17
658,-3787,-3,187,-4614,23,-44,-19,17
659,-3787,-1,186,-4615,23,-44,-19,17
660,-3786,-4,184,-4615,23,-44,-19,17
661,-3789,-3,185,-4615,23,-44,-19,17
662,-3789,-2,185,-4616,23,-44,-19,17
663,-3787,-1,182,-4614,23,-44,-19,17
664,-3784,-2,183,-4613,23,-44,-20,17
665,-3785,-4,184,-4614,23,-44,-19,17
666,-3787,-4,185,-4610,23,-44,-19,17
667,-3788,-5,186,-4610,23,-44,-19,17
668,-3790,-2,186,-4610,23,-44,-20,17
669,-3792,-2,187,-4611,23,-44,-20,17
670,-3792,-2,188,-4612,23,-44,-20,17
671,-3791,-2,189,-4611,23,-44,-20,17
672,-3791,-4,188,-4612,23,-44,-20,17
673,-3791,-4,187,-4611,23,-44,-20,17
674,-3792,-4,187,-4613,23,-44,-20,17
675,-3791,-5,189,-4612,23,-44,-20,17
676,-3789,-5,186,-4612,23,-44,-20,17
677,-3790,-3,189,-4612,23,-44,-20,17
678,-3790,-2,186,-4609,23,-44,-19,17
679,-3790,-1,185,-4610,23,-44,-19,17
680,-3789,-2,186,-4612,23,-44,-19,17
681,-3788,-4,184,-4613,23,-44,-19,17
682,-3790,-2,184,-4613,23,-44,-19,17
683,-3791,0,185,-4613,23,-44,-19,17
684,-3791,1,188,-4613,23,-44,-19,17
685,-3791,0,188,-4614,23,-44,-20,17
686,-3793,-3,188,-4613,23,-44,-20,17
687,-3791,-3,186,-4614,23,-44,-19,17
688,-3791,-2,190,-4615,23,-44,-19,17
689,-3791,-1,191,-4615,23,-44,-20,17
690,-3790,-2,192,-4615,23,-44,-20,17
691,-3789,-3,195,-4614,23,-44,-20,17
692,-3791,-3,194,-4614,23,-44,-20,17
693,-3788,-2,193,-4613,23,-44,-20,17
694,-3789,-1,193,-4614,23,-44,-20,17
695,-3790,-2,191,-4614,23,-44,-20,17
696,-3788,-3,188,-4615,23,-44,-20,17
697,-3787,-3,187,-4615,23,-44,-20,17
698,-3787,-3,185,-4615,23,-43,-19,17
699,-3788,-1,186,-4612,23,-44,-19,17
700,-3785,-2,188,-4613,23,-44,-20,17
701,-3787,-3,183,-4616,23,-43,-19,17
702,-3789,-2,182,-4617,23,-43,-19,17
703,-3787,1,184,-4616,23,-44,-19,17
704,-3788,1,184,-4614,23,-44,-19,17
705,-3789,-1,183,-4614,23,-44,-19,17
706,-3787,-1,185,-4615,23,-44,-19,17
707,-3786,-2,186,-4614,23,-44,-20,17
708,-3787,-1,185,-4613,23,-44,-19,17
709,-3787,-3,189,-4613,23,-44,-20,17
710,-3785,-1,188,-4613,23,-44,-20,17
711,-3785,0,189,-4612,23,-44,-19,17
712,-3784,1,187,-4612,23,-44,-20,17
713,-3786,0,186,-4612,23,-44,-20,17
714,-3785,0,185,-4611,23,-44,-20,17
715,-3783,0,188,-4612,23,-44,-19,17
716,-3785,-1,189,-4614,23,-44,-19,17
717,-3789,-2,189,-4613,23,-44,-19,17
718,-3790,0,189,-4614,23,-44,-19,17
719,-3791,1,191,-4612,23,-44,-19,17
720,-3790,0,190,-4614,23,-44,-19,17
721,-3788,-2,193,-4613,23,-44,-20,17
722,-3788,-2,194,-4615,23,-44,-20,17
723,-3790,-2,195,-4613,23,-44,-20,17
724,-3789,-1,193,-4614,23,-44,-20,17
725,-3792,-1,193,-4614,23,-44,-20,17
726,-3790,-3,193,-4614,23,-44,-20,17
727,-3790,-3,195,-4613,23,-44,-20,17
728,-3791,-2,192,-4613,23,-44,-20,17
729,-3791,-4,188,-4613,23,-44,-20,17
730,-3791,-5,185,-4613,23,-44,-19,17
731,-3788,-5,182,-4613,23,-44,-19,17
732,-3790,-4,182,-4616,23,-44,-19,17
733,-3793,-3,188,-4615,23,-44,-19,17
734,-3792,-5,187,-4616,23,-44,-19,17
735,-3790,-4,188,-4614,23,-44,-19,17
736,-3790,-4,188,-4613,23,-44,-20,17
737,-3791,-3,186,-4614,23,-44,-20,17
738,-3791,-2,190,-4614,23,-44,-20,17
739,-3790,-4,193,-4612,23,-44,-20,17
740,-3789,-6,194,-4613,23,-45,-19,17
741,-3790,-5,193,-4616,23,-45,-19,17
742,-3789,-5,192,-4615,23,-45,-19,17
743,-3790,-7,194,-4615,23,-45,-19,17
744,-3789,-6,195,-4614,23,-45,-19,17
745,-3789,-7,193,-4614,23,-44,-19,17
746,-3790,-8,190,-4614,23,-44,-19,17
747,-3791,-6,189,-4615,23,-44,-19,17
748,-3789,-3,192,-4614,23,-44,-19,17
749,-3790,-3,194,-4614,23,-44,-19,17
750,-3791,-4,192,-4613,23,-44,-19,17
751,-3790,-6,188,-4612,23,-44,-19,17
752,-3791,-3,188,-4611,23,-44,-19,17
753,-3788,-3,187,-4611,23,-44,-19,17
754,-3788,-2,189,-4612,23,-44,-19,17
755,-3790,-1,189,-4612,23,-44,-19,17
756,-3790,-3,188,-4612,23,-44,-19,17
757,-3790,-6,189,-4613,23,-44,-20,17
758,-3788,-6,189,-4613,23,-44,-20,17
759,-3789,-5,185,-4615,23,-44,-20,17
760,-3787,-2,185,-4615,23,-44,-19,17
761,-3786,-2,187,-4613,23,-44,-19,17
762,-3788,-2,191,-4612,23,-44,-19,17
763,-3790,-1,196,-4612,23,-44,-19,17
764,-3789,-4,193,-4613,23,-44,-19,17
765,-3788,-4,192,-4614,23,-44,-19,17
766,-3789,-2,191,-4615,23,-44,-19,17
767,-3790,-2,189,-4613,23,-44,-19,17
768,-3789,-4,189,-4614,23,-44,-20,17
769,-3788,-5,189,-4614,23,-45,-20,17
770,-3789,-3,192,-4613,23,-45,-20,17
771,-3788,-2,191,-4612,23,-44,-20,17
772,-3789,-2,186,-4611,23,-45,-20,17
773,-3788,-2,184,-4612,23,-45,-20,17
774,-3787,-4,184,-4613,23,-44,-20,17
775,-3788,-3,184,-4612,23,-45,-20,17
776,-3789,-1,185,-4614,23,-44,-20,17
777,-3791,-1,189,-4614,23,-44,-19,17
778,-3789,-3,189,-4613,23,-44,-19,17
779,-3789,-1,188,-4614,23,-44,-19,17
780,-3790,-1,193,-4614,23,-44,-19,17
781,-3790,-2,189,-4611,23,-44,-19,17
782,-3788,-5,187,-4611,23,-44,-20,17
783,-3790,-4,187,-4611,23,-44,-19,17
784,-3789,-2,190,-4611,23,-44,-20,17
785,-3790,-2,191,-4611,23,-44,-20,17
786,-3789,-2,188,-4610,23,-44,-20,17
787,-3791,-3,187,-4611,23,-44,-20,17
788,-3792,-3,186,-4613,23,-44,-20,17
789,-3794,-3,186,-4612,23,-44,-20,17
790,-3794,-3,190,-4612,23,-44,-19,17
791,-3793,-4,190,-4612,23,-44,-19,17
792,-3795,-2,189,-4612,23,-44,-19,17
793,-3796,-2,189,-4612,23,-44,-19,17
794,-3798,-3,188,-4611,23,-44,-19,17
795,-3796,-2,191,-4611,23,-44,-20,17
796,-3794,-4,188,-4612,23,-44,-20,17
797,-3790,-2,185,-4611,23,-44,-20,17
798,-3792,-1,189,-4610,23,-44,-20,17
799,-3790,1,190,-4610,23,-44,-20,17
800,-3791,-1,186,-4608,23,-44,-19,17
801,-3793,2,189,-4610,23,-44,-20,17
802,-3794,2,185,-4610,23,-44,-20,17
803,-3791,1,186,-4610,23,-44,-20,17
804,-3789,0,187,-4609,23,-45,-20,17
805,-3792,-3,188,-4608,23,-44,-20,17
806,-3790,-3,188,-4608,23,-44,-20,17
807,-3788,-3,188,-4609,23,-44,-20,17
808,-3785,-1,189,-4608,23,-44,-19,17
809,-3784,1,186,-4609,23,-44,-20,17
810,-3784,-1,184,-4611,23,-44,-20,17
811,-3785,-2,184,-4612,23,-44,-20,17
812,-3789,-1,186,-4612,23,-44,-19,17
813,-3788,-1,188,-4615,23,-44,-19,17
814,-3784,-1,188,-4615,23,-44,-19,17
815,-3786,-2,189,-4611,23,-44,-19,17
816,-3787,-3,190,-4613,23,-44,-19,17
817,-3789,-3,188,-4614,23,-44,-20,17
818,-3790,-2,187,-4614,23,-44,-19,17
819,-3789,-1,188,-4616,23,-44,-19,17
820,-3790,-2,189,-4613,23,-44,-20,17
821,-3789,-2,190,-4613,23,-44,-20,17
822,-3788,-5,188,-4614,23,-44,-20,17
823,-3789,-3,187,-4613,23,-44,-20,17
824,-3790,-3,188,-4613,23,-44,-20,17
825,-3791,-2,188,-4613,23,-44,-20,17
826,-3790,-2,191,-4614,23,-44,-20,17
827,-3791,-2,190,-4613,23,-44,-19,17
828,-3788,-3,187,-4615,23,-44,-19,17
829,-3788,-3,190,-4614,23,-44,-19,17
830,-3791,-5,193,-4614,23,-44,-20,17
831,-3791,-4,195,-4612,23,-44,-19,18
832,-3794,-4,193,-4613,23,-44,-19,18
833,-3794,-5,195,-4611,23,-44,-20,17
834,-3794,-3,192,-4609,23,-44,-20,17
835,-3795,-4,192,-4610,23,-44,-20,17
836,-3792,-2,191,-4610,23,-44,-20,17
837,-3792,-2,187,-4612,23,-44,-20,17
838,-3791,-1,186,-4611,23,-44,-20,17
839,-3790,0,183,-4611,23,-44,-20,17
840,-3789,-1,183,-4611,23,-44,-20,17
841,-3789,-1,184,-4611,23,-44,-20,17
842,-3789,-1,186,-4612,23,-44,-20,17
843,-3791,-2,186,-4614,23,-44,-20,17
844,-3790,-1,185,-4615,23,-44,-20,17
845,-3789,-1,187,-4614,23,-44,-20,17
846,-3789,0,186,-4614,23,-44,-20,17
847,-3790,-1,183,-4614,23,-44,-20,17
848,-3790,-1,183,-4612,23,-43,-20,17
849,-3790,-2,181,-4611,23,-44,-20,17
850,-3790,-2,184,-4609,23,-44,-20,16
851,-3790,-4,185,-4612,23,-44,-20,17
852,-3793,1,186,-4613,23,-44,-20,17
853,-3792,0,187,-4612,23,-44,-20,17
854,-3790,-2,188,-4613,23,-44,-20,17
855,-3791,-4,189,-4612,23,-44,-19,17
856,-3792,-4,189,-4612,23,-44,-20,17
857,-3791,-2,190,-4612,23,-44,-19,17
858,-3790,-4,189,-4613,23,-44,-19,17
859,-3790,-3,191,-4614,23,-44,-19,17
860,-3790,-4,191,-4612,23,-44,-19,17
861,-3791,-4,188,-4609,23,-44,-19,17
862,-3791,-5,187,-4609,23,-44,-19,17
863,-3791,-4,189,-4610,23,-44,-19,17
864,-3791,-4,189,-4610,23,-44,-19,17
865,-3793,-2,189,-4611,23,-44,-20,17
866,-3793,-5,191,-4612,23,-44,-20,17
867,-3791,-4,187,-4613,23,-44,-19,17
868,-3789,-3,187,-4612,23,-44,-19,17
869,-3790,-3,189,-4612,23,-44,-19,17
870,-3789,-3,191,-4612,23,-44,-19,17
871,-3790,-5,186,-4611,23,-44,-19,17
872,-3789,-5,187,-4612,23,-44,-19,17
873,-3789,-7,190,-4612,23,-44,-19,17
874,-3787,-6,192,-4610,23,-44,-19,17
875,-3786,-6,192,-4609,23,-44,-19,17
876,-3788,-7,190,-4610,23,-44,-19,17
877,-3789,-8,191,-4609,23,-44,-19,17
878,-3788,-5,191,-4611,23,-44,-20,17
879,-3788,-4,190,-4611,23,-44,-19,17
880,-3789,-2,190,-4611,23,-44,-20,17
881,-3788,-1,187,-4609,23,-44,-19,17
882,-3786,0,189,-4610,23,-44,-19,17
883,-3788,0,186,-4611,23,-44,-19,17
884,-3786,-2,187,-4613,23,-44,-19,17
885,-3786,-2,187,-4614,23,-44,-20,17
886,-3786,-2,189,-4615,23,-44,-19,17
887,-3788,-1,187,-4613,23,-44,-19,17
888,-3787,-1,185,-4613,23,-44,-19,17
889,-3788,-1,188,-4612,23,-44,-19,17
890,-3788,-1,192,-4612,23,-44,-19,17
891,-3788,-5,192,-4612,23,-44,-19,17
892,-3789,-4,191,-4611,23,-44,-20,17
893,-3790,-4,191,-4612,23,-44,-19,17
894,-3792,-6,191,-4611,23,-44,-19,17
895,-3789,-4,189,-4613,23,-44,-19,17
896,-3790,-5,185,-4613,23,-44,-19,17
897,-3792,-6,186,-4614,23,-44,-19,17
898,-3792,-6,184,-4612,23,-44,-19,17
899,-3791,-6,183,-4613,23,-44,-19,17
900,-3792,-5,184,-4613,23,-44,-19,17
901,-3791,-3,187,-4614,23,-44,-19,17
902,-3792,-2,186,-4614,23,-44,-20,17
903,-3793,-1,188,-4612,23,-44,-19,17
904,-3792,-2,190,-4613,23,-44,-19,17
905,-3788,0,189,-4614,23,-44,-20,17
906,-3790,1,187,-4614,23,-44,-19,17
907,-3789,1,187,-4615,23,-44,-20,17
908,-3789,-2,186,-4612,23,-44,-20,17
909,-3788,1,189,-4612,23,-44,-20,17
910,-3788,-1,189,-4612,23,-44,-20,17
911,-3790,-3,188,-4612,23,-44,-20,17
912,-3788,-4,185,-4612,23,-44,-20,17
913,-3790,-4,187,-4611,23,-44,-20,17
914,-3789,-4,185,-4609,23,-44,-20,17
915,-3789,-3,189,-4609,23,-44,-19,17
916,-3790,-5,189,-4610,23,-44,-20,17
917,-3789,-4,189,-4610,23,-44,-20,17
918,-3789,-4,186,-4610,23,-44,-20,17
919,-3787,-4,189,-4613,23,-44,-20,17
920,-3788,-4,190,-4614,23,-44,-20,17
921,-3789,-2,189,-4612,23,-44,-20,17
922,-3788,-4,191,-4612,23,-44,-20,17
923,-3789,-4,191,-4612,23,-44,-20,17
924,-3788,-5,190,-4613,23,-44,-20,17
925,-3789,-4,192,-4613,23,-44,-20,17
926,-3788,-5,189,-4613,23,-44,-19,17
927,-3791,-3,190,-4611,23,-44,-19,17
928,-3790,-1,191,-4612,23,-44,-19,17
929,-3787,-3,192,-4608,23,-44,-19,17
930,-3788,-2,188,-4610,23,-44,-20,17
931,-3787,-1,188,-4609,23,-44,-20,17
932,-3789,3,189,-4611,23,-44,-20,17
933,-3788,1,187,-4610,23,-44,-20,17
934,-3786,1,187,-4610,23,-44,-20,17
935,-3785,1,184,-4610,23,-44,-20,17
936,-3786,-1,186,-4612,23,-44,-19,17
937,-3786,-2,184,-4612,23,-44,-20,17
938,-3787,-4,184,-4611,23,-44,-20,17
939,-3788,-3,184,-4610,23,-44,-20,17
940,-3788,-2,189,-4611,23,-44,-19,17
941,-3788,-5,188,-4610,23,-44,-20,17
942,-3788,-4,189,-4610,23,-44,-20,17
943,-3790,-5,186,-4609,23,-44,-20,17
944,-3791,-5,185,-4609,23,-44,-20,17
945,-3790,-6,184,-4609,23,-44,-20,17
946,-3791,-6,186,-4608,23,-44,-20,17
947,-3791,-4,189,-4607,23,-44,-19,17
948,-3790,-5,190,-4609,23,-44,-19,17
949,-3791,-4,191,-4607,23,-44,-20,17
950,-3790,-3,192,-4606,23,-44,-19,17
951,-3789,-2,192,-4609,23,-44,-19,17
952,-3790,-1,194,-4610,23,-44,-20,17
953,-3790,-2,194,-4610,23,-44,-19,17
954,-3790,-1,189,-4609,23,-44,-19,17
955,-3791,0,189,-4607,23,-44,-20,17
956,-3789,-1,188,-4606,23,-44,-20,18
957,-3790,0,191,-4608,23,-44,-20,18
958,-3791,-1,186,-4609,23,-44,-19,18
959,-3791,-2,186,-4608,23,-44,-19,17
960,-3791,-2,184,-4607,23,-44,-19,17
961,-3793,-1,185,-4605,23,-44,-19,17
962,-3789,-2,184,-4605,23,-44,-19,17
963,-3789,-1,187,-4605,23,-44,-19,17
964,-3789,-3,187,-4607,23,-44,-19,17
965,-3790,-5,185,-4608,23,-44,-19,17
966,-3791,-1,191,-4607,23,-44,-19,17
967,-3790,-2,189,-4608,23,-44,-19,17
968,-3788,-3,188,-4609,23,-44,-19,17
969,-3787,-5,189,-4608,23,-44,-19,17
970,-3787,-3,190,-4607,23,-44,-19,17
971,-3787,-4,194,-4607,23,-44,-19,17
972,-3789,-3,194,-4605,23,-44,-19,17
973,-3790,-4,194,-4603,23,-44,-20,16
974,-3790,-1,198,-4604,23,-44,-20,17
975,-3792,-1,191,-4605,23,-44,-20,17
976,-3790,-3,191,-4604,23,-44,-20,17
977,-3788,-4,193,-4606,23,-44,-20,17
978,-3789,-5,192,-4605,23,-44,-20,17
979,-3791,-5,195,-4603,23,-44,-20,17
980,-3789,-4,190,-4604,23,-44,-20,17
981,-3790,-3,189,-4604,23,-44,-20,17
982,-3789,-5,188,-4606,23,-44,-20,17
983,-3789,-5,189,-4605,23,-44,-20,17
984,-3789,-2,188,-4606,23,-44,-20,17
985,-3787,-2,190,-4608,23,-44,-20,17
986,-3789,-2,181,-4608,23,-44,-20,17
987,-3788,-1,184,-4609,23,-44,-20,17
988,-3789,1,185,-4611,23,-44,-20,17
989,-3789,-1,184,-4608,23,-44,-20,17
990,-3789,-1,181,-4610,23,-44,-20,17
991,-3790,0,181,-4610,23,-44,-20,17
992,-3790,1,186,-4610,23,-44,-20,17
993,-3791,0,189,-4611,23,-44,-20,17
994,-3791,-1,188,-4611,23,-44,-19,17
995,-3789,1,187,-4613,23,-44,-20,17
996,-3791,3,190,-4612,23,-44,-19,17
997,-3791,3,188,-4611,23,-44,-19,17
998,-3790,2,190,-4610,23,-44,-19,17
