,acc_X,acc_Y,acc_Z,temp,tempC,gyr_X,gyr_Y,gyr_Z
0,-3790,-3,165,-4732,23,-86,-41,35
1,-3779,-9,202,-4721,23,-88,-41,36
2,-3791,3,206,-4746,23,-90,-38,33
3,-3797,-14,197,-4746,23,-89,-44,35
4,-3780,-12,195,-4722,23,-86,-39,34
5,-3768,-7,209,-4747,23,-87,-36,33
6,-3773,6,195,-4724,23,-90,-39,36
7,-3786,20,183,-4743,23,-85,-39,36
8,-3794,5,168,-4739,23,-86,-40,33
9,-3794,-12,202,-4739,23,-88,-39,39
10,-3790,16,177,-4740,23,-88,-43,36
11,-3779,-2,210,-4729,23,-87,-44,38
12,-3794,-36,210,-4742,23,-89,-40,31
13,-3786,11,169,-4727,23,-84,-44,36
14,-3783,-14,171,-4724,23,-87,-40,33
15,-3783,5,173,-4731,23,-86,-42,35
16,-3801,-4,211,-4724,23,-86,-37,36
17,-3795,-25,172,-4749,23,-89,-39,34
18,-3782,-5,188,-4739,23,-89,-39,35
19,-3789,-10,180,-4720,23,-88,-33,32
20,-3795,-3,168,-4734,23,-87,-40,33
21,-3802,-5,218,-4731,23,-81,-36,34
22,-3800,-9,192,-4747,23,-89,-42,37
23,-3793,-10,163,-4742,23,-86,-39,30
24,-3783,14,160,-4740,23,-82,-33,32
25,-3792,-3,203,-4731,23,-87,-40,33
26,-3802,1,196,-4761,22,-91,-38,33
27,-3792,-24,167,-4723,23,-84,-39,36
28,-3804,-17,205,-4746,23,-88,-41,39
29,-3793,11,196,-4724,23,-85,-35,33
30,-3795,-8,179,-4734,23,-86,-38,34
31,-3788,0,211,-4737,23,-87,-39,33
32,-3757,2,185,-4718,23,-90,-39,33
33,-3805,2,192,-4724,23,-89,-37,36
34,-3792,14,190,-4738,23,-86,-41,36
35,-3787,-3,177,-4726,23,-89,-36,32
36,-3780,-22,189,-4740,23,-85,-37,36
37,-3792,-21,157,-4742,23,-84,-34,33
38,-3779,1,198,-4733,23,-91,-33,30
39,-3791,-13,199,-4755,23,-87,-35,35
40,-3788,-10,190,-4733,23,-88,-39,35
41,-3782,13,174,-4743,23,-86,-37,33
42,-3789,-11,187,-4731,23,-88,-38,37
43,-3789,5,203,-4734,23,-89,-38,35
44,-3792,-7,174,-4746,23,-88,-42,31
45,-3789,17,184,-4731,23,-91,-40,31
46,-3785,-12,176,-4729,23,-90,-39,34
47,-3788,-14,159,-4735,23,-88,-35,34
48,-3778,-9,189,-4738,23,-87,-41,37
49,-3785,-12,205,-4730,23,-91,-40,33
50,-3771,-1,185,-4728,23,-88,-42,32
51,-3771,5,170,-4739,23,-88,-36,34
52,-3776,7,186,-4730,23,-87,-40,29
53,-3807,5,166,-4735,23,-85,-39,34
54,-3805,4,198,-4741,23,-88,-45,34
55,-3804,0,186,-4735,23,-85,-42,34
56,-3783,-7,203,-4719,23,-87,-35,35
57,-3806,-5,165,-4726,23,-92,-39,36
58,-3793,-2,190,-4723,23,-92,-39,35
59,-3786,-12,188,-4744,23,-90,-35,31
60,-3773,6,199,-4738,23,-90,-33,35
61,-3800,-8,171,-4745,23,-88,-34,36
62,-3789,-5,178,-4738,23,-83,-38,36
63,-3795,-3,187,-4736,23,-84,-36,35
64,-3786,5,191,-4744,23,-87,-40,30
65,-3764,-12,169,-4739,23,-83,-36,33
66,-3797,9,207,-4727,23,-85,-40,34
67,-3785,-18,187,-4734,23,-87,-41,35
68,-3797,-9,185,-4735,23,-91,-39,37
69,-3782,-11,182,-4736,23,-89,-39,32
70,-3785,-8,197,-4750,23,-88,-39,34
71,-3782,-26,195,-4727,23,-88,-40,34
72,-3791,-7,176,-4741,23,-89,-41,32
73,-3797,-9,192,-4734,23,-84,-42,36
74,-3785,2,184,-4742,23,-81,-35,36
75,-3804,0,168,-4732,23,-88,-41,34
76,-3795,-1,188,-4729,23,-85,-40,35
77,-3793,-24,162,-4732,23,-91,-42,34
78,-3794,1,178,-4734,23,-87,-42,35
79,-3792,-24,194,-4737,23,-88,-42,34
80,-3794,-14,177,-4736,23,-90,-39,36
81,-3780,4,201,-4726,23,-84,-40,35
82,-3789,12,182,-4727,23,-90,-43,33
83,-3788,-5,190,-4730,23,-86,-37,34
84,-3794,6,198,-4745,23,-90,-40,31
85,-3800,-26,190,-4731,23,-87,-35,32
86,-3788,33,170,-4730,23,-90,-38,33
87,-3793,-1,174,-4738,23,-86,-35,31
88,-3806,-5,180,-4743,23,-92,-40,38
89,-3804,4,166,-4738,23,-88,-37,28
90,-3788,2,192,-4729,23,-83,-39,33
91,-3788,-28,176,-4733,23,-84,-37,35
92,-3795,-2,193,-4739,23,-89,-40,36
93,-3795,7,180,-4741,23,-89,-40,31
94,-3796,-25,181,-4737,23,-82,-36,35
95,-3785,-17,179,-4738,23,-87,-39,42
96,-3800,-1,218,-4725,23,-86,-36,36
97,-3794,0,184,-4730,23,-85,-40,34
98,-3803,-12,197,-4733,23,-84,-36,38
99,-3793,8,170,-4741,23,-90,-40,32
100,-3797,-8,162,-4739,23,-87,-45,34
101,-3803,0,200,-4724,23,-88,-39,36
102,-3779,-12,188,-4726,23,-85,-42,34
103,-3801,-8,157,-4741,23,-87,-35,31
104,-3781,1,202,-4731,23,-87,-37,36
105,-3810,5,190,-4729,23,-89,-39,36
106,-3794,-7,163,-4727,23,-86,-40,35
107,-3777,-3,193,-4738,23,-85,-36,37
108,-3796,3,178,-4746,23,-88,-35,34
109,-3772,-7,203,-4738,23,-89,-41,37
110,-3785,-8,213,-4745,23,-88,-40,37
111,-3787,-2,183,-4740,23,-87,-38,30
112,-3785,12,191,-4736,23,-89,-36,37
113,-3783,-2,172,-4720,23,-88,-40,37
114,-3798,1,193,-4738,23,-86,-37,36
115,-3773,-11,210,-4728,23,-84,-37,34
116,-3774,-7,180,-4730,23,-83,-40,35
117,-3808,0,189,-4723,23,-85,-41,34
118,-3794,-18,161,-4736,23,-85,-39,34
119,-3766,-6,195,-4737,23,-93,-44,33
120,-3778,3,149,-4724,23,-87,-37,35
121,-3800,12,175,-4735,23,-83,-35,32
122,-3783,-4,208,-4736,23,-83,-37,34
123,-3778,1,190,-4742,23,-89,-41,32
124,-3765,-3,190,-4731,23,-89,-34,32
125,-3780,-17,161,-4728,23,-82,-38,33
126,-3788,-17,183,-4733,23,-90,-38,37
127,-3770,-4,161,-4732,23,-85,-36,34
128,-3797,4,201,-4735,23,-88,-39,35
129,-3777,-13,202,-4740,23,-89,-36,35
130,-3793,4,169,-4738,23,-86,-42,37
131,-3805,-27,186,-4731,23,-80,-35,37
132,-3795,-7,198,-4737,23,-91,-43,33
133,-3777,-8,196,-4738,23,-88,-38,35
134,-3781,-26,156,-4738,23,-84,-39,34
135,-3769,-3,199,-4740,23,-83,-41,38
136,-3793,-1,192,-4722,23,-87,-37,35
137,-3774,-15,205,-4743,23,-88,-40,35
138,-3796,-6,199,-4727,23,-89,-39,32
139,-3784,0,172,-4733,23,-88,-38,36
140,-3798,4,193,-4733,23,-90,-38,31
141,-3789,-1,165,-4728,23,-89,-45,36
142,-3780,-2,188,-4731,23,-85,-32,34
143,-3780,-28,198,-4728,23,-87,-38,31
144,-3800,-25,169,-4730,23,-85,-40,32
145,-3786,12,185,-4751,23,-89,-38,32
146,-3789,-11,199,-4731,23,-85,-40,33
147,-3804,-22,156,-4736,23,-88,-39,30
148,-3793,-11,197,-4739,23,-86,-35,32
149,-3785,1,176,-4741,23,-88,-35,35
150,-3797,6,184,-4743,23,-86,-38,34
151,-3805,11,202,-4746,23,-89,-37,35
152,-3790,-1,176,-4732,23,-92,-39,36
153,-3775,-11,177,-4749,23,-88,-35,34
154,-3788,-9,197,-4727,23,-83,-38,34
155,-3803,-16,210,-4743,23,-87,-37,36
156,-3787,23,144,-4716,23,-90,-37,36
157,-3809,7,176,-4725,23,-87,-38,33
158,-3796,-11,195,-4728,23,-87,-43,35
159,-3797,3,190,-4729,23,-83,-42,34
160,-3807,-29,184,-4715,23,-85,-39,38
161,-3774,-5,184,-4745,23,-88,-41,33
162,-3771,5,194,-4729,23,-88,-38,33
163,-3788,4,180,-4729,23,-87,-37,33
164,-3802,-5,167,-4728,23,-90,-37,35
165,-3784,1,195,-4729,23,-88,-38,36
166,-3803,15,195,-4739,23,-89,-38,37
167,-3791,-3,168,-4741,23,-90,-42,35
168,-3785,4,163,-4736,23,-86,-37,36
169,-3816,-9,171,-4735,23,-88,-34,34
170,-3771,-13,205,-4730,23,-84,-40,42
171,-3789,2,198,-4730,23,-86,-42,35
172,-3786,2,193,-4730,23,-88,-40,34
173,-3774,-21,199,-4719,23,-86,-36,36
174,-3797,-4,207,-4726,23,-82,-43,35
175,-3784,11,185,-4744,23,-85,-33,34
176,-3795,-35,209,-4734,23,-86,-38,37
177,-3795,-14,172,-4726,23,-85,-41,35
178,-3770,-21,209,-4732,23,-88,-36,34
179,-3799,-7,188,-4716,23,-89,-35,36
180,-3790,13,191,-4728,23,-86,-43,39
181,-3807,-7,190,-4723,23,-89,-38,37
182,-3783,-25,195,-4737,23,-88,-36,34
183,-3783,-4,172,-4732,23,-86,-35,38
184,-3802,-12,184,-4735,23,-90,-42,34
185,-3797,-1,187,-4729,23,-86,-34,35
186,-3790,-4,182,-4733,23,-89,-36,37
187,-3778,-9,189,-4728,23,-83,-39,35
188,-3773,-13,160,-4724,23,-86,-39,33
189,-3796,5,170,-4726,23,-90,-41,39
190,-3796,-21,165,-4729,23,-87,-38,36
191,-3796,7,192,-4727,23,-87,-39,33
192,-3789,-8,161,-4747,23,-86,-37,36
193,-3800,-8,166,-4733,23,-87,-35,35
194,-3802,1,176,-4732,23,-88,-31,34
195,-3800,-7,183,-4730,23,-87,-37,34
196,-3789,12,202,-4724,23,-88,-41,35
197,-3778,-8,167,-4731,23,-91,-43,33
198,-3779,-11,170,-4730,23,-84,-38,33
199,-3773,-4,178,-4732,23,-87,-41,34
200,-3793,-6,188,-4724,23,-82,-37,36
201,-3783,-6,170,-4727,23,-85,-41,29
202,-3773,10,203,-4732,23,-92,-35,33
203,-3777,-2,169,-4728,23,-89,-41,35
204,-3794,-8,183,-4726,23,-84,-36,32
205,-3798,2,193,-4728,23,-85,-40,32
206,-3797,-6,217,-4733,23,-90,-40,33
207,-3781,-16,217,-4731,23,-88,-37,32
208,-3801,5,199,-4724,23,-87,-35,33
209,-3802,14,176,-4745,23,-87,-40,33
210,-3784,-8,196,-4720,23,-84,-37,31
211,-3789,11,212,-4731,23,-87,-38,36
212,-3815,6,200,-4731,23,-90,-40,31
213,-3786,-29,209,-4728,23,-87,-38,31
214,-3788,3,200,-4725,23,-85,-39,36
215,-3782,17,183,-4731,23,-89,-38,31
216,-3785,-4,170,-4741,23,-90,-39,35
217,-3781,-18,171,-4733,23,-89,-36,34
218,-3779,0,204,-4727,23,-81,-39,39
219,-3803,-6,175,-4742,23,-86,-44,36
220,-3793,5,168,-4743,23,-86,-36,33
221,-3810,2,177,-4731,23,-92,-42,36
222,-3797,9,209,-4734,23,-87,-38,35
223,-3794,17,195,-4753,23,-91,-36,36
224,-3810,-10,217,-4736,23,-85,-40,34
225,-3795,-20,190,-4737,23,-86,-40,35
226,-3799,5,195,-4727,23,-84,-37,38
227,-3786,-6,178,-4732,23,-91,-37,34
228,-3791,-11,199,-4725,23,-88,-38,30
229,-3774,-15,199,-4728,23,-89,-39,34
230,-3776,12,212,-4744,23,-86,-40,36
231,-3803,-9,197,-4733,23,-89,-40,31
232,-3795,-11,218,-4741,23,-88,-40,34
233,-3797,1,155,-4745,23,-86,-36,31
234,-3768,-8,167,-4729,23,-86,-40,32
235,-3787,3,206,-4730,23,-85,-39,35
236,-3784,3,197,-4734,23,-83,-38,39
237,-3771,0,182,-4717,23,-88,-35,33
238,-3764,6,191,-4732,23,-88,-36,37
239,-3792,-9,218,-4734,23,-82,-33,34
240,-3782,-6,163,-4726,23,-87,-41,33
241,-3783,16,207,-4727,23,-86,-37,37
242,-3785,-7,162,-4743,23,-86,-38,34
243,-3781,-16,188,-4740,23,-91,-36,37
244,-3781,-27,195,-4741,23,-86,-36,31
245,-3801,8,187,-4726,23,-85,-41,36
246,-3781,18,178,-4724,23,-90,-41,33
247,-3795,13,189,-4743,23,-91,-42,31
248,-3774,-25,181,-4741,23,-91,-44,34
249,-3789,-2,212,-4740,23,-91,-41,34
250,-3774,-24,214,-4726,23,-86,-40,30
251,-3787,7,186,-4731,23,-88,-40,36
252,-3791,-15,194,-4730,23,-86,-39,33
253,-3795,-6,175,-4731,23,-83,-38,32
254,-3793,0,170,-4734,23,-94,-37,34
255,-3789,-19,209,-4731,23,-87,-46,38
256,-3776,-4,166,-4741,23,-89,-32,34
257,-3794,-14,166,-4730,23,-88,-43,30
258,-3784,-3,204,-4741,23,-86,-39,35
259,-3775,-21,169,-4733,23,-89,-34,29
260,-3802,22,172,-4717,23,-84,-39,34
261,-3794,-19,186,-4736,23,-85,-37,36
262,-3796,-18,194,-4736,23,-92,-44,33
263,-3783,-10,158,-4729,23,-87,-36,36
264,-3780,10,213,-4728,23,-85,-39,34
265,-3798,-8,193,-4733,23,-81,-44,35
266,-3777,-6,159,-4733,23,-91,-34,31
267,-3786,3,193,-4728,23,-91,-35,31
268,-3783,-3,172,-4736,23,-85,-42,33
269,-3769,-4,185,-4723,23,-89,-37,34
270,-3771,-3,190,-4743,23,-85,-38,33
271,-3800,-6,164,-4731,23,-89,-39,32
272,-3777,1,174,-4734,23,-89,-40,33
273,-3797,-29,207,-4729,23,-85,-35,32
274,-3809,11,158,-4739,23,-88,-41,34
275,-3783,-19,183,-4748,23,-90,-37,33
276,-3793,-10,172,-4736,23,-87,-40,37
277,-3789,-20,202,-4728,23,-84,-42,38
278,-3767,0,169,-4723,23,-84,-39,36
279,-3804,14,184,-4740,23,-87,-42,34
280,-3785,-4,193,-4719,23,-84,-44,36
281,-3772,3,212,-4733,23,-83,-36,33
282,-3775,-18,176,-4729,23,-88,-40,33
283,-3780,2,190,-4753,23,-88,-37,37
284,-3791,-5,204,-4726,23,-83,-41,35
285,-3807,7,205,-4734,23,-86,-43,33
286,-3794,0,187,-4729,23,-86,-39,32
287,-3799,-1,176,-4727,23,-89,-40,32
288,-3793,15,191,-4737,23,-87,-38,33
289,-3788,-14,182,-4722,23,-87,-38,35
290,-3799,2,174,-4731,23,-94,-41,31
291,-3789,-7,186,-4722,23,-88,-39,33
292,-3770,4,179,-4740,23,-92,-36,36
293,-3792,-5,193,-4744,23,-87,-37,33
294,-3791,-12,190,-4742,23,-83,-38,36
295,-3783,-7,163,-4721,23,-88,-37,33
296,-3784,15,181,-4730,23,-84,-34,34
297,-3783,-7,184,-4737,23,-90,-41,36
298,-3787,-11,181,-4743,23,-87,-39,36
299,-3771,-7,193,-4732,23,-89,-37,35
300,-3785,1,177,-4729,23,-88,-35,36
301,-3785,-6,205,-4739,23,-86,-41,36
302,-3781,-19,174,-4740,23,-86,-41,31
303,-3789,-17,199,-4741,23,-89,-38,38
304,-3795,-20,159,-4730,23,-86,-42,33
305,-3790,4,167,-4760,22,-91,-39,32
306,-3800,-26,179,-4741,23,-85,-35,41
307,-3794,13,183,-4731,23,-89,-42,37
308,-3788,0,197,-4731,23,-87,-39,38
309,-3789,0,193,-4730,23,-84,-40,32
310,-3785,-15,193,-4719,23,-87,-45,34
311,-3797,6,156,-4731,23,-86,-43,33
312,-3790,19,158,-4742,23,-90,-40,35
313,-3805,-19,203,-4732,23,-85,-40,36
314,-3802,-17,164,-4730,23,-87,-39,33
315,-3768,-16,190,-4721,23,-84,-39,34
316,-3778,-19,201,-4730,23,-87,-41,32
317,-3783,17,181,-4725,23,-86,-40,32
318,-3798,8,192,-4732,23,-88,-40,36
319,-3786,-17,168,-4733,23,-85,-43,35
320,-3788,9,197,-4736,23,-88,-41,36
321,-3800,-3,194,-4734,23,-86,-35,33
322,-3772,-3,185,-4729,23,-86,-37,31
323,-3804,2,183,-4735,23,-84,-43,36
324,-3797,-7,204,-4726,23,-84,-37,35
325,-3796,-2,202,-4731,23,-86,-40,34
326,-3805,8,197,-4730,23,-86,-35,34
327,-3780,-20,176,-4724,23,-89,-38,40
328,-3779,-2,190,-4737,23,-86,-37,34
329,-3787,-6,184,-4729,23,-87,-39,34
330,-3766,-13,212,-4736,23,-84,-38,33
331,-3779,-17,178,-4722,23,-92,-36,30
332,-3785,4,181,-4735,23,-86,-43,34
333,-3778,12,190,-4732,23,-90,-40,35
334,-3785,-12,213,-4732,23,-90,-38,38
335,-3779,-13,164,-4736,23,-88,-38,39
336,-3784,-4,166,-4730,23,-85,-35,36
337,-3764,-12,174,-4735,23,-85,-38,34
338,-3794,-25,187,-4709,23,-88,-42,34
339,-3772,7,194,-4735,23,-85,-38,34
340,-3771,-5,168,-4716,23,-88,-39,34
341,-3783,-12,191,-4740,23,-88,-38,36
342,-3786,-5,177,-4716,23,-85,-40,38
343,-3778,-3,182,-4728,23,-88,-39,34
344,-3782,-2,187,-4739,23,-89,-35,34
345,-3798,-3,167,-4734,23,-84,-37,32
346,-3800,-10,185,-4734,23,-82,-40,39
347,-3800,-20,189,-4720,23,-90,-39,34
348,-3789,-15,164,-4725,23,-89,-39,32
349,-3797,6,177,-4715,23,-87,-30,36
350,-3793,-3,204,-4727,23,-83,-40,38
351,-3804,2,198,-4740,23,-87,-39,34
352,-3798,-6,168,-4726,23,-86,-43,36
353,-3781,20,190,-4743,23,-86,-39,34
354,-3781,-5,168,-4727,23,-84,-41,36
355,-3781,10,177,-4729,23,-85,-40,28
356,-3786,2,198,-4728,23,-90,-39,34
357,-3780,9,167,-4718,23,-83,-42,34
358,-3789,-6,168,-4716,23,-86,-35,40
359,-3795,-12,207,-4733,23,-85,-40,34
360,-3798,10,182,-4724,23,-87,-36,36
361,-3818,1,198,-4726,23,-84,-35,32
362,-3791,19,170,-4730,23,-79,-39,36
363,-3800,4,182,-4733,23,-92,-36,35
364,-3762,0,174,-4736,23,-92,-37,32
365,-3788,-15,184,-4724,23,-86,-38,35
366,-3789,-15,194,-4735,23,-87,-39,34
367,-3785,-4,212,-4727,23,-88,-39,34
368,-3791,-5,179,-4730,23,-89,-41,30
369,-3768,-15,201,-4728,23,-86,-42,31
370,-3797,-18,189,-4716,23,-89,-35,37
371,-3768,-32,194,-4731,23,-88,-43,31
372,-3780,7,190,-4727,23,-87,-38,35
373,-3783,13,203,-4736,23,-82,-40,35
374,-3798,-28,190,-4733,23,-88,-42,36
375,-3800,11,190,-4734,23,-88,-36,37
376,-3810,9,200,-4743,23,-84,-41,33
377,-3781,6,166,-4734,23,-89,-33,35
378,-3799,3,184,-4729,23,-89,-42,37
379,-3795,-13,177,-4737,23,-85,-38,34
380,-3790,-1,189,-4737,23,-88,-34,34
381,-3806,-15,203,-4725,23,-90,-36,35
382,-3810,-4,218,-4722,23,-89,-40,37
383,-3792,-6,177,-4725,23,-94,-42,35
384,-3796,-16,179,-4715,23,-85,-40,36
385,-3809,4,193,-4739,23,-87,-31,35
386,-3791,-7,173,-4734,23,-85,-41,34
387,-3787,-27,174,-4734,23,-85,-38,35
388,-3779,3,205,-4725,23,-86,-39,36
389,-3804,-6,165,-4740,23,-90,-37,38
390,-3775,-4,183,-4733,23,-89,-41,33
391,-3781,-5,157,-4729,23,-87,-37,35
392,-3798,21,208,-4733,23,-87,-38,35
393,-3780,1,168,-4728,23,-89,-38,32
394,-3778,2,185,-4725,23,-93,-37,36
395,-3818,8,158,-4739,23,-89,-42,37
396,-3783,7,195,-4736,23,-89,-39,38
397,-3807,-31,211,-4733,23,-79,-39,36
398,-3784,3,207,-4727,23,-86,-39,38
399,-3802,-8,187,-4729,23,-88,-41,33
400,-3786,-10,221,-4733,23,-87,-40,34
401,-3796,17,170,-4730,23,-84,-44,34
402,-3788,-6,196,-4717,23,-87,-39,36
403,-3802,-5,147,-4724,23,-85,-41,29
404,-3793,-15,190,-4718,23,-89,-43,37
405,-3799,-23,191,-4718,23,-84,-38,38
406,-3786,-11,181,-4737,23,-88,-38,35
407,-3775,2,191,-4722,23,-83,-37,35
408,-3790,-6,185,-4733,23,-88,-37,35
409,-3788,4,182,-4735,23,-90,-35,38
410,-3800,-12,171,-4741,23,-89,-36,34
411,-3771,-15,215,-4737,23,-87,-40,37
412,-3814,-1,167,-4736,23,-89,-43,34
413,-3780,22,221,-4735,23,-88,-40,34
414,-3798,-9,182,-4737,23,-87,-40,37
415,-3808,-16,181,-4729,23,-92,-36,36
416,-3788,-3,195,-4720,23,-79,-36,32
417,-3789,-14,177,-4736,23,-89,-36,29
418,-3802,-26,183,-4733,23,-86,-41,37
419,-3790,-3,187,-4721,23,-87,-41,35
420,-3774,4,189,-4726,23,-88,-39,33
421,-3785,7,201,-4739,23,-86,-40,33
422,-3785,-17,181,-4726,23,-88,-42,37
423,-3767,-20,190,-4725,23,-90,-40,38
424,-3775,-17,176,-4734,23,-86,-42,35
425,-3799,-1,189,-4721,23,-90,-42,33
426,-3787,-6,197,-4721,23,-87,-36,32
427,-3781,1,190,-4727,23,-89,-35,30
428,-3782,-3,216,-4722,23,-88,-37,38
429,-3814,-4,161,-4718,23,-88,-41,32
430,-3773,4,204,-4735,23,-88,-43,32
431,-3797,6,215,-4723,23,-87,-36,38
432,-3807,1,188,-4739,23,-87,-41,32
433,-3793,1,204,-4739,23,-85,-34,32
434,-3799,3,158,-4726,23,-86,-39,32
435,-3780,-14,183,-4716,23,-90,-39,34
436,-3785,9,194,-4724,23,-89,-41,32
437,-3812,-1,174,-4734,23,-87,-37,40
438,-3779,-11,156,-4727,23,-88,-38,37
439,-3791,8,194,-4737,23,-86,-40,33
440,-3816,1,192,-4723,23,-85,-36,34
441,-3795,-30,154,-4736,23,-86,-37,35
442,-3782,2,185,-4757,23,-87,-36,34
443,-3780,7,200,-4744,23,-89,-37,40
444,-3800,12,174,-4730,23,-92,-39,35
445,-3773,1,157,-4735,23,-88,-40,33
446,-3766,-21,181,-4725,23,-89,-39,36
447,-3767,6,192,-4722,23,-92,-39,39
448,-3791,-3,164,-4741,23,-90,-35,36
449,-3773,21,173,-4737,23,-88,-47,35
450,-3796,6,195,-4737,23,-88,-39,31
451,-3767,-5,212,-4720,23,-83,-40,33
452,-3771,-3,153,-4728,23,-88,-37,34
453,-3797,1,190,-4734,23,-83,-39,36
454,-3804,-8,179,-4744,23,-87,-42,37
455,-3776,14,205,-4744,23,-88,-37,35
456,-3788,0,189,-4724,23,-87,-39,34
457,-3779,-9,183,-4734,23,-89,-41,38
458,-3788,4,165,-4734,23,-91,-37,37
459,-3779,14,197,-4724,23,-86,-36,36
460,-3784,3,223,-4728,23,-84,-41,38
461,-3795,-1,167,-4740,23,-86,-38,28
462,-3776,-7,187,-4734,23,-84,-37,39
463,-3777,-6,171,-4733,23,-85,-40,27
464,-3786,-9,189,-4727,23,-88,-35,39
465,-3788,1,173,-4730,23,-88,-37,37
466,-3781,17,173,-4724,23,-88,-38,33
467,-3774,-21,169,-4738,23,-89,-40,34
468,-3781,0,190,-4726,23,-88,-44,32
469,-3775,1,194,-4724,23,-85,-38,33
470,-3791,3,190,-4713,23,-89,-40,35
471,-3803,-18,192,-4720,23,-88,-39,34
472,-3794,-20,182,-4732,23,-86,-41,33
473,-3792,-15,177,-4738,23,-86,-38,35
474,-3777,-30,182,-4743,23,-83,-39,31
475,-3790,-1,188,-4733,23,-89,-44,34
476,-3769,-13,214,-4746,23,-84,-34,38
477,-3787,17,206,-4740,23,-84,-35,35
478,-3811,-20,182,-4717,23,-85,-38,36
479,-3800,-5,184,-4726,23,-91,-41,36
480,-3777,-19,196,-4731,23,-88,-42,37
481,-3791,-10,202,-4728,23,-89,-42,35
482,-3800,1,188,-4741,23,-86,-38,37
483,-3785,7,164,-4739,23,-86,-35,41
484,-3778,-14,176,-4731,23,-86,-38,35
485,-3793,4,178,-4734,23,-86,-38,36
486,-3761,-13,203,-4727,23,-86,-40,31
487,-3783,-7,190,-4732,23,-85,-35,32
488,-3790,-12,158,-4739,23,-83,-34,32
489,-3783,-13,197,-4723,23,-86,-43,31
490,-3788,-25,190,-4728,23,-87,-39,33
491,-3774,7,208,-4728,23,-91,-37,31
492,-3781,-5,164,-4724,23,-89,-37,37
493,-3807,2,197,-4717,23,-86,-39,33
494,-3779,2,201,-4717,23,-84,-43,33
495,-3800,-5,204,-4742,23,-88,-37,31
496,-3781,-11,182,-4714,23,-90,-41,34
497,-3789,-25,147,-4736,23,-85,-41,33
498,-3786,9,188,-4723,23,-85,-39,38
499,-3794,-12,188,-4725,23,-86,-35,35
500,-3806,6,203,-4727,23,-90,-44,34
501,-3794,-15,176,-4724,23,-82,-37,37
502,-3823,1,194,-4736,23,-87,-39,31
503,-3786,-15,206,-4717,23,-85,-40,35
504,-3777,-23,188,-4727,23,-87,-38,37
505,-3792,-2,205,-4740,23,-89,-39,39
506,-3789,2,157,-4725,23,-90,-37,36
507,-3798,5,207,-4727,23,-90,-36,31
508,-3787,-17,194,-4726,23,-88,-42,34
509,-3774,-7,186,-4734,23,-86,-38,35
510,-3744,0,181,-4722,23,-87,-39,37
511,-3799,-1,184,-4733,23,-88,-37,36
512,-3797,17,177,-4729,23,-85,-43,34
513,-3763,-11,171,-4726,23,-88,-40,35
514,-3796,-10,185,-4735,23,-86,-35,34
515,-3782,-6,173,-4728,23,-88,-38,39
516,-3781,-10,173,-4724,23,-90,-42,36
517,-3764,-1,140,-4731,23,-85,-37,34
518,-3805,4,170,-4744,23,-86,-39,38
519,-3773,-16,185,-4721,23,-89,-44,36
520,-3803,-8,182,-4734,23,-85,-41,33
521,-3792,-16,212,-4724,23,-89,-40,36
522,-3778,-20,201,-4731,23,-88,-34,33
523,-3805,11,158,-4715,23,-88,-40,38
524,-3780,-20,170,-4714,23,-88,-37,33
525,-3785,5,205,-4731,23,-87,-41,34
526,-3797,-24,219,-4728,23,-86,-38,35
527,-3793,-2,196,-4736,23,-90,-36,36
528,-3802,-14,185,-4736,23,-87,-40,35
529,-3795,-23,189,-4734,23,-87,-40,35
530,-3778,6,176,-4733,23,-88,-34,39
531,-3806,-21,187,-4723,23,-86,-35,33
532,-3789,5,205,-4732,23,-85,-36,31
533,-3791,-18,198,-4735,23,-86,-39,39
534,-3777,13,173,-4724,23,-89,-39,35
535,-3790,-7,202,-4727,23,-90,-39,36
536,-3789,-17,209,-4725,23,-85,-37,39
537,-3801,-11,203,-4729,23,-86,-40,35
538,-3798,-3,187,-4723,23,-87,-37,35
539,-3812,-14,215,-4728,23,-83,-39,37
540,-3804,1,202,-4731,23,-88,-42,38
541,-3787,18,202,-4733,23,-83,-37,35
542,-3792,-22,157,-4734,23,-88,-41,31
543,-3789,1,179,-4732,23,-86,-43,34
544,-3781,-18,212,-4742,23,-87,-36,34
545,-3786,-4,197,-4733,23,-87,-39,36
546,-3782,-6,190,-4739,23,-84,-37,34
547,-3791,-5,197,-4729,23,-90,-40,35
548,-3774,-15,198,-4730,23,-86,-38,35
549,-3763,-7,167,-4732,23,-92,-39,37
550,-3777,1,196,-4726,23,-86,-35,33
551,-3808,-32,209,-4719,23,-89,-36,38
552,-3813,-5,168,-4743,23,-87,-44,34
553,-3770,-14,151,-4725,23,-86,-38,36
554,-3789,-16,162,-4726,23,-90,-41,39
555,-3790,-7,174,-4730,23,-85,-39,35
556,-3779,0,177,-4737,23,-87,-38,33
557,-3792,1,182,-4721,23,-91,-41,36
558,-3804,-1,185,-4744,23,-83,-41,37
559,-3786,-2,186,-4733,23,-87,-38,36
560,-3795,-3,183,-4725,23,-86,-32,36
561,-3789,-1,202,-4724,23,-86,-41,37
562,-3803,-6,179,-4720,23,-86,-35,33
563,-3784,-4,207,-4737,23,-87,-39,36
564,-3773,-5,185,-4717,23,-84,-38,33
565,-3786,-10,191,-4733,23,-85,-40,36
566,-3786,-6,223,-4733,23,-83,-39,36
567,-3793,3,165,-4738,23,-87,-37,30
568,-3780,8,154,-4736,23,-85,-38,37
569,-3794,-15,188,-4735,23,-86,-38,36
570,-3771,-5,196,-4718,23,-87,-42,36
571,-3764,0,184,-4734,23,-86,-38,36
572,-3794,-5,175,-4722,23,-86,-39,33
573,-3800,-1,211,-4737,23,-85,-37,37
574,-3785,-18,175,-4718,23,-84,-46,34
575,-3783,-9,210,-4731,23,-86,-40,36
576,-3796,-1,216,-4732,23,-85,-43,32
577,-3807,-16,173,-4727,23,-91,-36,41
578,-3785,12,173,-4731,23,-87,-39,33
579,-3791,10,190,-4725,23,-85,-43,30
580,-3797,-3,181,-4752,23,-88,-36,36
581,-3798,-4,188,-4723,23,-85,-37,35
582,-3793,-6,193,-4726,23,-83,-44,36
583,-3791,1,163,-4728,23,-84,-37,35
584,-3797,13,170,-4725,23,-87,-38,36
585,-3783,-13,182,-4728,23,-90,-37,34
586,-3796,-2,169,-4722,23,-84,-43,34
587,-3803,8,167,-4726,23,-83,-35,38
588,-3789,-18,195,-4728,23,-91,-40,32
589,-3792,-16,161,-4723,23,-83,-42,33
590,-3788,-2,187,-4718,23,-86,-34,36
591,-3782,-1,162,-4740,23,-86,-38,34
592,-3793,8,188,-4728,23,-85,-41,37
593,-3794,-2,189,-4747,23,-89,-42,36
594,-3789,4,171,-4731,23,-88,-41,35
595,-3780,0,185,-4736,23,-91,-41,36
596,-3794,15,193,-4731,23,-88,-37,36
597,-3790,-11,181,-4735,23,-88,-35,38
598,-3795,-11,188,-4725,23,-88,-36,40
599,-3780,4,192,-4725,23,-87,-37,36
600,-3794,-4,184,-4723,23,-88,-38,37
601,-3789,-8,192,-4745,23,-86,-39,37
602,-3772,2,174,-4727,23,-90,-35,33
603,-3801,17,188,-4726,23,-90,-41,35
604,-3794,-11,196,-4719,23,-88,-42,33
605,-3810,8,155,-4733,23,-89,-43,35
606,-3785,-9,207,-4740,23,-84,-39,35
607,-3789,5,190,-4731,23,-86,-38,33
608,-3780,7,166,-4732,23,-87,-40,32
609,-3783,7,171,-4727,23,-87,-33,33
610,-3808,0,176,-4735,23,-89,-36,34
611,-3776,12,159,-4717,23,-86,-43,39
612,-3764,-8,185,-4722,23,-85,-34,33
613,-3775,13,171,-4720,23,-86,-38,32
614,-3777,12,197,-4729,23,-87,-41,35
615,-3800,20,173,-4722,23,-82,-41,35
616,-3772,6,198,-4728,23,-85,-40,35
617,-3789,-15,167,-4728,23,-86,-40,39
618,-3791,-1,198,-4736,23,-89,-42,43
619,-3784,1,222,-4738,23,-88,-35,32
620,-3800,-20,178,-4732,23,-88,-40,33
621,-3813,9,208,-4728,23,-88,-40,35
622,-3808,-8,158,-4718,23,-89,-41,36
623,-3768,-5,177,-4726,23,-89,-38,33
624,-3806,7,184,-4723,23,-81,-40,34
625,-3779,7,180,-4732,23,-84,-43,33
626,-3788,-7,187,-4738,23,-86,-41,31
627,-3785,-18,184,-4723,23,-85,-37,30
628,-3794,3,219,-4737,23,-84,-42,35
629,-3807,21,171,-4724,23,-87,-36,35
630,-3772,-7,181,-4728,23,-89,-34,33
631,-3809,6,196,-4732,23,-88,-40,32
632,-3790,-19,159,-4728,23,-85,-37,38
633,-3787,-8,211,-4726,23,-89,-39,34
634,-3787,-3,221,-4724,23,-85,-35,33
635,-3789,-3,181,-4733,23,-87,-40,37
636,-3787,8,191,-4736,23,-85,-42,34
637,-3788,17,178,-4730,23,-84,-40,38
638,-3795,6,197,-4734,23,-83,-42,35
639,-3760,4,222,-4724,23,-88,-38,32
640,-3798,18,175,-4724,23,-82,-39,39
641,-3778,-20,153,-4723,23,-84,-38,37
642,-3808,6,188,-4735,23,-87,-39,32
643,-3775,-4,202,-4717,23,-84,-38,36
644,-3775,-9,181,-4733,23,-87,-39,31
645,-3769,2,169,-4736,23,-87,-41,35
646,-3774,-2,222,-4728,23,-88,-31,34
647,-3793,1,168,-4728,23,-85,-37,34
648,-3808,12,182,-4727,23,-92,-38,35
649,-3779,-3,171,-4737,23,-87,-40,34
650,-3771,6,183,-4722,23,-89,-37,31
651,-3788,-21,197,-4717,23,-88,-35,35
652,-3791,3,201,-4726,23,-91,-39,35
653,-3789,-15,179,-4742,23,-89,-40,32
654,-3784,11,176,-4734,23,-89,-35,34
655,-3796,-21,190,-4723,23,-85,-42,34
656,-3781,0,216,-4733,23,-89,-36,32
657,-3800,-19,183,-4729,23,-86,-43,36
658,-3798,20,161,-4726,23,-83,-38,29
659,-3795,-12,217,-4720,23,-85,-41,35
660,-3791,23,193,-4729,23,-89,-43,28
661,-3800,-18,174,-4729,23,-88,-37,34
662,-3796,-7,166,-4720,23,-89,-34,32
663,-3798,-2,193,-4727,23,-87,-43,31
664,-3788,-14,164,-4724,23,-90,-39,33
665,-3776,-2,180,-4729,23,-89,-36,32
666,-3788,0,188,-4726,23,-86,-39,31
667,-3787,-16,189,-4738,23,-85,-38,37
668,-3794,-20,210,-4735,23,-89,-41,33
669,-3790,-6,195,-4733,23,-82,-42,34
670,-3782,-11,194,-4726,23,-89,-39,33
671,-3782,-14,195,-4743,23,-89,-39,35
672,-3792,1,190,-4730,23,-88,-33,41
673,-3806,22,195,-4728,23,-92,-40,34
674,-3800,2,177,-4727,23,-92,-42,34
675,-3790,0,159,-4727,23,-85,-36,35
676,-3796,-12,177,-4727,23,-83,-36,35
677,-3759,7,195,-4721,23,-87,-39,37
678,-3784,3,184,-4729,23,-87,-42,37
679,-3782,-2,173,-4732,23,-84,-43,35
680,-3789,-6,181,-4734,23,-90,-38,34
681,-3786,-6,187,-4720,23,-88,-39,37
682,-3796,1,190,-4722,23,-87,-36,35
683,-3783,4,207,-4721,23,-86,-41,34
684,-3790,-18,160,-4731,23,-90,-38,38
685,-3790,-6,194,-4739,23,-86,-38,35
686,-3782,9,170,-4716,23,-89,-43,31
687,-3791,-10,171,-4726,23,-87,-40,36
688,-3805,-3,195,-4727,23,-86,-37,35
689,-3782,2,174,-4729,23,-80,-42,35
690,-3801,8,168,-4725,23,-89,-36,36
691,-3798,-8,186,-4729,23,-84,-41,39
692,-3779,-7,185,-4721,23,-88,-41,37
693,-3792,9,169,-4729,23,-88,-37,36
694,-3782,-12,204,-4732,23,-85,-42,33
695,-3785,-8,172,-4726,23,-81,-41,35
696,-3779,16,214,-4724,23,-89,-33,34
697,-3797,3,177,-4736,23,-83,-38,35
698,-3776,-3,199,-4733,23,-87,-41,36
699,-3794,-19,207,-4721,23,-85,-39,33
700,-3783,-29,188,-4723,23,-88,-42,31
701,-3787,-2,195,-4729,23,-83,-40,35
702,-3796,-9,216,-4735,23,-85,-38,32
703,-3776,8,158,-4723,23,-85,-40,33
704,-3797,-10,198,-4721,23,-89,-36,35
705,-3768,8,198,-4731,23,-86,-40,33
706,-3805,-12,165,-4716,23,-83,-42,37
707,-3792,-8,167,-4712,23,-82,-41,35
708,-3788,4,188,-4734,23,-89,-38,34
709,-3781,-21,192,-4731,23,-89,-37,34
710,-3796,-1,195,-4729,23,-87,-39,34
711,-3783,4,188,-4721,23,-85,-37,35
712,-3786,0,133,-4727,23,-86,-40,33
713,-3768,0,192,-4735,23,-89,-42,34
714,-3795,-8,157,-4726,23,-89,-36,38
715,-3761,3,203,-4723,23,-84,-41,34
716,-3799,-18,192,-4730,23,-90,-38,36
717,-3805,-6,186,-4728,23,-89,-40,33
718,-3785,14,202,-4710,23,-88,-41,37
719,-3795,8,189,-4721,23,-86,-36,35
720,-3780,-7,195,-4739,23,-84,-38,29
721,-3781,-19,199,-4721,23,-83,-36,31
722,-3801,11,170,-4726,23,-82,-39,34
723,-3791,-3,167,-4740,23,-85,-39,36
724,-3775,8,218,-4725,23,-85,-37,34
725,-3782,-12,164,-4728,23,-83,-37,35
726,-3789,17,219,-4732,23,-86,-35,38
727,-3799,3,196,-4748,23,-89,-39,37
728,-3798,17,187,-4726,23,-87,-36,32
729,-3786,10,181,-4720,23,-86,-43,35
730,-3794,4,181,-4725,23,-84,-37,34
731,-3787,10,185,-4722,23,-84,-39,35
732,-3767,5,213,-4718,23,-87,-42,33
733,-3789,-13,151,-4732,23,-90,-39,34
734,-3788,11,178,-4711,23,-87,-42,34
735,-3791,-12,200,-4733,23,-87,-40,35
736,-3774,-20,167,-4729,23,-88,-40,36
737,-3807,5,211,-4708,23,-83,-40,38
738,-3790,-9,213,-4713,23,-83,-37,34
739,-3796,-1,224,-4717,23,-86,-34,34
740,-3779,0,206,-4731,23,-90,-41,33
741,-3773,-12,196,-4719,23,-86,-40,32
742,-3801,-25,210,-4727,23,-88,-46,36
743,-3789,0,196,-4725,23,-90,-34,35
744,-3791,-7,156,-4738,23,-88,-43,37
745,-3797,0,200,-4727,23,-85,-37,32
746,-3780,1,198,-4735,23,-83,-41,35
747,-3762,-3,139,-4724,23,-82,-40,35
748,-3785,-3,204,-4735,23,-88,-41,39
749,-3778,-12,187,-4722,23,-86,-36,39
750,-3795,-5,201,-4728,23,-84,-42,32
751,-3771,-13,177,-4709,23,-88,-39,34
752,-3777,12,199,-4735,23,-87,-39,31
753,-3793,-4,160,-4725,23,-88,-38,31
754,-3783,-12,190,-4729,23,-91,-42,35
755,-3803,1,193,-4728,23,-84,-39,32
756,-3792,3,183,-4718,23,-92,-36,37
757,-3789,-9,180,-4731,23,-88,-43,36
758,-3785,-9,198,-4724,23,-86,-35,28
759,-3781,-2,166,-4722,23,-86,-38,33
760,-3794,-3,171,-4727,23,-89,-37,35
761,-3775,-14,198,-4726,23,-87,-40,36
762,-3779,15,163,-4723,23,-90,-38,32
763,-3787,-8,175,-4717,23,-86,-38,35
764,-3795,1,155,-4721,23,-88,-43,37
765,-3807,-17,170,-4730,23,-88,-39,34
766,-3772,14,194,-4736,23,-88,-36,34
767,-3798,-2,213,-4731,23,-89,-42,37
768,-3762,-19,166,-4734,23,-90,-39,32
769,-3772,-19,199,-4734,23,-85,-42,34
770,-3782,-15,191,-4736,23,-86,-38,34
771,-3806,-3,204,-4723,23,-86,-40,34
772,-3777,10,185,-4728,23,-89,-37,37
773,-3786,-15,191,-4713,23,-90,-38,38
774,-3785,-3,183,-4722,23,-89,-39,34
775,-3795,-13,195,-4727,23,-85,-40,30
776,-3790,11,202,-4726,23,-87,-40,35
777,-3802,-10,198,-4728,23,-86,-45,37
778,-3784,4,181,-4720,23,-87,-38,29
779,-3788,-9,181,-4721,23,-88,-37,36
780,-3791,-2,205,-4730,23,-90,-39,34
781,-3786,-5,193,-4722,23,-89,-44,36
782,-3807,-7,183,-4721,23,-87,-36,35
783,-3780,-2,168,-4720,23,-83,-43,27
784,-3780,-1,210,-4723,23,-87,-37,33
785,-3777,1,166,-4723,23,-85,-41,29
786,-3792,-16,179,-4725,23,-84,-42,38
787,-3802,-6,195,-4733,23,-90,-38,36
788,-3760,-6,166,-4720,23,-86,-37,33
789,-3810,4,205,-4725,23,-84,-41,33
790,-3792,8,171,-4729,23,-85,-39,38
791,-3781,-14,195,-4737,23,-85,-46,35
792,-3782,-29,182,-4725,23,-90,-41,34
793,-3796,-10,176,-4729,23,-85,-37,36
794,-3785,-18,173,-4699,23,-87,-40,39
795,-3792,-6,148,-4726,23,-90,-37,36
796,-3790,-10,172,-4720,23,-91,-35,36
797,-3789,17,199,-4724,23,-92,-38,35
798,-3786,7,194,-4738,23,-91,-43,38
799,-3790,-5,212,-4725,23,-90,-40,34
800,-3776,10,166,-4711,23,-87,-39,35
801,-3791,-4,175,-4725,23,-89,-37,37
802,-3789,-7,185,-4725,23,-84,-37,33
803,-3785,18,171,-4723,23,-81,-40,31
804,-3765,2,197,-4723,23,-88,-43,32
805,-3780,1,178,-4708,23,-86,-38,35
806,-3792,22,172,-4735,23,-86,-39,33
807,-3784,-10,177,-4716,23,-86,-35,35
808,-3791,-2,212,-4719,23,-90,-39,33
809,-3764,-9,200,-4727,23,-89,-34,35
810,-3792,-9,201,-4724,23,-89,-40,36
811,-3777,-11,210,-4717,23,-87,-44,32
812,-3778,-3,177,-4710,23,-84,-41,33
813,-3794,-15,190,-4716,23,-88,-40,40
814,-3767,-2,179,-4719,23,-86,-40,35
815,-3771,-20,179,-4708,23,-89,-37,38
816,-3785,-8,185,-4721,23,-87,-41,36
817,-3795,-3,181,-4707,23,-86,-35,33
818,-3808,-20,184,-4720,23,-84,-40,35
819,-3802,4,239,-4721,23,-91,-38,33
820,-3791,17,203,-4726,23,-90,-37,34
821,-3774,-11,207,-4710,23,-85,-41,32
822,-3803,4,175,-4714,23,-88,-41,32
823,-3789,1,207,-4736,23,-90,-39,34
824,-3806,5,174,-4727,23,-86,-39,33
825,-3771,2,169,-4748,23,-85,-31,32
826,-3784,1,201,-4719,23,-87,-33,35
827,-3803,-20,196,-4716,23,-84,-42,36
828,-3807,2,162,-4719,23,-89,-39,30
829,-3774,-2,190,-4736,23,-87,-36,36
830,-3791,-34,214,-4719,23,-86,-41,34
831,-3784,17,194,-4731,23,-86,-40,36
832,-3793,-1,188,-4725,23,-89,-36,37
833,-3782,-8,207,-4743,23,-87,-40,35
834,-3788,4,205,-4711,23,-88,-41,33
835,-3780,18,202,-4736,23,-85,-41,39
836,-3777,12,227,-4719,23,-85,-36,34
837,-3797,6,197,-4733,23,-86,-40,34
838,-3759,-4,201,-4718,23,-90,-40,31
839,-3787,11,197,-4731,23,-88,-39,34
840,-3778,-4,180,-4723,23,-86,-42,33
841,-3800,-9,179,-4727,23,-86,-39,37
842,-3796,-5,186,-4723,23,-84,-43,36
843,-3773,-5,191,-4724,23,-85,-41,36
844,-3801,-12,205,-4741,23,-86,-35,31
845,-3793,9,204,-4725,23,-84,-35,34
846,-3799,-9,157,-4718,23,-83,-41,33
847,-3792,20,182,-4727,23,-86,-38,35
848,-3777,-7,185,-4722,23,-81,-32,40
849,-3805,-5,182,-4728,23,-89,-41,36
850,-3789,-4,205,-4712,23,-87,-37,35
851,-3781,-11,174,-4735,23,-88,-43,32
852,-3788,-11,161,-4734,23,-83,-39,33
853,-3786,13,187,-4724,23,-91,-41,34
854,-3798,0,171,-4721,23,-87,-45,37
855,-3800,-10,216,-4721,23,-83,-40,33
856,-3774,-5,215,-4721,23,-86,-37,37
857,-3789,-17,198,-4720,23,-90,-46,38
858,-3789,-14,184,-4729,23,-87,-35,35
859,-3786,-11,205,-4736,23,-88,-38,35
860,-3781,-2,186,-4736,23,-80,-40,36
861,-3771,3,151,-4733,23,-92,-36,33
862,-3798,-3,177,-4721,23,-85,-39,32
863,-3796,-30,192,-4716,23,-90,-36,34
864,-3813,11,200,-4718,23,-87,-37,34
865,-3782,-6,171,-4725,23,-87,-35,35
866,-3813,9,198,-4726,23,-85,-37,37
867,-3795,-4,192,-4719,23,-90,-37,32
868,-3801,-20,189,-4728,23,-88,-42,36
869,-3801,-1,190,-4726,23,-88,-44,36
870,-3796,8,175,-4729,23,-87,-44,34
871,-3805,13,170,-4725,23,-88,-39,33
872,-3798,-16,184,-4737,23,-86,-45,33
873,-3780,8,184,-4728,23,-83,-36,35
874,-3798,5,200,-4717,23,-86,-39,36
875,-3789,-2,218,-4727,23,-85,-36,30
876,-3800,12,150,-4728,23,-83,-33,33
877,-3786,-7,205,-4719,23,-87,-35,35
878,-3783,-9,204,-4712,23,-88,-39,32
879,-3786,18,215,-4739,23,-89,-39,35
880,-3781,-12,142,-4731,23,-85,-42,35
881,-3777,2,199,-4729,23,-88,-41,31
882,-3791,-14,180,-4723,23,-87,-38,36
883,-3785,9,180,-4728,23,-82,-40,35
884,-3775,-4,198,-4718,23,-85,-38,36
885,-3781,-11,225,-4724,23,-85,-42,33
886,-3787,-6,197,-4736,23,-86,-37,37
887,-3777,-8,186,-4726,23,-85,-38,33
888,-3790,-11,166,-4718,23,-88,-41,39
889,-3788,3,201,-4714,23,-88,-42,36
890,-3777,-16,194,-4714,23,-83,-40,34
891,-3776,9,204,-4714,23,-88,-42,37
892,-3787,-12,170,-4718,23,-85,-37,31
893,-3781,-8,165,-4717,23,-86,-39,36
894,-3779,-9,192,-4741,23,-83,-37,36
895,-3791,-1,172,-4734,23,-87,-38,34
896,-3780,-1,188,-4715,23,-87,-35,35
897,-3791,-18,167,-4731,23,-85,-36,35
898,-3772,13,222,-4726,23,-89,-43,37
899,-3797,7,210,-4730,23,-85,-40,34
900,-3786,3,174,-4735,23,-89,-41,36
901,-3778,10,184,-4733,23,-87,-38,37
902,-3781,-3,176,-4725,23,-88,-31,35
903,-3783,-16,173,-4723,23,-84,-41,38
904,-3788,-14,197,-4725,23,-87,-39,38
905,-3798,-9,170,-4732,23,-88,-38,35
906,-3785,-12,187,-4734,23,-87,-41,35
907,-3784,-1,171,-4730,23,-89,-37,35
908,-3779,-1,171,-4715,23,-85,-37,32
909,-3791,-7,195,-4725,23,-85,-40,37
910,-3778,-6,165,-4738,23,-90,-42,36
911,-3767,3,196,-4718,23,-87,-36,34
912,-3779,-2,165,-4716,23,-85,-38,34
913,-3805,-14,173,-4734,23,-89,-41,31
914,-3799,-21,203,-4731,23,-84,-36,36
915,-3767,-2,189,-4726,23,-86,-37,35
916,-3784,-1,186,-4717,23,-89,-40,33
917,-3763,5,176,-4716,23,-87,-42,34
918,-3781,3,212,-4728,23,-90,-39,32
919,-3774,-10,188,-4727,23,-89,-37,35
920,-3774,10,177,-4715,23,-86,-39,32
921,-3787,-5,169,-4738,23,-90,-38,35
922,-3799,-3,188,-4718,23,-90,-40,36
923,-3781,3,179,-4721,23,-87,-36,33
924,-3797,-3,170,-4715,23,-84,-34,35
925,-3775,0,155,-4726,23,-83,-41,39
926,-3799,4,192,-4717,23,-91,-41,37
927,-3763,22,157,-4719,23,-85,-39,35
928,-3787,16,183,-4724,23,-86,-38,34
929,-3792,-13,187,-4727,23,-87,-41,34
930,-3780,-6,186,-4736,23,-89,-37,37
931,-3807,2,180,-4725,23,-91,-36,34
932,-3790,2,197,-4717,23,-83,-41,34
933,-3782,-3,207,-4729,23,-82,-37,37
934,-3779,-9,192,-4733,23,-86,-38,32
935,-3775,-1,216,-4735,23,-88,-38,36
936,-3781,8,186,-4725,23,-89,-40,34
937,-3775,6,182,-4725,23,-88,-42,35
938,-3766,6,151,-4732,23,-85,-40,35
939,-3791,7,187,-4722,23,-84,-36,32
940,-3789,10,218,-4722,23,-88,-42,36
941,-3767,3,181,-4708,23,-86,-36,31
942,-3795,15,188,-4711,23,-87,-38,33
943,-3799,23,194,-4715,23,-88,-40,35
944,-3790,-21,184,-4722,23,-89,-43,31
945,-3776,-24,169,-4737,23,-92,-40,31
946,-3780,-19,198,-4726,23,-86,-34,35
947,-3809,-9,183,-4726,23,-87,-42,31
948,-3791,-3,173,-4717,23,-85,-42,35
949,-3788,12,178,-4718,23,-89,-40,34
950,-3786,3,191,-4721,23,-88,-39,38
951,-3769,-3,170,-4722,23,-88,-41,34
952,-3766,1,164,-4730,23,-86,-44,36
953,-3768,-9,163,-4723,23,-88,-43,34
954,-3814,-12,182,-4731,23,-90,-44,30
955,-3779,-11,209,-4735,23,-87,-38,37
956,-3793,-1,178,-4717,23,-88,-35,34
957,-3804,-10,173,-4713,23,-87,-41,33
958,-3792,-17,180,-4720,23,-89,-45,33
959,-3789,7,183,-4712,23,-84,-39,39
960,-3791,0,194,-4724,23,-86,-41,34
961,-3784,4,174,-4723,23,-87,-34,31
962,-3789,-6,160,-4719,23,-87,-37,35
963,-3786,-6,229,-4733,23,-88,-34,33
964,-3790,-10,198,-4723,23,-86,-38,32
965,-3790,0,196,-4733,23,-86,-36,32
966,-3793,3,199,-4727,23,-85,-36,35
967,-3803,-5,200,-4714,23,-88,-40,34
968,-3767,-11,201,-4731,23,-89,-40,35
969,-3796,-14,198,-4714,23,-93,-35,34
970,-3789,-7,215,-4731,23,-88,-39,32
971,-3773,-17,180,-4716,23,-88,-38,36
972,-3782,-9,205,-4714,23,-86,-42,38
973,-3789,5,215,-4726,23,-90,-39,36
974,-3779,-9,193,-4727,23,-88,-42,39
975,-3784,10,198,-4734,23,-88,-38,30
976,-3782,-7,161,-4727,23,-89,-39,34
977,-3797,-5,187,-4729,23,-85,-41,31
978,-3787,-18,205,-4720,23,-87,-43,37
979,-3764,14,188,-4729,23,-88,-40,34
980,-3796,-18,199,-4732,23,-87,-38,32
981,-3789,-4,184,-4710,23,-88,-36,35
982,-3786,3,183,-4715,23,-85,-37,35
983,-3795,14,169,-4715,23,-88,-43,40
984,-3789,-2,184,-4718,23,-86,-40,38
985,-3778,6,180,-4715,23,-87,-38,32
986,-3805,6,195,-4722,23,-88,-35,37
987,-3779,16,171,-4709,23,-87,-37,34
988,-3806,6,168,-4733,23,-85,-43,36
989,-3789,17,200,-4729,23,-88,-38,35
990,-3789,-23,185,-4714,23,-87,-42,36
991,-3782,1,201,-4722,23,-90,-40,31
992,-3790,-21,217,-4723,23,-84,-40,36
993,-3792,17,183,-4737,23,-91,-40,33
994,-3803,4,166,-4737,23,-88,-38,35
995,-3780,5,180,-4728,23,-87,-39,36
996,-3785,-11,175,-4728,23,-86,-35,39
997,-3805,2,179,-4725,23,-85,-40,32
998,-3801,-4,168,-4741,23,-84,-33,31
