,acc_X,acc_Y,acc_Z,temp,tempC,gyr_X,gyr_Y,gyr_Z
0,-3790,1,184,-4695,23,-174,-77,69
1,-3796,0,187,-4700,23,-170,-79,69
2,-3793,-5,186,-4701,23,-172,-78,75
3,-3784,-12,191,-4696,23,-171,-76,71
4,-3787,-1,191,-4698,23,-171,-77,67
5,-3788,1,181,-4696,23,-172,-80,70
6,-3791,-3,177,-4695,23,-174,-77,67
7,-3789,-10,179,-4697,23,-175,-78,66
8,-3788,-3,184,-4700,23,-172,-76,69
9,-3794,-8,192,-4697,23,-175,-74,68
10,-3792,0,186,-4695,23,-176,-76,71
11,-3786,0,194,-4694,23,-174,-76,68
12,-3793,-12,194,-4696,23,-172,-79,68
13,-3793,-6,190,-4699,23,-173,-81,67
14,-3794,-8,187,-4696,23,-175,-82,71
15,-3784,-5,192,-4701,23,-175,-77,69
16,-3792,0,175,-4701,23,-171,-77,69
17,-3789,3,185,-4697,23,-174,-79,69
18,-3783,-3,187,-4694,23,-176,-81,68
19,-3784,-5,188,-4695,23,-172,-81,69
20,-3786,-5,189,-4695,23,-174,-77,73
21,-3783,1,180,-4699,23,-175,-76,71
22,-3784,0,183,-4702,23,-176,-77,71
23,-3789,-2,183,-4695,23,-175,-79,71
24,-3785,-6,175,-4695,23,-172,-78,70
25,-3788,-4,189,-4695,23,-171,-76,70
26,-3787,-3,193,-4694,23,-173,-78,69
27,-3791,1,192,-4692,23,-175,-79,71
28,-3792,0,190,-4694,23,-174,-79,70
29,-3791,-5,187,-4692,23,-171,-78,67
30,-3790,-2,182,-4692,23,-172,-76,69
31,-3785,6,176,-4691,23,-173,-76,71
32,-3790,4,193,-4693,23,-174,-74,69
33,-3787,-2,192,-4695,23,-173,-73,69
34,-3786,-4,185,-4694,23,-172,-73,67
35,-3788,-1,183,-4697,23,-174,-73,70
36,-3800,11,172,-4696,23,-176,-76,69
37,-3796,3,177,-4702,23,-176,-78,67
38,-3795,-3,183,-4698,23,-174,-78,71
39,-3793,-3,198,-4697,23,-174,-75,70
40,-3790,-2,181,-4694,23,-171,-78,69
41,-3790,-11,184,-4695,23,-174,-82,72
42,-3787,-9,185,-4696,23,-173,-79,71
43,-3790,-8,193,-4699,23,-173,-79,70
44,-3794,-9,191,-4694,23,-173,-78,70
45,-3795,-10,186,-4692,23,-171,-78,68
46,-3789,-2,182,-4696,23,-174,-76,68
47,-3795,-2,175,-4697,23,-174,-78,73
48,-3794,2,182,-4697,23,-174,-73,68
49,-3789,5,192,-4700,23,-173,-76,69
50,-3783,0,180,-4698,23,-174,-81,71
51,-3787,-2,191,-4699,23,-173,-77,69
52,-3794,-1,184,-4696,23,-172,-74,68
53,-3800,-4,186,-4697,23,-174,-78,70
54,-3796,0,183,-4694,23,-174,-74,71
55,-3786,0,194,-4695,23,-171,-78,69
56,-3781,0,187,-4689,23,-172,-73,67
57,-3791,-4,187,-4694,23,-173,-76,69
58,-3793,-12,192,-4692,23,-173,-78,69
59,-3791,-3,187,-4695,23,-174,-78,73
60,-3792,-5,192,-4695,23,-172,-77,74
61,-3797,-6,190,-4690,23,-171,-79,74
62,-3782,2,188,-4697,23,-171,-81,69
63,-3793,9,180,-4697,23,-173,-77,68
64,-3789,-1,198,-4697,23,-175,-76,67
65,-3789,1,173,-4693,23,-173,-77,67
66,-3799,-4,184,-4693,23,-176,-75,70
67,-3782,-6,183,-4696,23,-174,-77,70
68,-3784,-11,193,-4703,23,-175,-79,67
69,-3794,-3,193,-4699,23,-172,-79,67
70,-3793,-6,180,-4696,23,-174,-77,67
71,-3784,-3,193,-4689,23,-175,-78,71
72,-3787,-1,185,-4693,23,-175,-76,68
73,-3794,-8,174,-4694,23,-174,-74,68
74,-3786,-12,188,-4694,23,-171,-76,68
75,-3791,-10,187,-4699,23,-171,-80,69
76,-3793,-7,195,-4699,23,-172,-80,68
77,-3786,-3,188,-4694,23,-170,-78,68
78,-3787,0,186,-4693,23,-174,-79,68
79,-3789,-1,177,-4691,23,-178,-76,70
80,-3787,-2,188,-4700,23,-175,-77,69
81,-3782,-2,189,-4693,23,-176,-77,70
82,-3780,-6,191,-4693,23,-175,-76,70
83,-3785,-3,195,-4695,23,-174,-75,71
84,-3786,-4,197,-4694,23,-178,-74,68
85,-3782,-4,192,-4698,23,-172,-75,71
86,-3778,-7,193,-4696,23,-176,-77,69
87,-3787,-10,190,-4696,23,-172,-80,70
88,-3784,-8,183,-4694,23,-174,-73,71
89,-3783,-12,190,-4696,23,-174,-79,69
90,-3786,-6,186,-4691,23,-175,-76,65
91,-3793,-6,180,-4698,23,-176,-74,68
92,-3786,-2,192,-4704,23,-177,-78,70
93,-3786,-6,190,-4698,23,-176,-76,67
94,-3781,-7,180,-4698,23,-170,-76,70
95,-3791,-3,182,-4701,23,-173,-78,67
96,-3783,-1,191,-4695,23,-171,-76,70
97,-3787,-7,196,-4696,23,-170,-76,69
98,-3786,-9,181,-4697,23,-171,-76,73
99,-3790,-3,187,-4698,23,-174,-73,72
100,-3784,1,198,-4701,23,-174,-79,71
101,-3788,-5,189,-4696,23,-173,-80,70
102,-3783,0,188,-4693,23,-173,-74,69
103,-3789,-2,191,-4697,23,-175,-74,71
104,-3790,-8,195,-4698,23,-176,-76,69
105,-3788,-4,190,-4696,23,-175,-73,70
106,-3796,-5,186,-4696,23,-174,-72,70
107,-3786,-3,191,-4697,23,-174,-75,69
108,-3785,0,178,-4696,23,-174,-80,70
109,-3782,-4,196,-4696,23,-175,-77,68
110,-3797,3,190,-4690,23,-176,-78,71
111,-3797,-2,190,-4693,23,-174,-77,69
112,-3792,-6,190,-4693,23,-173,-79,69
113,-3793,-7,192,-4695,23,-174,-75,69
114,-3797,-2,194,-4694,23,-174,-78,71
115,-3797,-10,189,-4690,23,-172,-79,68
116,-3796,-2,191,-4693,23,-171,-79,70
117,-3791,-8,172,-4692,23,-176,-79,67
118,-3793,-5,190,-4699,23,-175,-80,70
119,-3791,-2,191,-4700,23,-174,-77,70
120,-3790,-4,182,-4698,23,-173,-77,69
121,-3791,-4,187,-4694,23,-172,-80,67
122,-3792,-4,180,-4695,23,-174,-78,68
123,-3788,-4,194,-4696,23,-175,-78,70
124,-3793,-2,188,-4694,23,-173,-75,71
125,-3781,-10,181,-4689,23,-174,-76,73
126,-3791,-11,177,-4692,23,-171,-77,68
127,-3798,-3,180,-4692,23,-172,-75,70
128,-3788,-1,175,-4689,23,-168,-74,69
129,-3786,-14,183,-4697,23,-172,-76,71
130,-3785,-10,182,-4696,23,-175,-74,71
131,-3784,-5,185,-4696,23,-174,-76,69
132,-3781,-7,196,-4697,23,-178,-77,69
133,-3788,-3,186,-4692,23,-178,-80,72
134,-3787,-11,189,-4697,23,-174,-78,69
135,-3781,0,188,-4696,23,-173,-76,71
136,-3788,-12,191,-4692,23,-175,-74,70
137,-3780,-5,188,-4696,23,-178,-75,70
138,-3795,-8,191,-4700,23,-178,-76,69
139,-3791,1,191,-4698,23,-179,-74,69
140,-3792,-2,186,-4695,23,-175,-78,70
141,-3798,0,175,-4693,23,-174,-76,71
142,-3798,-2,189,-4692,23,-175,-77,69
143,-3791,-1,188,-4698,23,-175,-77,68
144,-3787,-12,192,-4701,23,-170,-80,67
145,-3784,-1,198,-4692,23,-174,-78,67
146,-3790,-5,184,-4688,23,-172,-79,68
147,-3790,-1,197,-4694,23,-174,-75,67
148,-3788,-1,193,-4690,23,-172,-76,64
149,-3791,-2,185,-4694,23,-168,-78,68
150,-3787,-7,179,-4693,23,-169,-81,69
151,-3787,-3,188,-4694,23,-170,-78,72
152,-3791,-3,184,-4697,23,-175,-80,73
153,-3785,1,177,-4699,23,-177,-76,70
154,-3782,1,186,-4698,23,-173,-76,70
155,-3789,-9,186,-4691,23,-173,-76,69
156,-3787,-7,194,-4691,23,-176,-75,67
157,-3789,-6,189,-4694,23,-172,-77,66
158,-3792,1,170,-4700,23,-172,-78,68
159,-3796,2,179,-4699,23,-172,-82,69
160,-3790,6,189,-4699,23,-175,-80,69
161,-3790,-2,189,-4695,23,-174,-78,68
162,-3792,-1,187,-4693,23,-175,-81,68
163,-3790,-2,188,-4694,23,-173,-78,69
164,-3794,2,186,-4691,23,-173,-77,69
165,-3795,2,187,-4694,23,-178,-77,70
166,-3786,-3,190,-4693,23,-177,-77,66
167,-3791,-5,186,-4688,23,-176,-75,67
168,-3789,0,181,-4689,23,-176,-76,70
169,-3783,-2,185,-4689,23,-173,-77,68
170,-3782,-2,184,-4691,23,-170,-78,69
171,-3791,0,198,-4694,23,-172,-78,71
172,-3793,-3,185,-4698,23,-176,-75,71
173,-3799,-4,190,-4693,23,-177,-77,69
174,-3791,-6,197,-4695,23,-177,-74,69
175,-3788,4,188,-4693,23,-175,-76,70
176,-3788,-1,184,-4690,23,-173,-74,70
177,-3794,0,189,-4691,23,-177,-78,72
178,-3796,-5,189,-4693,23,-173,-77,72
179,-3791,-5,184,-4688,23,-171,-76,70
180,-3787,-12,189,-4689,23,-171,-76,70
181,-3783,-8,179,-4689,23,-177,-77,68
182,-3782,-7,184,-4693,23,-177,-77,69
183,-3785,2,188,-4698,23,-177,-74,71
184,-3782,-5,192,-4694,23,-179,-77,71
185,-3793,-3,183,-4690,23,-178,-76,71
186,-3790,-3,185,-4698,23,-173,-77,71
187,-3788,3,193,-4691,23,-174,-79,68
188,-3792,-1,184,-4696,23,-174,-75,69
189,-3786,-1,189,-4697,23,-176,-75,69
190,-3789,-3,199,-4693,23,-174,-75,72
191,-3786,-6,198,-4694,23,-176,-77,66
192,-3786,-6,186,-4685,23,-174,-77,69
193,-3791,-4,181,-4685,23,-172,-76,68
194,-3793,-5,194,-4690,23,-174,-77,68
195,-3792,-9,188,-4692,23,-175,-76,66
196,-3789,-7,188,-4691,23,-179,-75,69
197,-3789,-4,181,-4689,23,-179,-78,70
198,-3790,-3,180,-4692,23,-172,-80,71
199,-3791,-8,177,-4689,23,-177,-72,71
200,-3785,-11,190,-4691,23,-172,-78,68
201,-3787,-7,188,-4693,23,-174,-80,65
202,-3792,0,194,-4691,23,-175,-76,68
203,-3787,-6,193,-4694,23,-174,-77,69
204,-3791,-9,192,-4695,23,-175,-75,67
205,-3790,-6,188,-4690,23,-176,-76,69
206,-3790,-9,190,-4690,23,-175,-76,71
207,-3789,-3,191,-4693,23,-173,-75,68
208,-3783,-5,187,-4689,23,-175,-76,72
209,-3788,-4,183,-4690,23,-174,-76,69
210,-3789,-4,187,-4687,23,-171,-78,69
211,-3787,-8,195,-4687,23,-172,-80,70
212,-3786,-8,190,-4686,23,-173,-76,70
213,-3795,-2,192,-4689,23,-173,-78,68
214,-3797,1,181,-4693,23,-171,-79,69
215,-3792,-1,188,-4694,23,-173,-77,68
216,-3785,-3,190,-4698,23,-174,-75,67
217,-3786,-3,190,-4694,23,-175,-76,68
218,-3786,-3,182,-4693,23,-174,-73,70
219,-3788,-2,179,-4692,23,-174,-78,70
220,-3791,-7,189,-4690,23,-172,-76,67
221,-3793,-2,184,-4690,23,-171,-78,69
222,-3795,-8,183,-4690,23,-175,-80,68
223,-3792,-8,192,-4687,23,-175,-76,68
224,-3800,0,197,-4691,23,-174,-76,71
225,-3793,-6,194,-4685,23,-172,-79,70
226,-3789,-3,190,-4690,23,-176,-77,69
227,-3788,-10,197,-4687,23,-173,-75,71
228,-3784,-8,183,-4689,23,-172,-78,71
229,-3785,-7,189,-4688,23,-172,-75,71
230,-3785,-4,189,-4689,23,-176,-76,70
231,-3787,1,176,-4691,23,-173,-76,69
232,-3780,4,193,-4696,23,-170,-79,72
233,-3783,-2,184,-4689,23,-170,-78,68
234,-3784,-7,177,-4688,23,-175,-78,69
235,-3790,-6,184,-4687,23,-174,-77,67
236,-3788,-3,185,-4686,23,-176,-77,69
237,-3797,-2,195,-4686,23,-176,-77,70
238,-3791,-2,198,-4687,23,-173,-77,71
239,-3797,-7,192,-4689,23,-172,-75,70
240,-3790,-8,189,-4694,23,-175,-75,66
241,-3793,-5,192,-4687,23,-175,-76,72
242,-3786,-4,190,-4689,23,-173,-75,68
243,-3792,-5,186,-4689,23,-176,-74,71
244,-3797,-11,181,-4686,23,-174,-79,69
245,-3790,-9,191,-4689,23,-175,-76,70
246,-3784,-5,187,-4695,23,-174,-77,70
247,-3785,-9,195,-4693,23,-176,-76,69
248,-3779,-8,189,-4691,23,-174,-79,70
249,-3788,-8,194,-4693,23,-175,-78,71
250,-3790,-4,181,-4693,23,-173,-80,71
251,-3789,-2,190,-4688,23,-173,-78,70
252,-3790,-2,192,-4694,23,-173,-73,68
253,-3785,-3,188,-4696,23,-169,-77,67
254,-3794,4,197,-4691,23,-172,-73,68
255,-3797,-2,195,-4691,23,-173,-78,68
256,-3794,-6,191,-4693,23,-171,-74,69
257,-3787,-6,181,-4690,23,-173,-74,72
258,-3793,-4,184,-4688,23,-172,-74,73
259,-3785,-7,187,-4688,23,-174,-76,69
260,-3786,-10,187,-4686,23,-175,-75,69
261,-3781,-9,191,-4684,23,-171,-78,68
262,-3789,0,189,-4690,23,-171,-74,68
263,-3787,-7,191,-4697,23,-175,-77,74
264,-3796,-5,190,-4693,23,-176,-74,69
265,-3794,-4,194,-4692,23,-172,-75,67
266,-3791,0,186,-4694,23,-176,-76,68
267,-3790,-7,192,-4689,23,-172,-77,70
268,-3788,-5,184,-4697,23,-169,-75,68
269,-3790,0,192,-4694,23,-170,-77,70
270,-3786,-5,187,-4692,23,-172,-76,72
271,-3780,-6,179,-4688,23,-176,-79,71
272,-3787,-8,187,-4689,23,-175,-79,72
273,-3785,-1,187,-4697,23,-175,-78,69
274,-3782,-5,191,-4693,23,-175,-79,69
275,-3787,4,197,-4693,23,-177,-77,68
276,-3794,5,191,-4689,23,-179,-75,69
277,-3793,-3,193,-4691,23,-176,-77,72
278,-3801,-3,191,-4687,23,-173,-79,71
279,-3784,-10,190,-4686,23,-176,-80,68
280,-3787,-5,177,-4688,23,-171,-77,72
281,-3788,-8,185,-4690,23,-174,-73,71
282,-3785,-1,188,-4689,23,-174,-79,69
283,-3796,-5,178,-4693,23,-171,-76,67
284,-3793,-4,183,-4689,23,-174,-75,69
285,-3789,-8,187,-4692,23,-173,-79,70
286,-3786,0,189,-4693,23,-173,-83,66
287,-3787,-1,174,-4694,23,-174,-78,69
288,-3796,-10,180,-4693,23,-173,-75,70
289,-3787,-3,184,-4690,23,-172,-80,76
290,-3787,-6,195,-4694,23,-174,-79,73
291,-3785,-8,185,-4688,23,-176,-81,71
292,-3791,-7,191,-4690,23,-177,-78,70
293,-3795,-5,182,-4693,23,-173,-77,68
294,-3796,-4,192,-4690,23,-172,-80,69
295,-3790,3,195,-4692,23,-169,-78,68
296,-3786,-4,184,-4689,23,-173,-78,65
297,-3778,4,179,-4686,23,-176,-76,66
298,-3789,-10,180,-4684,23,-175,-76,69
299,-3783,-16,184,-4683,23,-178,-78,73
300,-3788,-14,193,-4691,23,-177,-79,70
301,-3785,-2,184,-4695,23,-176,-75,70
302,-3788,-2,189,-4690,23,-172,-79,70
303,-3786,-3,182,-4688,23,-171,-77,69
304,-3788,-6,178,-4688,23,-170,-77,69
305,-3791,-3,186,-4691,23,-172,-77,71
306,-3782,-5,189,-4686,23,-175,-79,76
307,-3784,-2,197,-4687,23,-177,-78,73
308,-3793,-6,188,-4695,23,-175,-75,72
309,-3790,3,192,-4696,23,-174,-69,72
310,-3789,-3,187,-4692,23,-174,-73,66
311,-3785,-4,191,-4691,23,-176,-72,68
312,-3782,-9,192,-4691,23,-174,-74,67
313,-3781,-10,175,-4690,23,-177,-75,73
314,-3790,-8,191,-4689,23,-178,-77,71
315,-3787,-6,194,-4692,23,-174,-75,73
316,-3795,0,188,-4693,23,-177,-78,73
317,-3791,-1,191,-4693,23,-174,-78,70
318,-3788,1,182,-4692,23,-172,-75,70
319,-3796,2,192,-4692,23,-176,-79,71
320,-3787,-5,190,-4687,23,-177,-76,71
321,-3789,-4,191,-4686,23,-174,-80,68
322,-3786,-2,190,-4690,23,-171,-74,68
323,-3793,-3,182,-4691,23,-174,-75,69
324,-3794,0,183,-4693,23,-177,-76,68
325,-3795,-3,185,-4689,23,-176,-75,67
326,-3794,-5,197,-4689,23,-174,-77,70
327,-3788,-8,193,-4691,23,-173,-77,69
328,-3791,-9,198,-4688,23,-174,-76,69
329,-3782,2,191,-4686,23,-174,-75,70
330,-3793,-2,179,-4685,23,-172,-76,71
331,-3784,-6,187,-4693,23,-175,-75,73
332,-3788,-4,185,-4693,23,-175,-75,70
333,-3786,-5,181,-4693,23,-169,-78,69
334,-3787,-4,173,-4695,23,-173,-75,66
335,-3787,1,182,-4690,23,-175,-77,70
336,-3786,-9,192,-4692,23,-175,-74,69
337,-3792,-7,191,-4691,23,-175,-73,72
338,-3795,-8,191,-4690,23,-174,-79,70
339,-3793,-6,196,-4688,23,-174,-76,70
340,-3786,-1,199,-4691,23,-176,-77,70
341,-3787,-5,188,-4691,23,-173,-80,69
342,-3785,-7,193,-4687,23,-173,-78,70
343,-3801,-10,188,-4695,23,-176,-79,71
344,-3794,-8,176,-4694,23,-176,-79,71
345,-3795,-2,174,-4688,23,-175,-76,70
346,-3790,-6,195,-4690,23,-173,-75,70
347,-3790,-7,188,-4690,23,-174,-79,67
348,-3788,3,185,-4691,23,-174,-77,73
349,-3789,-5,188,-4685,23,-175,-76,72
350,-3785,-8,191,-4686,23,-172,-76,71
351,-3785,-3,184,-4687,23,-172,-73,69
352,-3792,-5,195,-4687,23,-173,-76,71
353,-3792,-4,196,-4687,23,-174,-77,71
354,-3782,-2,196,-4685,23,-174,-76,70
355,-3784,-7,196,-4687,23,-172,-77,70
356,-3791,1,191,-4687,23,-174,-76,67
357,-3786,-3,185,-4684,23,-172,-76,69
358,-3794,-6,176,-4681,23,-172,-78,69
359,-3796,-4,175,-4686,23,-174,-77,69
360,-3786,-9,183,-4687,23,-173,-70,68
361,-3793,-14,198,-4688,23,-174,-78,70
362,-3795,-9,184,-4689,23,-174,-75,69
363,-3790,7,184,-4688,23,-177,-74,69
364,-3785,2,184,-4691,23,-175,-78,70
365,-3786,0,182,-4688,23,-176,-77,70
366,-3788,-5,180,-4686,23,-174,-76,69
367,-3789,-3,185,-4685,23,-172,-78,72
368,-3784,-4,188,-4685,23,-176,-77,70
369,-3784,-4,183,-4685,23,-174,-73,70
370,-3789,2,191,-4687,23,-173,-74,68
371,-3788,1,191,-4685,23,-173,-74,68
372,-3787,-4,178,-4686,23,-173,-76,71
373,-3785,-1,176,-4688,23,-172,-77,71
374,-3788,-9,184,-4689,23,-175,-73,70
375,-3780,-8,192,-4688,23,-175,-76,70
376,-3783,-1,197,-4687,23,-174,-77,70
377,-3790,-3,183,-4688,23,-173,-76,71
378,-3797,4,185,-4690,23,-176,-77,70
379,-3790,-8,190,-4688,23,-176,-78,67
380,-3780,-6,182,-4685,23,-173,-79,70
381,-3779,-1,189,-4688,23,-173,-78,70
382,-3787,-4,190,-4683,23,-173,-79,71
383,-3787,-10,188,-4685,23,-171,-76,68
384,-3792,-6,180,-4690,23,-172,-76,70
385,-3791,-10,187,-4687,23,-175,-81,71
386,-3789,-4,189,-4686,23,-175,-80,65
387,-3789,0,186,-4687,23,-173,-77,66
388,-3781,-3,195,-4691,23,-173,-75,67
389,-3795,-3,190,-4694,23,-171,-73,70
390,-3789,-1,196,-4687,23,-175,-79,71
391,-3784,4,192,-4688,23,-178,-79,73
392,-3787,-3,190,-4686,23,-173,-80,75
393,-3779,-5,186,-4683,23,-176,-76,71
394,-3791,-11,190,-4685,23,-177,-74,68
395,-3791,-3,188,-4685,23,-175,-75,70
396,-3787,1,196,-4687,23,-175,-76,72
397,-3785,-2,202,-4683,23,-171,-76,72
398,-3780,0,194,-4682,23,-172,-75,69
399,-3788,0,180,-4687,23,-171,-78,69
400,-3787,-1,189,-4687,23,-176,-75,71
401,-3790,-9,187,-4682,23,-174,-75,70
402,-3785,-2,181,-4686,23,-172,-75,71
403,-3793,-8,180,-4688,23,-172,-76,70
404,-3788,-4,178,-4688,23,-173,-74,71
405,-3798,-4,190,-4691,23,-173,-77,71
406,-3795,-3,182,-4691,23,-175,-76,71
407,-3786,-15,188,-4694,23,-174,-75,72
408,-3790,-10,192,-4695,23,-176,-74,72
409,-3795,-6,193,-4690,23,-173,-76,72
410,-3797,-11,194,-4688,23,-175,-81,73
411,-3786,-9,190,-4690,23,-173,-79,72
412,-3789,2,192,-4688,23,-176,-81,71
413,-3791,-7,186,-4687,23,-171,-79,69
414,-3791,0,186,-4683,23,-171,-72,67
415,-3790,-7,188,-4681,23,-169,-73,67
416,-3789,-7,178,-4687,23,-174,-75,66
417,-3782,-8,183,-4687,23,-170,-78,66
418,-3791,1,189,-4687,23,-175,-72,68
419,-3790,4,182,-4689,23,-174,-75,69
420,-3780,-7,189,-4693,23,-172,-77,70
421,-3789,-6,192,-4694,23,-172,-75,71
422,-3785,-7,184,-4692,23,-172,-77,68
423,-3794,-8,181,-4692,23,-172,-78,70
424,-3791,-2,192,-4694,23,-171,-75,69
425,-3783,-4,190,-4689,23,-174,-74,71
426,-3781,-8,187,-4685,23,-174,-77,72
427,-3783,-5,193,-4694,23,-172,-77,70
428,-3777,-2,191,-4690,23,-173,-78,70
429,-3786,-5,183,-4686,23,-173,-79,69
430,-3789,-4,185,-4690,23,-176,-77,67
431,-3794,-3,188,-4687,23,-174,-77,68
432,-3784,-5,186,-4687,23,-173,-80,68
433,-3785,-9,188,-4686,23,-171,-77,69
434,-3783,-8,191,-4687,23,-172,-76,69
435,-3793,0,192,-4682,23,-172,-75,71
436,-3786,-4,193,-4682,23,-171,-76,73
437,-3788,-3,198,-4687,23,-175,-77,69
438,-3780,-3,195,-4688,23,-174,-77,67
439,-3785,-1,196,-4691,23,-172,-74,71
440,-3786,3,184,-4688,23,-176,-75,70
441,-3781,4,188,-4686,23,-176,-76,71
442,-3790,1,185,-4685,23,-176,-78,68
443,-3793,5,183,-4690,23,-173,-77,67
444,-3778,-1,185,-4686,23,-171,-77,70
445,-3788,-1,177,-4693,23,-174,-77,71
446,-3790,-3,187,-4690,23,-176,-76,72
447,-3787,0,194,-4687,23,-176,-77,67
448,-3782,-2,201,-4689,23,-176,-75,67
449,-3782,-3,191,-4687,23,-174,-75,71
450,-3785,-9,192,-4687,23,-173,-76,73
451,-3789,-1,179,-4688,23,-176,-77,69
452,-3796,4,174,-4684,23,-173,-76,72
453,-3787,0,185,-4693,23,-172,-77,71
454,-3785,-6,188,-4691,23,-172,-77,70
455,-3794,-13,181,-4685,23,-176,-79,69
456,-3792,-17,189,-4683,23,-174,-78,68
457,-3800,-10,187,-4690,23,-174,-77,69
458,-3798,-3,182,-4688,23,-175,-76,70
459,-3790,-5,186,-4690,23,-172,-79,68
460,-3787,2,185,-4696,23,-175,-78,69
461,-3790,-8,178,-4686,23,-174,-79,69
462,-3787,-8,185,-4685,23,-174,-76,72
463,-3794,-7,187,-4682,23,-177,-76,72
464,-3790,-5,187,-4681,23,-175,-74,71
465,-3782,-4,187,-4691,23,-171,-78,70
466,-3789,-6,195,-4692,23,-173,-77,68
467,-3791,-3,181,-4687,23,-173,-76,67
468,-3792,-6,174,-4684,23,-174,-74,70
469,-3789,-1,188,-4685,23,-180,-77,72
470,-3787,-1,186,-4681,23,-178,-78,69
471,-3791,-5,182,-4682,23,-174,-78,68
472,-3782,-4,174,-4686,23,-170,-77,70
473,-3784,-10,170,-4684,23,-174,-76,70
474,-3788,-13,181,-4687,23,-177,-78,69
475,-3792,-11,184,-4683,23,-174,-77,70
476,-3788,-3,184,-4691,23,-175,-78,71
477,-3797,-12,184,-4690,23,-176,-80,71
478,-3794,-3,186,-4690,23,-175,-76,72
479,-3788,-2,179,-4689,23,-176,-77,71
480,-3791,0,189,-4692,23,-171,-75,70
481,-3786,1,179,-4693,23,-173,-78,69
482,-3791,1,182,-4694,23,-172,-78,70
483,-3795,-5,186,-4693,23,-175,-76,69
484,-3793,-8,195,-4690,23,-176,-76,73
485,-3788,-6,184,-4688,23,-175,-76,71
486,-3787,-9,190,-4687,23,-177,-77,72
487,-3786,-6,197,-4693,23,-176,-76,71
488,-3791,-8,196,-4688,23,-175,-74,70
489,-3792,-4,188,-4687,23,-174,-73,72
490,-3787,-7,191,-4686,23,-171,-75,68
491,-3799,-11,188,-4682,23,-173,-74,67
492,-3784,-2,193,-4688,23,-170,-72,69
493,-3781,-11,192,-4683,23,-172,-76,69
494,-3784,1,183,-4681,23,-172,-75,70
495,-3790,5,175,-4684,23,-172,-76,69
496,-3784,-4,201,-4689,23,-172,-74,70
497,-3784,3,195,-4688,23,-173,-74,70
498,-3783,1,193,-4682,23,-171,-77,70
499,-3790,-7,190,-4687,23,-174,-80,72
500,-3790,-8,200,-4689,23,-174,-76,71
501,-3784,-7,178,-4687,23,-175,-75,71
502,-3792,-6,177,-4688,23,-176,-79,72
503,-3790,1,180,-4685,23,-174,-80,67
504,-3787,-5,194,-4681,23,-173,-75,71
505,-3787,-9,187,-4685,23,-174,-76,69
506,-3791,-3,190,-4684,23,-176,-76,69
507,-3791,-10,176,-4687,23,-175,-75,71
508,-3786,-9,178,-4691,23,-174,-76,67
509,-3788,-8,192,-4683,23,-175,-72,72
510,-3781,-2,196,-4682,23,-174,-76,72
511,-3791,-4,189,-4686,23,-172,-77,71
512,-3784,-5,195,-4683,23,-174,-80,67
513,-3788,-4,186,-4686,23,-174,-79,69
514,-3786,1,184,-4692,23,-176,-76,65
515,-3790,-6,184,-4688,23,-172,-77,64
516,-3784,-5,178,-4684,23,-174,-77,67
517,-3790,-2,179,-4688,23,-171,-74,69
518,-3790,-6,187,-4687,23,-173,-77,70
519,-3792,-7,188,-4689,23,-175,-78,66
520,-3790,0,188,-4692,23,-173,-77,69
521,-3793,-3,178,-4689,23,-172,-76,69
522,-3790,2,185,-4694,23,-173,-78,68
523,-3784,3,185,-4690,23,-175,-76,70
524,-3791,-6,190,-4690,23,-174,-77,70
525,-3787,-1,187,-4689,23,-175,-78,71
526,-3786,-1,188,-4692,23,-176,-74,70
527,-3781,-5,187,-4693,23,-175,-76,69
528,-3785,0,181,-4687,23,-175,-76,70
529,-3791,-2,188,-4684,23,-174,-77,71
530,-3787,-5,194,-4687,23,-174,-78,70
531,-3790,-10,194,-4686,23,-176,-75,69
532,-3793,-4,191,-4692,23,-173,-74,68
533,-3790,-7,188,-4690,23,-176,-77,66
534,-3794,-9,183,-4686,23,-177,-78,70
535,-3791,0,183,-4684,23,-173,-74,68
536,-3788,-4,184,-4689,23,-172,-72,70
537,-3788,-11,187,-4689,23,-171,-77,69
538,-3787,-15,182,-4688,23,-171,-77,70
539,-3788,-6,180,-4688,23,-175,-77,70
540,-3785,-15,191,-4679,23,-174,-81,77
541,-3788,-13,191,-4683,23,-175,-80,72
542,-3791,-9,189,-4679,23,-179,-78,71
543,-3788,-6,187,-4687,23,-177,-77,69
544,-3792,2,192,-4690,23,-175,-80,68
545,-3787,-1,181,-4687,23,-174,-76,72
546,-3792,-4,179,-4682,23,-171,-78,71
547,-3786,-6,169,-4684,23,-173,-75,72
548,-3787,4,185,-4680,23,-172,-75,69
549,-3790,-4,191,-4685,23,-173,-74,70
550,-3786,-9,193,-4686,23,-175,-73,69
551,-3796,-6,183,-4687,23,-176,-75,72
552,-3783,0,188,-4692,23,-174,-78,71
553,-3788,-8,188,-4690,23,-177,-75,71
554,-3788,-5,198,-4688,23,-173,-78,69
555,-3782,2,198,-4690,23,-173,-78,72
556,-3789,-2,191,-4690,23,-172,-78,71
557,-3795,-1,187,-4687,23,-173,-78,74
558,-3792,-12,179,-4689,23,-175,-78,70
559,-3785,-5,188,-4687,23,-175,-80,71
560,-3781,-2,185,-4684,23,-174,-75,73
561,-3788,-1,181,-4684,23,-173,-77,69
562,-3791,-5,200,-4685,23,-172,-75,68
563,-3787,0,190,-4685,23,-173,-75,67
564,-3789,3,188,-4689,23,-173,-78,67
565,-3790,5,176,-4695,23,-173,-80,69
566,-3789,5,183,-4689,23,-174,-76,70
567,-3778,-3,191,-4688,23,-171,-77,71
568,-3785,-11,189,-4686,23,-174,-76,68
569,-3785,-7,194,-4685,23,-172,-77,68
570,-3780,-9,181,-4686,23,-176,-78,68
571,-3783,-4,183,-4687,23,-175,-74,68
572,-3781,-5,190,-4686,23,-173,-73,69
573,-3783,-3,193,-4688,23,-172,-77,70
574,-3785,-5,172,-4688,23,-171,-79,69
575,-3784,-10,180,-4688,23,-176,-74,71
576,-3787,-16,177,-4683,23,-175,-74,70
577,-3788,-8,179,-4686,23,-171,-77,69
578,-3790,-4,191,-4686,23,-171,-76,70
579,-3788,1,189,-4690,23,-173,-76,68
580,-3786,1,190,-4685,23,-173,-75,67
581,-3784,0,201,-4689,23,-170,-75,71
582,-3785,-9,198,-4684,23,-172,-70,73
583,-3782,-4,193,-4687,23,-175,-71,69
584,-3787,-2,200,-4688,23,-175,-78,70
585,-3791,2,183,-4686,23,-176,-73,70
586,-3796,-9,187,-4691,23,-174,-73,67
587,-3794,-14,185,-4689,23,-172,-71,69
588,-3788,-5,197,-4682,23,-174,-74,68
589,-3782,-1,198,-4678,23,-176,-74,70
590,-3790,-7,203,-4682,23,-174,-75,71
591,-3796,-4,197,-4682,23,-176,-74,71
592,-3787,-6,184,-4682,23,-173,-75,71
593,-3781,-7,192,-4688,23,-174,-76,71
594,-3789,-8,197,-4683,23,-172,-77,68
595,-3786,-10,185,-4686,23,-173,-80,72
596,-3787,-8,188,-4679,23,-173,-77,71
597,-3779,0,185,-4681,23,-171,-77,71
598,-3792,-3,186,-4679,23,-172,-79,68
599,-3791,-7,187,-4683,23,-174,-74,69
600,-3789,-5,184,-4683,23,-176,-74,67
601,-3786,-2,183,-4686,23,-175,-75,71
602,-3787,-5,186,-4682,23,-173,-79,68
603,-3789,-7,178,-4684,23,-174,-77,68
604,-3787,-11,184,-4681,23,-173,-77,69
605,-3790,-9,187,-4678,23,-174,-80,71
606,-3795,-11,188,-4685,23,-173,-76,71
607,-3791,-8,186,-4686,23,-177,-81,75
608,-3794,-10,188,-4686,23,-177,-78,72
609,-3801,-10,186,-4687,23,-175,-76,67
610,-3786,-6,193,-4688,23,-173,-73,66
611,-3781,-3,192,-4684,23,-173,-77,67
612,-3793,1,193,-4685,23,-176,-78,66
613,-3788,1,184,-4683,23,-175,-76,65
614,-3790,-2,186,-4686,23,-171,-74,68
615,-3780,3,182,-4686,23,-171,-73,70
616,-3792,8,186,-4686,23,-173,-77,69
617,-3790,-2,178,-4684,23,-174,-76,69
618,-3784,-1,185,-4683,23,-171,-75,69
619,-3787,-5,194,-4684,23,-177,-77,67
620,-3788,-3,186,-4683,23,-175,-78,70
621,-3788,3,191,-4684,23,-177,-79,71
622,-3787,-4,182,-4683,23,-176,-75,68
623,-3793,-2,182,-4679,23,-171,-76,68
624,-3795,-6,187,-4679,23,-173,-77,71
625,-3798,-11,194,-4683,23,-174,-74,69
626,-3789,-4,191,-4684,23,-172,-73,72
627,-3792,-4,198,-4684,23,-174,-75,70
628,-3788,-6,190,-4689,23,-174,-76,68
629,-3789,-2,195,-4684,23,-172,-77,70
630,-3785,-7,179,-4678,23,-171,-78,67
631,-3782,-3,182,-4682,23,-173,-78,71
632,-3791,-2,191,-4688,23,-176,-78,73
633,-3792,-3,189,-4681,23,-175,-76,71
634,-3791,-1,188,-4680,23,-175,-77,69
635,-3796,-1,179,-4680,23,-175,-76,68
636,-3800,2,175,-4681,23,-175,-79,71
637,-3795,8,180,-4682,23,-176,-78,72
638,-3790,2,185,-4686,23,-175,-76,72
639,-3787,-7,194,-4688,23,-179,-73,69
640,-3785,-8,188,-4688,23,-179,-77,67
641,-3792,-1,187,-4688,23,-176,-78,68
642,-3794,-3,189,-4684,23,-177,-76,68
643,-3789,-6,184,-4686,23,-175,-79,70
644,-3789,-8,189,-4681,23,-176,-80,71
645,-3790,-11,193,-4686,23,-175,-75,70
646,-3796,-2,174,-4683,23,-178,-78,71
647,-3792,1,175,-4686,23,-175,-77,69
648,-3795,0,194,-4682,23,-172,-76,68
649,-3788,-2,184,-4680,23,-174,-75,70
650,-3792,-3,188,-4682,23,-173,-76,70
651,-3792,-1,184,-4680,23,-174,-77,68
652,-3792,-14,185,-4682,23,-175,-77,68
653,-3788,-17,185,-4681,23,-176,-73,69
654,-3794,-11,185,-4679,23,-173,-74,69
655,-3800,-10,187,-4680,23,-170,-75,71
656,-3795,-10,182,-4687,23,-173,-77,68
657,-3785,-7,189,-4687,23,-173,-75,70
658,-3787,-6,194,-4683,23,-176,-78,69
659,-3789,0,195,-4688,23,-176,-76,70
660,-3785,-4,187,-4687,23,-176,-77,71
661,-3784,-14,176,-4684,23,-173,-77,72
662,-3788,-13,178,-4682,23,-176,-75,71
663,-3788,-11,191,-4678,23,-172,-76,67
664,-3787,-5,188,-4679,23,-171,-80,69
665,-3789,0,191,-4683,23,-173,-82,69
666,-3789,-4,191,-4681,23,-170,-80,68
667,-3785,-9,191,-4679,23,-174,-75,72
668,-3785,-7,185,-4681,23,-173,-78,71
669,-3787,0,193,-4681,23,-174,-79,68
670,-3791,-4,174,-4678,23,-175,-78,73
671,-3786,-10,175,-4677,23,-174,-79,73
672,-3782,6,180,-4681,23,-177,-72,74
673,-3790,0,204,-4679,23,-175,-76,69
674,-3793,-9,192,-4677,23,-173,-77,71
675,-3781,-9,192,-4679,23,-174,-78,70
676,-3792,3,189,-4684,23,-174,-76,72
677,-3784,1,179,-4680,23,-171,-73,71
678,-3787,-1,186,-4682,23,-172,-74,68
679,-3792,-6,192,-4683,23,-171,-77,73
680,-3787,4,191,-4684,23,-173,-74,72
681,-3792,4,203,-4687,23,-172,-72,70
682,-3789,-1,186,-4687,23,-173,-75,70
683,-3781,-2,189,-4682,23,-176,-75,68
684,-3785,-8,183,-4684,23,-175,-77,68
685,-3786,-3,178,-4681,23,-173,-78,70
686,-3787,-6,195,-4674,23,-172,-79,70
687,-3788,-4,197,-4681,23,-170,-79,70
688,-3784,-12,184,-4682,23,-175,-76,70
689,-3788,2,186,-4682,23,-174,-78,70
690,-3789,-4,189,-4682,23,-174,-77,70
691,-3795,1,189,-4679,23,-177,-77,71
692,-3792,0,188,-4685,23,-176,-77,70
693,-3791,-8,187,-4687,23,-174,-80,71
694,-3782,1,180,-4684,23,-174,-78,69
695,-3783,-2,187,-4687,23,-175,-81,70
696,-3784,-8,199,-4683,23,-173,-75,68
697,-3788,-1,191,-4682,23,-174,-74,69
698,-3793,1,198,-4680,23,-173,-73,68
699,-3790,0,178,-4681,23,-174,-77,71
700,-3788,-7,183,-4685,23,-176,-76,69
701,-3786,-4,179,-4679,23,-173,-77,72
702,-3785,-9,185,-4681,23,-177,-76,70
703,-3788,0,182,-4677,23,-176,-74,69
704,-3784,-1,180,-4678,23,-177,-71,67
705,-3794,-1,184,-4680,23,-176,-76,66
706,-3794,-4,192,-4680,23,-174,-79,66
707,-3785,-7,186,-4684,23,-175,-76,67
708,-3790,-8,186,-4685,23,-175,-77,71
709,-3789,-13,191,-4683,23,-175,-79,71
710,-3785,-16,173,-4677,23,-174,-76,69
711,-3785,-12,181,-4681,23,-174,-75,69
712,-3784,-7,193,-4682,23,-177,-75,67
713,-3783,-10,185,-4684,23,-176,-75,70
714,-3778,-2,178,-4684,23,-172,-75,68
715,-3780,-1,191,-4683,23,-173,-76,71
716,-3783,-4,212,-4675,23,-173,-76,67
717,-3790,-4,201,-4684,23,-176,-78,69
718,-3789,-4,198,-4684,23,-173,-77,70
719,-3789,-8,196,-4681,23,-178,-76,72
720,-3789,-2,178,-4684,23,-174,-77,67
721,-3781,-6,186,-4679,23,-175,-77,70
722,-3785,-6,187,-4683,23,-173,-78,71
723,-3792,-2,186,-4685,23,-171,-80,70
724,-3794,-9,192,-4684,23,-173,-74,68
725,-3797,-14,185,-4678,23,-174,-78,71
726,-3799,-4,179,-4682,23,-170,-77,74
727,-3794,4,186,-4684,23,-168,-75,70
728,-3787,-1,191,-4681,23,-172,-78,67
729,-3792,1,185,-4682,23,-174,-79,70
730,-3791,0,183,-4679,23,-174,-77,69
731,-3786,-3,188,-4678,23,-175,-76,69
732,-3789,-5,188,-4677,23,-174,-81,69
733,-3789,-1,189,-4681,23,-175,-79,68
734,-3787,4,187,-4683,23,-174,-76,71
735,-3792,-8,181,-4682,23,-175,-79,68
736,-3788,-4,193,-4678,23,-179,-79,67
737,-3792,0,193,-4684,23,-176,-77,66
738,-3790,-4,194,-4684,23,-176,-80,70
739,-3791,-5,190,-4682,23,-174,-80,73
740,-3795,-6,193,-4679,23,-170,-80,70
741,-3795,-10,193,-4682,23,-177,-77,72
742,-3798,-7,177,-4684,23,-177,-78,69
743,-3791,-10,190,-4688,23,-175,-74,69
744,-3793,-4,188,-4687,23,-174,-74,72
745,-3787,1,194,-4685,23,-173,-78,70
746,-3793,-6,191,-4686,23,-176,-76,72
747,-3785,-2,192,-4676,23,-174,-78,72
748,-3793,-9,190,-4681,23,-176,-76,70
749,-3796,-8,181,-4681,23,-179,-78,70
750,-3794,-9,199,-4686,23,-177,-78,70
751,-3788,-7,196,-4683,23,-174,-79,69
752,-3784,-6,188,-4681,23,-173,-76,70
753,-3786,-7,184,-4678,23,-175,-75,67
754,-3794,-6,185,-4681,23,-173,-74,69
755,-3791,-7,182,-4677,23,-176,-75,69
756,-3791,-2,180,-4685,23,-175,-76,70
757,-3786,-1,188,-4686,23,-175,-79,68
758,-3791,-3,182,-4691,23,-173,-76,69
759,-3787,-5,190,-4684,23,-176,-78,70
760,-3784,-2,194,-4687,23,-178,-75,71
761,-3788,1,189,-4681,23,-174,-80,69
762,-3793,-5,188,-4677,23,-172,-80,68
763,-3792,-2,192,-4682,23,-174,-77,69
764,-3789,-1,198,-4677,23,-177,-74,69
765,-3784,4,191,-4678,23,-171,-74,70
766,-3780,3,200,-4678,23,-172,-75,68
767,-3790,-1,195,-4677,23,-169,-75,67
768,-3785,-3,194,-4677,23,-175,-77,72
769,-3787,-1,190,-4683,23,-175,-79,70
770,-3794,-2,185,-4682,23,-173,-79,67
771,-3796,3,180,-4684,23,-172,-75,67
772,-3791,0,181,-4691,23,-173,-76,71
773,-3788,-7,176,-4686,23,-171,-73,70
774,-3791,5,183,-4687,23,-172,-77,71
775,-3790,0,177,-4679,23,-170,-77,71
776,-3789,-2,182,-4680,23,-170,-76,70
777,-3794,-2,192,-4682,23,-171,-75,70
778,-3784,-7,186,-4686,23,-174,-75,70
779,-3786,-8,186,-4681,23,-177,-78,70
780,-3792,-2,194,-4679,23,-178,-76,68
781,-3788,-1,182,-4681,23,-177,-74,68
782,-3789,4,189,-4681,23,-174,-78,69
783,-3793,2,181,-4678,23,-175,-78,70
784,-3792,-4,199,-4684,23,-177,-78,71
785,-3797,-4,194,-4685,23,-175,-75,71
786,-3797,-4,183,-4678,23,-170,-75,68
787,-3786,-4,190,-4679,23,-178,-77,69
788,-3783,-4,195,-4677,23,-174,-81,70
789,-3785,-8,192,-4675,23,-170,-75,70
790,-3790,-5,195,-4679,23,-173,-74,73
791,-3791,-5,193,-4678,23,-175,-73,71
792,-3796,-4,191,-4681,23,-171,-75,70
793,-3785,-4,193,-4681,23,-174,-74,69
794,-3781,-10,187,-4680,23,-174,-76,69
795,-3789,-4,193,-4681,23,-175,-76,68
796,-3792,1,191,-4679,23,-176,-77,70
797,-3788,4,182,-4678,23,-175,-76,70
798,-3784,-2,192,-4681,23,-174,-76,71
799,-3782,2,195,-4683,23,-175,-75,70
800,-3786,2,197,-4680,23,-173,-76,70
801,-3786,0,186,-4677,23,-171,-76,72
802,-3787,-6,183,-4679,23,-171,-75,68
803,-3783,-10,189,-4673,23,-172,-76,66
804,-3771,-3,187,-4679,23,-174,-72,68
805,-3781,-3,187,-4683,23,-175,-78,69
806,-3790,-6,195,-4682,23,-176,-80,73
807,-3797,-1,189,-4684,23,-173,-79,72
808,-3788,7,185,-4678,23,-170,-74,71
809,-3789,2,194,-4679,23,-174,-74,68
810,-3781,-3,199,-4683,23,-173,-75,69
811,-3783,-4,179,-4684,23,-176,-76,69
812,-3785,-1,179,-4683,23,-175,-77,66
813,-3789,-2,171,-4684,23,-173,-77,70
814,-3792,1,181,-4675,23,-175,-77,69
815,-3791,1,181,-4679,23,-178,-75,71
816,-3792,-2,178,-4683,23,-173,-81,69
817,-3790,-4,190,-4680,23,-174,-79,70
818,-3789,-7,184,-4684,23,-173,-79,72
819,-3797,2,181,-4684,23,-172,-78,69
820,-3797,2,182,-4684,23,-176,-72,68
821,-3796,-8,190,-4686,23,-172,-72,69
822,-3791,-8,197,-4679,23,-174,-79,71
823,-3793,0,197,-4679,23,-174,-73,73
824,-3787,-1,200,-4678,23,-175,-79,72
825,-3787,4,192,-4686,23,-174,-78,68
826,-3781,-2,193,-4683,23,-173,-77,67
827,-3786,-1,191,-4683,23,-177,-76,72
828,-3792,-8,190,-4685,23,-175,-75,70
829,-3794,-10,185,-4681,23,-174,-76,69
830,-3795,-4,193,-4687,23,-175,-73,65
831,-3794,-3,191,-4679,23,-172,-76,67
832,-3796,-5,197,-4681,23,-175,-77,70
833,-3803,-4,191,-4677,23,-173,-75,67
834,-3801,0,184,-4683,23,-176,-72,69
835,-3790,2,191,-4681,23,-175,-76,70
836,-3788,0,191,-4683,23,-178,-76,71
837,-3783,-8,192,-4684,23,-174,-74,72
838,-3785,0,194,-4683,23,-174,-76,68
839,-3782,-8,196,-4680,23,-175,-75,68
840,-3786,4,207,-4675,23,-176,-78,69
841,-3793,-7,185,-4672,23,-171,-73,70
842,-3789,-12,187,-4681,23,-173,-75,70
843,-3800,-7,185,-4681,23,-174,-75,73
844,-3789,-4,187,-4682,23,-172,-77,72
845,-3787,-13,184,-4685,23,-178,-78,72
846,-3792,-8,186,-4680,23,-178,-78,68
847,-3788,-6,191,-4678,23,-175,-77,66
848,-3790,-1,199,-4679,23,-174,-75,68
849,-3784,3,197,-4677,23,-173,-77,69
850,-3789,-6,192,-4679,23,-173,-76,70
851,-3789,-11,178,-4678,23,-171,-75,72
852,-3792,-12,188,-4678,23,-173,-74,72
853,-3795,-3,178,-4679,23,-170,-76,70
854,-3792,-4,179,-4679,23,-172,-74,72
855,-3786,1,184,-4680,23,-175,-76,69
856,-3791,-2,190,-4679,23,-174,-81,69
857,-3792,-4,186,-4675,23,-176,-80,70
858,-3794,3,186,-4672,23,-177,-83,69
859,-3797,-5,193,-4677,23,-176,-79,68
860,-3802,-1,181,-4677,23,-175,-75,72
861,-3794,6,192,-4681,23,-174,-72,69
862,-3802,-6,186,-4677,23,-171,-74,67
863,-3795,-8,181,-4680,23,-173,-75,67
864,-3793,-1,185,-4681,23,-174,-77,68
865,-3789,1,197,-4679,23,-175,-75,68
866,-3788,-3,193,-4674,23,-177,-77,71
867,-3793,-5,182,-4676,23,-172,-72,70
868,-3789,2,176,-4680,23,-171,-73,72
869,-3785,-1,181,-4675,23,-171,-79,71
870,-3795,-4,179,-4679,23,-177,-73,69
871,-3800,1,173,-4684,23,-176,-75,69
872,-3796,-7,186,-4682,23,-174,-75,72
873,-3795,1,177,-4677,23,-175,-73,71
874,-3785,-2,175,-4677,23,-175,-73,71
875,-3785,-8,174,-4677,23,-170,-75,70
876,-3788,-8,178,-4678,23,-175,-76,71
877,-3787,2,188,-4675,23,-174,-78,70
878,-3791,-2,197,-4676,23,-173,-74,71
879,-3787,-10,193,-4680,23,-173,-77,70
880,-3786,-8,185,-4679,23,-172,-76,71
881,-3792,-5,186,-4679,23,-175,-77,69
882,-3783,-13,187,-4676,23,-176,-71,70
883,-3786,-3,185,-4677,23,-174,-75,72
884,-3788,-6,194,-4678,23,-175,-80,70
885,-3788,-4,202,-4682,23,-172,-80,71
886,-3785,-3,196,-4678,23,-173,-84,70
887,-3793,-5,209,-4678,23,-172,-79,69
888,-3786,-2,194,-4677,23,-173,-79,68
889,-3782,-9,191,-4675,23,-175,-78,67
890,-3790,-7,184,-4677,23,-174,-75,68
891,-3791,-7,177,-4680,23,-173,-77,69
892,-3791,4,191,-4680,23,-174,-72,68
893,-3792,-4,182,-4678,23,-175,-76,69
894,-3787,5,182,-4678,23,-174,-79,73
895,-3785,-5,196,-4680,23,-172,-78,71
896,-3785,-5,193,-4677,23,-171,-79,71
897,-3787,1,184,-4679,23,-176,-75,71
898,-3788,-4,177,-4678,23,-177,-74,69
899,-3783,0,186,-4681,23,-177,-75,69
900,-3785,-6,197,-4675,23,-175,-78,70
901,-3789,-5,190,-4676,23,-172,-76,73
902,-3788,-1,193,-4676,23,-173,-76,70
903,-3785,-6,184,-4679,23,-172,-74,70
904,-3790,-5,187,-4678,23,-174,-77,69
905,-3787,-7,187,-4680,23,-174,-77,67
906,-3789,-8,175,-4681,23,-173,-75,70
907,-3785,-4,194,-4677,23,-174,-73,68
908,-3783,-9,181,-4676,23,-172,-74,70
909,-3793,-9,193,-4676,23,-171,-77,69
910,-3786,0,179,-4671,23,-177,-80,72
911,-3786,-8,179,-4674,23,-177,-82,72
912,-3789,-13,182,-4679,23,-177,-79,71
913,-3793,-5,172,-4678,23,-176,-79,70
914,-3794,-4,185,-4681,23,-175,-81,68
915,-3793,-6,182,-4683,23,-171,-77,71
916,-3797,-2,185,-4680,23,-176,-77,73
917,-3791,-8,186,-4678,23,-178,-75,70
918,-3789,-3,193,-4675,23,-172,-77,68
919,-3788,-7,178,-4677,23,-175,-76,73
920,-3786,-1,179,-4674,23,-173,-76,71
921,-3795,2,175,-4677,23,-174,-79,73
922,-3794,4,186,-4681,23,-173,-73,67
923,-3796,-2,178,-4678,23,-176,-73,66
924,-3786,1,188,-4679,23,-176,-77,71
925,-3784,-2,191,-4681,23,-177,-74,68
926,-3785,-5,179,-4679,23,-178,-75,68
927,-3781,0,184,-4679,23,-174,-74,67
928,-3785,0,179,-4675,23,-171,-73,66
929,-3788,-4,188,-4681,23,-173,-76,69
930,-3789,1,191,-4680,23,-171,-77,70
931,-3785,-8,184,-4680,23,-170,-78,73
932,-3789,0,193,-4684,23,-170,-76,70
933,-3794,-5,184,-4682,23,-168,-76,69
934,-3789,2,185,-4680,23,-172,-75,68
935,-3789,3,197,-4680,23,-176,-78,69
936,-3788,5,196,-4678,23,-172,-74,72
937,-3794,0,178,-4676,23,-171,-74,71
938,-3789,-1,178,-4680,23,-176,-74,73
939,-3794,-9,181,-4682,23,-175,-73,71
940,-3793,1,181,-4678,23,-173,-75,68
941,-3786,-3,181,-4677,23,-174,-77,70
942,-3789,-1,175,-4680,23,-174,-76,70
943,-3784,-4,186,-4678,23,-177,-77,71
944,-3788,-5,191,-4677,23,-176,-78,69
945,-3789,-10,187,-4674,23,-175,-77,70
946,-3796,-9,192,-4673,23,-178,-76,69
947,-3785,-4,192,-4674,23,-178,-72,69
948,-3787,-9,189,-4672,23,-176,-78,74
949,-3780,-3,190,-4675,23,-174,-80,70
950,-3777,-2,196,-4672,23,-175,-81,69
951,-3783,0,196,-4672,23,-177,-72,70
952,-3779,6,193,-4673,23,-175,-74,69
953,-3787,-6,183,-4676,23,-173,-74,70
954,-3792,-6,186,-4678,23,-170,-76,73
955,-3793,-12,194,-4679,23,-173,-74,71
956,-3790,-10,189,-4678,23,-174,-76,71
957,-3795,-3,191,-4672,23,-176,-76,69
958,-3787,-8,191,-4679,23,-179,-76,70
959,-3785,-10,199,-4681,23,-174,-74,71
960,-3787,-3,190,-4679,23,-169,-75,69
961,-3784,-12,180,-4677,23,-176,-77,72
962,-3787,-9,181,-4678,23,-177,-76,71
963,-3785,-5,184,-4679,23,-174,-73,72
964,-3784,-6,189,-4681,23,-175,-78,69
965,-3792,-10,185,-4680,23,-175,-80,70
966,-3790,-4,180,-4679,23,-175,-78,70
967,-3793,-7,186,-4675,23,-177,-77,69
968,-3790,-7,195,-4675,23,-174,-76,72
969,-3789,-3,196,-4672,23,-175,-74,72
970,-3790,-9,193,-4676,23,-175,-71,70
971,-3786,-4,195,-4679,23,-173,-76,70
972,-3790,-5,191,-4679,23,-176,-77,73
973,-3794,-2,191,-4678,23,-172,-81,71
974,-3776,-10,186,-4679,23,-176,-80,71
975,-3784,1,187,-4675,23,-173,-75,71
976,-3788,-2,193,-4675,23,-174,-76,71
977,-3785,-2,193,-4672,23,-177,-76,71
978,-3787,-5,184,-4675,23,-176,-76,67
979,-3788,-5,192,-4683,23,-176,-77,71
980,-3789,1,187,-4679,23,-177,-76,72
981,-3791,-1,187,-4679,23,-176,-75,72
982,-3790,3,180,-4679,23,-176,-75,69
983,-3789,9,187,-4681,23,-174,-75,69
984,-3787,3,183,-4680,23,-176,-77,70
985,-3780,-3,178,-4680,23,-177,-75,69
986,-3780,2,189,-4680,23,-178,-76,69
987,-3786,-4,191,-4678,23,-176,-78,69
988,-3795,-9,190,-4675,23,-175,-76,67
989,-3795,-5,198,-4680,23,-173,-79,68
990,-3789,-8,195,-4683,23,-175,-78,70
991,-3790,4,198,-4678,23,-174,-75,72
992,-3797,3,198,-4677,23,-170,-76,73
993,-3799,-1,198,-4674,23,-172,-77,68
994,-3793,-4,195,-4683,23,-174,-80,71
995,-3793,-10,192,-4682,23,-172,-81,67
996,-3787,-10,194,-4675,23,-172,-77,69
997,-3783,-5,203,-4676,23,-174,-78,70
998,-3783,-1,190,-4674,23,-171,-80,73
