,acc_X,acc_Y,acc_Z,temp,tempC,gyr_X,gyr_Y,gyr_Z
0,-3783,0,177,-4696,23,-87,-38,36
1,-3783,-7,184,-4704,23,-87,-39,35
2,-3780,-7,197,-4700,23,-86,-36,37
3,-3782,0,178,-4699,23,-86,-38,35
4,-3789,-7,190,-4700,23,-85,-38,36
5,-3792,1,191,-4698,23,-88,-38,34
6,-3788,-2,185,-4698,23,-88,-37,34
7,-3784,1,186,-4694,23,-88,-38,33
8,-3789,-1,183,-4697,23,-87,-38,35
9,-3789,-2,186,-4695,23,-89,-37,34
10,-3783,0,189,-4692,23,-89,-38,36
11,-3794,-7,188,-4699,23,-88,-38,34
12,-3793,-8,194,-4698,23,-86,-38,35
13,-3791,-9,206,-4706,23,-87,-38,34
14,-3786,-4,201,-4704,23,-86,-37,36
15,-3787,2,181,-4706,23,-86,-35,35
16,-3793,-2,187,-4706,23,-86,-38,36
17,-3786,1,183,-4705,23,-87,-38,34
18,-3787,-9,185,-4704,23,-87,-38,35
19,-3782,-5,189,-4699,23,-86,-37,35
20,-3792,-6,185,-4702,23,-87,-37,34
21,-3788,-9,183,-4705,23,-89,-38,34
22,-3791,-4,199,-4697,23,-88,-39,35
23,-3791,-5,200,-4697,23,-89,-38,35
24,-3788,-12,186,-4698,23,-89,-37,35
25,-3791,-2,189,-4705,23,-86,-40,34
26,-3786,-12,184,-4703,23,-88,-38,35
27,-3793,-5,194,-4706,23,-88,-38,34
28,-3789,0,197,-4702,23,-87,-39,36
29,-3788,-3,192,-4699,23,-87,-39,36
30,-3792,2,189,-4700,23,-87,-37,36
31,-3793,1,194,-4704,23,-88,-38,35
32,-3792,-11,184,-4696,23,-89,-38,36
33,-3783,-6,190,-4698,23,-87,-40,34
34,-3785,-1,179,-4694,23,-87,-39,33
35,-3786,2,193,-4696,23,-88,-37,32
36,-3792,-3,189,-4692,23,-87,-38,34
37,-3793,-2,186,-4695,23,-88,-38,34
38,-3786,8,189,-4696,23,-88,-39,33
39,-3787,5,189,-4694,23,-87,-38,34
40,-3789,3,179,-4697,23,-86,-37,34
41,-3780,-7,194,-4701,23,-86,-39,34
42,-3779,-10,186,-4698,23,-87,-40,33
43,-3787,-1,185,-4698,23,-87,-41,33
44,-3788,3,191,-4700,23,-88,-40,36
45,-3784,10,193,-4700,23,-88,-39,36
46,-3785,6,182,-4698,23,-86,-39,35
47,-3786,3,186,-4703,23,-87,-38,34
48,-3789,-4,192,-4701,23,-85,-39,35
49,-3790,-5,180,-4698,23,-88,-38,35
50,-3786,4,185,-4698,23,-87,-39,35
51,-3785,7,188,-4695,23,-87,-40,33
52,-3793,4,197,-4694,23,-86,-39,34
53,-3793,-6,192,-4695,23,-86,-39,34
54,-3792,0,196,-4702,23,-85,-39,34
55,-3798,-5,178,-4699,23,-87,-38,34
56,-3790,1,184,-4700,23,-88,-39,35
57,-3786,-9,184,-4697,23,-87,-39,33
58,-3784,-10,179,-4695,23,-87,-38,34
59,-3778,0,180,-4697,23,-87,-40,35
60,-3783,-4,194,-4696,23,-87,-39,34
61,-3788,-8,200,-4698,23,-88,-38,33
62,-3793,-10,191,-4702,23,-88,-39,34
63,-3790,-9,176,-4703,23,-87,-38,34
64,-3793,-3,185,-4701,23,-87,-39,34
65,-3792,2,197,-4698,23,-87,-39,35
66,-3786,2,180,-4699,23,-87,-37,34
67,-3784,0,178,-4696,23,-86,-39,34
68,-3785,5,173,-4699,23,-86,-40,33
69,-3793,3,170,-4699,23,-86,-38,34
70,-3789,-5,177,-4697,23,-85,-38,34
71,-3786,-3,178,-4694,23,-85,-40,34
72,-3788,-4,184,-4695,23,-86,-38,35
73,-3782,2,181,-4695,23,-87,-37,33
74,-3784,1,173,-4692,23,-86,-39,33
75,-3790,-9,181,-4698,23,-87,-38,34
76,-3790,-9,189,-4695,23,-86,-36,34
77,-3793,-12,191,-4695,23,-86,-38,36
78,-3790,-11,190,-4696,23,-87,-40,35
79,-3791,-9,189,-4696,23,-88,-39,34
80,-3790,-2,186,-4696,23,-89,-39,34
81,-3797,2,184,-4695,23,-88,-39,33
82,-3792,-3,192,-4698,23,-85,-37,34
83,-3788,-2,182,-4698,23,-86,-38,34
84,-3786,-2,199,-4696,23,-88,-37,34
85,-3789,0,198,-4698,23,-87,-38,35
86,-3789,-4,181,-4697,23,-87,-39,34
87,-3783,-4,182,-4700,23,-86,-38,35
88,-3785,-1,190,-4700,23,-87,-39,35
89,-3786,-3,184,-4696,23,-87,-38,35
90,-3792,-5,181,-4696,23,-87,-40,36
91,-3780,-1,179,-4695,23,-88,-40,36
92,-3785,2,185,-4698,23,-87,-40,35
93,-3791,-4,200,-4702,23,-87,-41,35
94,-3790,-3,194,-4706,23,-87,-37,34
95,-3788,-2,192,-4703,23,-86,-39,35
96,-3788,-2,193,-4701,23,-86,-38,35
97,-3786,1,190,-4704,23,-86,-37,35
98,-3791,-3,187,-4694,23,-86,-38,34
99,-3783,-5,187,-4697,23,-86,-37,34
100,-3791,-3,196,-4696,23,-86,-37,35
101,-3796,-2,187,-4693,23,-86,-38,35
102,-3794,-3,186,-4698,23,-87,-39,36
103,-3784,-5,185,-4693,23,-88,-39,35
104,-3798,-7,182,-4698,23,-87,-38,33
105,-3790,-9,183,-4698,23,-86,-39,34
106,-3789,-2,187,-4701,23,-86,-40,33
107,-3789,-7,189,-4696,23,-86,-38,34
108,-3791,-6,184,-4701,23,-87,-39,33
109,-3785,1,180,-4699,23,-87,-38,36
110,-3779,-6,179,-4699,23,-87,-38,35
111,-3781,-9,186,-4701,23,-87,-38,35
112,-3787,-1,179,-4697,23,-87,-36,37
113,-3787,0,186,-4696,23,-88,-38,35
114,-3790,-8,186,-4697,23,-87,-37,34
115,-3787,4,176,-4701,23,-87,-38,35
116,-3791,-2,171,-4702,23,-87,-38,35
117,-3785,-2,185,-4695,23,-87,-38,35
118,-3790,-2,198,-4698,23,-85,-39,35
119,-3790,5,183,-4690,23,-86,-39,36
120,-3786,-3,174,-4690,23,-86,-38,35
121,-3788,3,190,-4696,23,-87,-37,33
122,-3791,-2,194,-4694,23,-88,-38,33
123,-3794,-6,187,-4697,23,-86,-38,34
124,-3794,2,190,-4697,23,-87,-39,34
125,-3784,-3,192,-4697,23,-87,-39,36
126,-3793,-3,185,-4695,23,-85,-39,35
127,-3785,-5,187,-4693,23,-86,-37,34
128,-3788,1,193,-4691,23,-87,-38,36
129,-3798,-10,196,-4693,23,-87,-39,34
130,-3790,-13,188,-4699,23,-87,-38,34
131,-3781,-2,182,-4695,23,-87,-38,34
132,-3787,-3,180,-4697,23,-86,-38,33
133,-3789,-1,182,-4700,23,-87,-38,34
134,-3797,-5,189,-4696,23,-87,-38,34
135,-3803,-4,187,-4700,23,-88,-39,35
136,-3807,-9,200,-4696,23,-87,-37,35
137,-3792,-2,193,-4699,23,-87,-39,34
138,-3782,-8,188,-4696,23,-87,-38,35
139,-3796,-8,190,-4694,23,-86,-38,35
140,-3792,-1,189,-4691,23,-86,-39,34
141,-3787,0,189,-4691,23,-86,-40,35
142,-3788,-5,172,-4694,23,-86,-40,35
143,-3790,-11,181,-4696,23,-88,-39,34
144,-3786,5,196,-4691,23,-87,-40,34
145,-3789,6,192,-4693,23,-87,-41,36
146,-3792,-4,183,-4691,23,-86,-39,36
147,-3790,-7,194,-4698,23,-87,-38,34
148,-3793,-19,188,-4698,23,-85,-37,35
149,-3786,-13,177,-4701,23,-85,-36,33
150,-3789,-7,187,-4695,23,-86,-38,34
151,-3788,-3,192,-4697,23,-86,-40,36
152,-3785,2,183,-4697,23,-86,-38,35
153,-3787,-1,187,-4693,23,-86,-37,36
154,-3789,-7,203,-4699,23,-85,-35,36
155,-3799,1,183,-4701,23,-86,-36,36
156,-3788,-4,190,-4698,23,-88,-38,36
157,-3783,0,179,-4696,23,-89,-39,36
158,-3790,-9,193,-4693,23,-89,-38,35
159,-3792,-2,188,-4696,23,-88,-39,35
160,-3783,-10,197,-4695,23,-88,-39,34
161,-3784,-13,191,-4696,23,-87,-40,35
162,-3791,-2,189,-4698,23,-86,-38,36
163,-3788,2,186,-4699,23,-87,-38,36
164,-3794,0,193,-4698,23,-88,-39,34
165,-3795,0,192,-4695,23,-86,-39,35
166,-3787,-8,188,-4695,23,-87,-39,35
167,-3783,-10,202,-4690,23,-89,-38,33
168,-3790,0,200,-4700,23,-86,-38,33
169,-3786,4,187,-4697,23,-86,-39,35
170,-3785,0,184,-4698,23,-87,-37,34
171,-3783,-1,179,-4693,23,-85,-36,35
172,-3792,-3,188,-4694,23,-87,-36,35
173,-3791,-9,189,-4692,23,-87,-37,35
174,-3788,-3,200,-4698,23,-86,-38,34
175,-3786,-5,191,-4696,23,-87,-37,36
176,-3779,-1,202,-4700,23,-87,-38,36
177,-3790,9,184,-4695,23,-86,-40,33
178,-3791,7,185,-4692,23,-89,-38,35
179,-3783,-3,177,-4693,23,-88,-37,35
180,-3787,-4,186,-4690,23,-87,-38,36
181,-3795,-3,178,-4695,23,-88,-40,34
182,-3794,3,181,-4696,23,-89,-40,33
183,-3787,4,195,-4690,23,-87,-40,34
184,-3789,6,199,-4686,23,-88,-38,34
185,-3786,2,193,-4688,23,-86,-39,35
186,-3782,-12,185,-4694,23,-85,-41,34
187,-3785,-12,191,-4694,23,-86,-40,34
188,-3789,-5,192,-4697,23,-87,-40,35
189,-3790,-15,190,-4697,23,-86,-37,33
190,-3786,-16,189,-4696,23,-87,-39,35
191,-3793,-11,192,-4688,23,-88,-40,33
192,-3786,-6,195,-4692,23,-89,-38,35
193,-3788,-7,186,-4700,23,-88,-38,35
194,-3783,-1,177,-4695,23,-86,-37,37
195,-3790,-10,199,-4694,23,-85,-38,34
196,-3786,-6,185,-4694,23,-86,-39,33
197,-3793,3,197,-4698,23,-87,-38,33
198,-3789,-2,201,-4698,23,-86,-38,34
199,-3789,-6,190,-4694,23,-88,-39,33
200,-3785,-12,188,-4694,23,-88,-37,36
201,-3786,-9,184,-4699,23,-88,-38,34
202,-3793,-5,186,-4695,23,-88,-39,34
203,-3784,-2,179,-4695,23,-87,-39,34
204,-3784,-4,184,-4693,23,-87,-38,33
205,-3788,-1,188,-4693,23,-87,-37,34
206,-3790,-6,184,-4694,23,-85,-38,35
207,-3794,-4,187,-4692,23,-86,-39,33
208,-3792,-6,193,-4696,23,-86,-39,33
209,-3783,-4,189,-4704,23,-87,-39,35
210,-3786,-1,201,-4699,23,-86,-39,35
211,-3780,1,189,-4693,23,-88,-39,35
212,-3786,-7,189,-4693,23,-87,-39,35
213,-3789,-1,188,-4696,23,-88,-37,34
214,-3785,-6,181,-4695,23,-88,-36,34
215,-3789,-2,183,-4697,23,-87,-37,33
216,-3789,-7,181,-4697,23,-87,-38,34
217,-3787,-4,187,-4697,23,-86,-37,35
218,-3787,-8,185,-4698,23,-87,-38,33
219,-3786,5,181,-4697,23,-88,-39,33
220,-3796,0,187,-4696,23,-87,-38,34
221,-3793,2,192,-4696,23,-86,-39,35
222,-3786,3,193,-4694,23,-87,-39,35
223,-3778,-4,202,-4691,23,-87,-38,34
224,-3779,-2,189,-4693,23,-86,-37,36
225,-3788,-3,181,-4698,23,-88,-38,34
226,-3791,2,175,-4695,23,-88,-39,34
227,-3797,3,174,-4696,23,-87,-39,34
228,-3789,-4,180,-4692,23,-87,-39,34
229,-3785,-5,190,-4693,23,-88,-41,32
230,-3791,-2,180,-4695,23,-86,-39,32
231,-3795,0,187,-4694,23,-86,-39,34
232,-3794,0,183,-4693,23,-88,-38,35
233,-3791,-6,189,-4697,23,-86,-40,35
234,-3787,1,183,-4697,23,-88,-37,37
235,-3793,-7,183,-4701,23,-88,-40,36
236,-3795,-9,188,-4691,23,-87,-40,34
237,-3794,-2,190,-4694,23,-88,-36,35
238,-3793,3,191,-4696,23,-87,-39,34
239,-3789,-5,190,-4695,23,-87,-39,34
240,-3792,-3,178,-4700,23,-87,-39,35
241,-3789,-6,187,-4692,23,-88,-38,33
242,-3781,-9,200,-4699,23,-88,-37,33
243,-3786,-7,199,-4697,23,-88,-38,33
244,-3786,2,200,-4695,23,-86,-38,35
245,-3792,2,199,-4694,23,-86,-39,34
246,-3790,1,177,-4698,23,-88,-39,34
247,-3788,-3,192,-4694,23,-88,-39,34
248,-3785,7,192,-4692,23,-87,-39,35
249,-3781,-3,193,-4692,23,-87,-38,34
250,-3780,-7,192,-4687,23,-87,-38,34
251,-3787,-2,191,-4692,23,-88,-38,35
252,-3785,-6,178,-4693,23,-86,-39,34
253,-3785,-7,186,-4693,23,-87,-39,34
254,-3788,-10,188,-4693,23,-86,-39,35
255,-3791,-10,179,-4693,23,-87,-38,35
256,-3793,-1,183,-4691,23,-89,-41,34
257,-3792,4,187,-4694,23,-89,-38,34
258,-3788,-7,181,-4696,23,-88,-38,33
259,-3784,-4,178,-4694,23,-86,-38,34
260,-3785,-8,187,-4695,23,-87,-37,35
261,-3786,-3,191,-4692,23,-88,-37,36
262,-3793,0,181,-4690,23,-87,-40,36
263,-3787,-2,178,-4699,23,-87,-40,35
264,-3787,1,183,-4695,23,-89,-40,34
265,-3787,-5,184,-4697,23,-88,-39,37
266,-3783,-4,190,-4693,23,-87,-41,38
267,-3781,0,187,-4696,23,-87,-38,37
268,-3783,-11,188,-4697,23,-88,-38,36
269,-3783,-8,184,-4691,23,-87,-37,33
270,-3790,-6,181,-4697,23,-87,-37,35
271,-3790,-8,183,-4690,23,-85,-36,34
272,-3786,-2,197,-4689,23,-84,-35,35
273,-3785,-2,185,-4694,23,-88,-39,35
274,-3789,0,183,-4698,23,-88,-37,36
275,-3788,-3,195,-4694,23,-88,-40,35
276,-3794,-4,187,-4691,23,-87,-40,35
277,-3793,-9,183,-4692,23,-87,-38,34
278,-3801,-3,177,-4691,23,-86,-39,34
279,-3787,-5,185,-4693,23,-86,-37,33
280,-3788,4,183,-4692,23,-88,-39,33
281,-3791,0,185,-4692,23,-86,-38,36
282,-3800,2,179,-4697,23,-85,-39,35
283,-3788,8,198,-4698,23,-85,-38,34
284,-3785,3,186,-4696,23,-87,-38,36
285,-3787,-5,176,-4691,23,-85,-39,34
286,-3779,-1,181,-4695,23,-85,-39,34
287,-3785,-1,182,-4699,23,-87,-39,33
288,-3788,-5,191,-4696,23,-87,-38,34
289,-3787,-9,194,-4691,23,-88,-40,35
290,-3791,-12,193,-4688,23,-86,-38,34
291,-3784,-8,189,-4692,23,-87,-38,35
292,-3794,-10,200,-4694,23,-88,-37,36
293,-3795,-15,198,-4695,23,-87,-39,36
294,-3787,-9,183,-4695,23,-87,-40,35
295,-3784,-10,194,-4698,23,-87,-38,34
296,-3788,-2,183,-4691,23,-88,-38,34
297,-3780,-7,188,-4690,23,-87,-39,33
298,-3788,-10,194,-4691,23,-88,-37,37
299,-3784,-5,178,-4691,23,-85,-37,35
300,-3783,2,184,-4688,23,-88,-38,35
301,-3783,-1,185,-4689,23,-88,-38,34
302,-3794,1,194,-4693,23,-89,-39,34
303,-3789,1,187,-4694,23,-88,-39,34
304,-3786,0,174,-4696,23,-87,-38,34
305,-3787,-4,183,-4695,23,-88,-37,36
306,-3792,-2,196,-4690,23,-88,-35,36
307,-3788,-4,180,-4688,23,-87,-38,37
308,-3786,0,188,-4688,23,-87,-38,36
309,-3788,-1,194,-4694,23,-89,-41,35
310,-3787,-3,179,-4687,23,-89,-40,35
311,-3788,-1,186,-4684,23,-89,-39,38
312,-3789,-10,188,-4695,23,-88,-40,35
313,-3790,-10,180,-4695,23,-88,-38,35
314,-3786,-7,183,-4688,23,-87,-39,35
315,-3785,-9,196,-4691,23,-87,-38,35
316,-3792,-8,190,-4689,23,-87,-41,35
317,-3794,6,190,-4694,23,-88,-40,35
318,-3787,-6,193,-4699,23,-87,-40,35
319,-3790,0,184,-4693,23,-88,-39,34
320,-3793,1,189,-4689,23,-87,-40,35
321,-3787,-1,196,-4695,23,-87,-42,35
322,-3789,-3,194,-4693,23,-87,-40,36
323,-3796,-3,189,-4694,23,-87,-39,36
324,-3782,-12,185,-4694,23,-87,-41,36
325,-3787,-3,185,-4690,23,-87,-40,34
326,-3791,-16,195,-4698,23,-87,-39,34
327,-3791,-9,190,-4693,23,-87,-37,35
328,-3784,-10,197,-4687,23,-88,-39,34
329,-3785,-10,195,-4695,23,-86,-39,34
330,-3784,-11,194,-4693,23,-88,-37,35
331,-3786,-4,191,-4693,23,-87,-37,35
332,-3776,-6,189,-4695,23,-85,-38,36
333,-3792,-3,189,-4693,23,-86,-39,35
334,-3790,-1,197,-4688,23,-88,-39,36
335,-3793,-6,194,-4692,23,-87,-39,37
336,-3783,-8,196,-4697,23,-88,-39,34
337,-3788,-3,192,-4695,23,-87,-39,37
338,-3790,-3,192,-4695,23,-87,-38,36
339,-3783,-2,195,-4693,23,-87,-39,36
340,-3790,-1,200,-4692,23,-87,-40,36
341,-3784,-1,190,-4690,23,-88,-40,35
342,-3779,-4,190,-4688,23,-88,-38,36
343,-3785,-12,183,-4695,23,-87,-41,35
344,-3783,-7,180,-4696,23,-86,-39,36
345,-3781,-7,186,-4696,23,-86,-39,35
346,-3789,-9,191,-4694,23,-85,-40,33
347,-3791,3,193,-4694,23,-86,-40,33
348,-3785,2,194,-4693,23,-87,-39,34
349,-3785,-8,200,-4696,23,-87,-39,36
350,-3788,-1,197,-4691,23,-88,-37,35
351,-3783,-3,201,-4689,23,-88,-40,36
352,-3788,-1,192,-4688,23,-88,-39,35
353,-3789,0,178,-4693,23,-88,-37,35
354,-3789,-4,180,-4692,23,-87,-38,35
355,-3791,-10,196,-4692,23,-87,-41,34
356,-3793,-5,197,-4690,23,-88,-38,35
357,-3797,-10,195,-4689,23,-87,-39,35
358,-3787,-5,185,-4688,23,-85,-39,36
359,-3784,-10,181,-4690,23,-87,-39,34
360,-3783,-5,179,-4690,23,-88,-37,35
361,-3788,-1,183,-4688,23,-88,-37,35
362,-3795,2,176,-4691,23,-89,-37,36
363,-3786,-2,169,-4695,23,-88,-39,36
364,-3783,-4,181,-4690,23,-87,-39,35
365,-3786,-7,187,-4689,23,-88,-38,35
366,-3787,-3,184,-4691,23,-87,-38,35
367,-3789,5,180,-4694,23,-88,-37,35
368,-3788,0,178,-4697,23,-88,-38,35
369,-3793,-5,180,-4694,23,-88,-39,36
370,-3790,-7,192,-4692,23,-88,-40,36
371,-3790,-6,188,-4691,23,-88,-38,36
372,-3787,-4,183,-4694,23,-87,-38,34
373,-3782,-9,185,-4691,23,-87,-38,35
374,-3785,-1,179,-4693,23,-89,-38,34
375,-3785,2,178,-4693,23,-88,-39,35
376,-3791,0,185,-4691,23,-88,-39,35
377,-3786,-2,198,-4691,23,-89,-39,34
378,-3791,0,194,-4691,23,-87,-38,35
379,-3788,3,187,-4688,23,-86,-40,34
380,-3791,-3,183,-4696,23,-87,-40,35
381,-3792,-3,187,-4694,23,-86,-39,35
382,-3789,2,196,-4687,23,-88,-39,35
383,-3790,-2,182,-4692,23,-88,-37,34
384,-3785,6,180,-4691,23,-87,-39,32
385,-3785,-6,175,-4692,23,-87,-39,34
386,-3788,-5,179,-4692,23,-87,-38,35
387,-3791,-7,191,-4695,23,-86,-37,34
388,-3780,-7,178,-4691,23,-87,-38,33
389,-3786,-3,180,-4692,23,-86,-38,34
390,-3788,-1,188,-4695,23,-87,-39,35
391,-3788,-1,191,-4695,23,-87,-38,35
392,-3786,-4,191,-4694,23,-87,-37,35
393,-3780,-2,190,-4694,23,-87,-37,34
394,-3782,0,187,-4688,23,-86,-37,35
395,-3786,0,187,-4693,23,-87,-38,35
396,-3783,-3,195,-4697,23,-88,-39,37
397,-3791,-5,191,-4693,23,-87,-38,35
398,-3789,-9,185,-4691,23,-86,-39,36
399,-3788,-4,187,-4687,23,-85,-39,35
400,-3790,-3,188,-4694,23,-87,-38,35
401,-3788,-7,186,-4692,23,-87,-40,34
402,-3788,-7,189,-4692,23,-89,-37,34
403,-3791,-6,188,-4698,23,-89,-38,34
404,-3789,-1,187,-4694,23,-88,-38,34
405,-3787,0,178,-4695,23,-88,-38,34
406,-3792,2,188,-4692,23,-87,-40,33
407,-3796,-2,196,-4698,23,-89,-39,35
408,-3795,-4,194,-4695,23,-89,-38,36
409,-3799,-8,188,-4696,23,-89,-37,34
410,-3794,-3,188,-4691,23,-87,-37,34
411,-3788,0,193,-4687,23,-86,-38,32
412,-3783,-1,189,-4685,23,-87,-38,35
413,-3788,5,189,-4689,23,-86,-41,34
414,-3787,1,184,-4688,23,-87,-39,36
415,-3790,-3,189,-4691,23,-86,-41,36
416,-3788,1,187,-4686,23,-88,-40,34
417,-3792,11,182,-4687,23,-89,-38,33
418,-3789,1,187,-4689,23,-89,-37,34
419,-3788,3,185,-4689,23,-88,-38,35
420,-3790,3,182,-4692,23,-88,-37,36
421,-3787,-2,187,-4694,23,-88,-38,34
422,-3792,-7,182,-4690,23,-89,-39,33
423,-3792,-2,190,-4691,23,-86,-36,32
424,-3786,-1,196,-4689,23,-86,-38,35
425,-3790,-10,199,-4689,23,-86,-38,35
426,-3788,-12,186,-4687,23,-88,-38,34
427,-3780,-12,196,-4685,23,-89,-40,33
428,-3786,-3,188,-4682,23,-89,-38,34
429,-3780,-8,192,-4687,23,-88,-38,35
430,-3782,-8,189,-4693,23,-89,-37,33
431,-3787,2,183,-4688,23,-89,-38,33
432,-3793,2,187,-4686,23,-87,-38,34
433,-3788,0,189,-4688,23,-89,-38,36
434,-3785,-5,189,-4684,23,-88,-39,36
435,-3784,-7,183,-4689,23,-88,-40,35
436,-3789,2,188,-4689,23,-89,-39,36
437,-3790,-1,181,-4689,23,-89,-38,34
438,-3796,-10,186,-4687,23,-89,-36,35
439,-3792,-12,191,-4688,23,-88,-39,36
440,-3782,-15,184,-4688,23,-87,-37,34
441,-3787,-13,189,-4692,23,-86,-38,34
442,-3788,-1,191,-4692,23,-87,-39,36
443,-3789,-5,178,-4693,23,-87,-39,34
444,-3790,-8,184,-4689,23,-87,-37,36
445,-3784,-7,197,-4689,23,-88,-38,36
446,-3789,-8,187,-4686,23,-89,-39,33
447,-3788,-7,181,-4691,23,-89,-38,34
448,-3789,2,190,-4693,23,-87,-37,35
449,-3784,5,191,-4689,23,-88,-37,34
450,-3782,0,184,-4690,23,-87,-39,34
451,-3779,-8,185,-4692,23,-87,-40,34
452,-3787,0,184,-4691,23,-85,-37,34
453,-3784,0,187,-4687,23,-87,-36,36
454,-3791,-2,195,-4685,23,-86,-38,35
455,-3792,-5,189,-4685,23,-87,-38,35
456,-3784,-6,189,-4692,23,-86,-38,35
457,-3793,-5,196,-4694,23,-85,-39,35
458,-3785,-2,187,-4695,23,-86,-38,34
459,-3790,5,191,-4691,23,-86,-38,34
460,-3795,2,185,-4697,23,-87,-39,34
461,-3787,2,176,-4686,23,-86,-38,35
462,-3791,0,184,-4688,23,-86,-40,35
463,-3785,-3,180,-4688,23,-87,-37,35
464,-3789,0,180,-4694,23,-85,-39,35
465,-3784,-7,177,-4689,23,-87,-38,34
466,-3786,-1,185,-4688,23,-88,-38,34
467,-3787,-3,184,-4685,23,-87,-38,33
468,-3792,-7,190,-4690,23,-87,-39,33
469,-3795,-2,196,-4685,23,-87,-39,34
470,-3788,-7,190,-4685,23,-87,-39,34
471,-3783,-8,187,-4684,23,-87,-38,37
472,-3790,0,179,-4686,23,-88,-38,35
473,-3785,1,188,-4685,23,-87,-39,34
474,-3793,2,187,-4690,23,-88,-39,34
475,-3793,-4,185,-4688,23,-87,-38,35
476,-3790,1,184,-4682,23,-89,-38,35
477,-3785,1,179,-4686,23,-87,-39,34
478,-3790,-2,181,-4692,23,-87,-39,33
479,-3790,-5,182,-4692,23,-85,-40,34
480,-3785,-10,185,-4688,23,-87,-39,35
481,-3788,5,185,-4688,23,-87,-39,35
482,-3789,0,183,-4687,23,-87,-40,36
483,-3792,4,183,-4689,23,-88,-39,35
484,-3792,-2,191,-4690,23,-89,-37,35
485,-3798,-2,185,-4689,23,-87,-37,35
486,-3792,-8,175,-4686,23,-86,-39,35
487,-3795,-4,186,-4691,23,-87,-38,35
488,-3784,-8,175,-4691,23,-88,-39,34
489,-3786,-7,179,-4694,23,-87,-39,33
490,-3791,-2,184,-4692,23,-88,-39,34
491,-3792,1,180,-4684,23,-88,-39,35
492,-3786,-5,189,-4691,23,-86,-40,35
493,-3785,-9,190,-4690,23,-88,-39,36
494,-3797,-11,185,-4694,23,-88,-38,35
495,-3790,-1,191,-4688,23,-87,-38,34
496,-3793,0,192,-4695,23,-87,-39,35
497,-3790,-2,194,-4694,23,-87,-38,34
498,-3792,-4,188,-4687,23,-86,-37,34
499,-3790,-5,190,-4694,23,-87,-37,34
500,-3789,-7,192,-4688,23,-87,-38,35
501,-3788,-3,185,-4691,23,-87,-37,34
502,-3782,-1,184,-4682,23,-85,-38,35
503,-3793,1,187,-4683,23,-87,-38,35
504,-3798,-5,183,-4688,23,-88,-39,34
505,-3786,-4,199,-4691,23,-88,-39,34
506,-3788,2,189,-4688,23,-87,-38,35
507,-3784,3,194,-4692,23,-86,-38,36
508,-3789,-1,193,-4692,23,-86,-39,35
509,-3792,4,193,-4695,23,-88,-38,35
510,-3789,-3,184,-4692,23,-88,-38,34
511,-3788,-7,178,-4688,23,-87,-37,36
512,-3797,-4,177,-4686,23,-87,-37,35
513,-3789,-9,181,-4687,23,-87,-37,36
514,-3789,-7,176,-4685,23,-87,-36,36
515,-3784,-5,180,-4683,23,-86,-39,35
516,-3785,0,178,-4688,23,-86,-39,34
517,-3784,-6,183,-4693,23,-87,-39,33
518,-3774,-3,182,-4691,23,-87,-39,34
519,-3784,-1,172,-4687,23,-89,-40,34
520,-3784,-9,171,-4685,23,-88,-41,35
521,-3792,-4,171,-4679,23,-86,-40,36
522,-3794,1,181,-4683,23,-87,-41,34
523,-3792,1,187,-4682,23,-88,-39,35
524,-3791,4,189,-4678,23,-88,-40,35
525,-3792,2,189,-4683,23,-91,-41,35
526,-3789,2,185,-4682,23,-89,-38,36
527,-3787,0,182,-4687,23,-89,-38,35
528,-3791,-7,194,-4688,23,-90,-37,34
529,-3788,-1,174,-4687,23,-88,-37,36
530,-3786,-2,180,-4685,23,-87,-38,34
531,-3791,0,173,-4688,23,-88,-38,35
532,-3786,1,178,-4687,23,-89,-38,34
533,-3790,-6,185,-4685,23,-86,-39,35
534,-3790,-6,172,-4688,23,-89,-39,36
535,-3791,-5,178,-4682,23,-88,-35,35
536,-3785,-11,181,-4695,23,-88,-37,34
537,-3781,-7,180,-4691,23,-87,-38,33
538,-3787,-8,186,-4689,23,-86,-39,35
539,-3786,-1,189,-4688,23,-86,-39,33
540,-3785,3,204,-4690,23,-87,-39,35
541,-3782,4,203,-4686,23,-88,-38,36
542,-3790,5,189,-4690,23,-89,-39,34
543,-3794,2,183,-4684,23,-87,-39,34
544,-3798,4,195,-4688,23,-88,-38,33
545,-3791,-4,195,-4686,23,-89,-37,34
546,-3781,-2,206,-4690,23,-87,-39,34
547,-3785,1,179,-4688,23,-90,-38,33
548,-3781,7,188,-4685,23,-88,-38,34
549,-3789,0,193,-4684,23,-88,-39,34
550,-3781,-2,193,-4690,23,-86,-38,33
551,-3788,-10,184,-4691,23,-87,-38,33
552,-3788,-3,194,-4690,23,-87,-39,34
553,-3793,-1,180,-4687,23,-88,-39,34
554,-3787,3,180,-4685,23,-87,-38,35
555,-3788,-3,176,-4685,23,-87,-40,36
556,-3786,-11,179,-4691,23,-88,-39,34
557,-3782,-8,187,-4692,23,-88,-38,35
558,-3783,0,182,-4690,23,-87,-38,34
559,-3791,-6,187,-4688,23,-87,-39,34
560,-3783,-5,180,-4686,23,-87,-39,34
561,-3786,-5,193,-4689,23,-89,-39,36
562,-3790,-11,180,-4689,23,-89,-39,35
563,-3792,0,180,-4685,23,-88,-40,34
564,-3792,-6,191,-4690,23,-88,-39,34
565,-3785,-15,187,-4686,23,-89,-38,36
566,-3785,-8,189,-4684,23,-89,-40,36
567,-3781,-7,183,-4684,23,-88,-39,34
568,-3791,-7,187,-4684,23,-87,-40,34
569,-3793,-7,176,-4687,23,-88,-39,35
570,-3789,-9,179,-4686,23,-88,-39,36
571,-3791,-3,197,-4682,23,-88,-40,35
572,-3784,-14,187,-4683,23,-89,-40,36
573,-3789,-6,192,-4690,23,-87,-41,35
574,-3793,-10,185,-4692,23,-87,-40,36
575,-3792,-1,189,-4690,23,-87,-39,35
576,-3783,1,192,-4690,23,-88,-38,35
577,-3779,0,193,-4690,23,-88,-38,35
578,-3790,-2,193,-4687,23,-86,-38,34
579,-3789,-5,199,-4682,23,-88,-37,36
580,-3791,-12,192,-4688,23,-88,-39,35
581,-3783,-4,182,-4685,23,-88,-40,35
582,-3796,-8,195,-4688,23,-88,-40,35
583,-3786,-12,187,-4693,23,-86,-39,35
584,-3787,-11,189,-4690,23,-87,-39,34
585,-3792,-4,182,-4686,23,-86,-39,35
586,-3787,-5,176,-4680,23,-86,-39,36
587,-3787,-2,187,-4681,23,-87,-40,36
588,-3780,1,177,-4687,23,-88,-39,33
589,-3786,0,194,-4685,23,-88,-39,35
590,-3792,2,194,-4682,23,-89,-39,36
591,-3791,-4,189,-4685,23,-87,-39,36
592,-3793,-5,184,-4691,23,-89,-37,35
593,-3798,0,183,-4691,23,-87,-35,36
594,-3796,-1,179,-4690,23,-87,-37,34
595,-3788,-3,178,-4690,23,-89,-37,34
596,-3788,-10,176,-4688,23,-88,-38,35
597,-3798,-3,191,-4696,23,-88,-37,35
598,-3784,-3,194,-4693,23,-88,-38,34
599,-3786,-2,195,-4690,23,-87,-39,35
600,-3789,-5,201,-4688,23,-87,-40,35
601,-3789,-5,190,-4690,23,-87,-39,35
602,-3791,-2,185,-4692,23,-87,-39,34
603,-3783,-7,181,-4687,23,-88,-38,33
604,-3777,-6,187,-4687,23,-87,-37,36
605,-3786,-1,180,-4692,23,-87,-39,35
606,-3783,2,176,-4687,23,-87,-38,35
607,-3786,6,180,-4688,23,-86,-39,36
608,-3792,8,189,-4691,23,-86,-38,35
609,-3795,1,187,-4690,23,-86,-37,35
610,-3795,-1,181,-4696,23,-88,-37,34
611,-3791,3,180,-4689,23,-88,-39,34
612,-3792,-6,177,-4690,23,-88,-39,34
613,-3782,-8,176,-4688,23,-88,-40,34
614,-3787,-4,182,-4688,23,-90,-38,33
615,-3788,4,183,-4687,23,-88,-39,34
616,-3786,-3,172,-4682,23,-86,-38,34
617,-3788,-10,178,-4684,23,-87,-37,34
618,-3781,-11,182,-4684,23,-87,-39,35
619,-3790,-17,183,-4685,23,-87,-37,34
620,-3790,-8,196,-4690,23,-85,-38,34
621,-3794,-1,193,-4693,23,-89,-39,33
622,-3789,-3,194,-4692,23,-87,-38,35
623,-3786,-13,189,-4685,23,-85,-37,34
624,-3783,-7,190,-4684,23,-86,-36,35
625,-3789,2,197,-4688,23,-87,-38,35
626,-3793,2,187,-4688,23,-87,-38,35
627,-3792,1,185,-4682,23,-87,-39,34
628,-3787,-4,179,-4685,23,-88,-39,34
629,-3791,-8,187,-4685,23,-89,-38,34
630,-3792,0,183,-4688,23,-90,-38,34
631,-3789,2,172,-4683,23,-86,-39,35
632,-3790,-12,171,-4685,23,-88,-38,34
633,-3793,-3,175,-4688,23,-90,-40,36
634,-3788,-7,183,-4689,23,-87,-39,35
635,-3799,-12,184,-4689,23,-88,-37,36
636,-3789,-7,181,-4690,23,-87,-36,35
637,-3789,-9,189,-4690,23,-87,-36,34
638,-3782,-6,200,-4684,23,-87,-38,35
639,-3787,-2,196,-4685,23,-87,-38,35
640,-3784,0,193,-4684,23,-86,-37,36
641,-3782,6,193,-4683,23,-86,-38,36
642,-3787,7,194,-4680,23,-87,-36,34
643,-3787,-2,188,-4680,23,-88,-36,34
644,-3789,-9,184,-4682,23,-89,-36,33
645,-3784,-7,188,-4681,23,-88,-37,33
646,-3788,-1,190,-4683,23,-88,-39,35
647,-3784,-3,191,-4687,23,-88,-38,34
648,-3788,-4,189,-4684,23,-87,-40,34
649,-3787,2,186,-4683,23,-87,-39,35
650,-3795,4,179,-4683,23,-85,-38,36
651,-3799,-8,187,-4683,23,-86,-38,35
652,-3783,-7,189,-4686,23,-88,-38,36
653,-3785,-2,186,-4683,23,-86,-40,34
654,-3781,-7,194,-4683,23,-86,-40,34
655,-3783,-10,176,-4680,23,-86,-39,35
656,-3786,-6,191,-4681,23,-88,-41,35
657,-3791,-2,196,-4683,23,-86,-39,34
658,-3789,-5,197,-4683,23,-87,-37,32
659,-3789,-2,197,-4685,23,-88,-37,33
660,-3791,5,189,-4688,23,-89,-38,35
661,-3786,0,180,-4682,23,-88,-39,35
662,-3789,-4,173,-4684,23,-87,-40,34
663,-3789,-5,184,-4682,23,-88,-41,35
664,-3782,-3,186,-4683,23,-89,-37,35
665,-3786,-6,185,-4685,23,-88,-37,34
666,-3793,-6,176,-4681,23,-87,-39,33
667,-3786,-7,187,-4683,23,-85,-39,35
668,-3790,1,191,-4684,23,-88,-40,35
669,-3785,-3,187,-4681,23,-87,-40,35
670,-3789,-10,191,-4681,23,-88,-41,35
671,-3791,-2,189,-4679,23,-87,-38,35
672,-3790,-4,172,-4682,23,-86,-37,36
673,-3793,-7,184,-4682,23,-87,-38,35
674,-3798,-4,190,-4686,23,-88,-40,35
675,-3793,5,188,-4690,23,-89,-38,34
676,-3795,-5,189,-4688,23,-87,-39,35
677,-3792,-1,178,-4683,23,-85,-38,34
678,-3801,1,177,-4686,23,-87,-39,35
679,-3798,-4,188,-4687,23,-89,-40,35
680,-3796,-12,185,-4683,23,-87,-39,35
681,-3794,-7,199,-4688,23,-86,-38,33
682,-3791,-11,192,-4689,23,-87,-38,35
683,-3783,0,197,-4686,23,-87,-39,35
684,-3791,-1,192,-4682,23,-87,-37,34
685,-3789,-6,184,-4684,23,-88,-36,36
686,-3787,-5,183,-4688,23,-88,-38,35
687,-3793,-4,185,-4683,23,-88,-38,35
688,-3788,-4,190,-4684,23,-89,-38,35
689,-3789,-1,190,-4685,23,-88,-38,34
690,-3785,-2,187,-4683,23,-88,-37,36
691,-3782,-4,187,-4686,23,-86,-38,35
692,-3784,-4,184,-4683,23,-85,-37,36
693,-3784,-11,184,-4682,23,-87,-38,36
694,-3782,-5,182,-4688,23,-86,-40,35
695,-3786,1,195,-4687,23,-86,-39,36
696,-3786,5,189,-4691,23,-87,-36,35
697,-3787,-1,194,-4688,23,-86,-37,34
698,-3798,-7,188,-4687,23,-85,-38,36
699,-3790,-6,186,-4686,23,-87,-39,35
700,-3789,-7,194,-4687,23,-86,-39,33
701,-3792,-6,184,-4687,23,-86,-38,35
702,-3793,-3,186,-4688,23,-87,-37,35
703,-3784,-6,195,-4687,23,-87,-39,35
704,-3787,-9,188,-4685,23,-88,-38,35
705,-3783,-9,192,-4688,23,-88,-38,35
706,-3788,-7,179,-4690,23,-86,-38,35
707,-3787,-7,193,-4684,23,-87,-38,32
708,-3793,-2,184,-4682,23,-86,-40,34
709,-3784,5,180,-4684,23,-86,-38,34
710,-3783,7,180,-4679,23,-87,-37,35
711,-3792,1,180,-4680,23,-89,-37,35
712,-3796,7,178,-4684,23,-86,-38,34
713,-3794,4,188,-4683,23,-86,-36,33
714,-3794,2,179,-4684,23,-87,-37,34
715,-3789,-2,179,-4693,23,-88,-38,35
716,-3788,-1,188,-4686,23,-89,-36,33
717,-3795,6,181,-4688,23,-89,-38,33
718,-3788,3,183,-4686,23,-87,-38,34
719,-3789,4,197,-4685,23,-86,-39,34
720,-3792,0,198,-4684,23,-87,-39,34
721,-3793,0,188,-4682,23,-85,-38,36
722,-3792,-7,191,-4681,23,-86,-38,35
723,-3780,0,182,-4683,23,-88,-37,34
724,-3788,-1,183,-4684,23,-87,-40,33
725,-3791,-1,182,-4693,23,-87,-38,34
726,-3791,3,171,-4689,23,-86,-40,34
727,-3790,-6,179,-4685,23,-87,-42,33
728,-3788,-11,181,-4694,23,-88,-39,36
729,-3785,1,184,-4689,23,-88,-38,33
730,-3788,-7,184,-4687,23,-87,-39,34
731,-3787,-2,195,-4680,23,-88,-38,33
732,-3786,-6,194,-4684,23,-87,-38,33
733,-3786,-7,188,-4689,23,-85,-38,33
734,-3777,0,191,-4686,23,-88,-36,34
735,-3785,-4,202,-4687,23,-86,-37,33
736,-3778,2,185,-4686,23,-88,-38,33
737,-3784,-5,183,-4686,23,-89,-37,35
738,-3791,-6,182,-4688,23,-89,-38,34
739,-3787,-9,172,-4687,23,-89,-39,34
740,-3791,-9,176,-4686,23,-89,-37,35
741,-3791,-4,176,-4687,23,-89,-37,35
742,-3784,-6,186,-4687,23,-87,-38,34
743,-3788,-2,193,-4694,23,-86,-36,35
744,-3791,-3,186,-4692,23,-85,-37,34
745,-3790,-3,185,-4690,23,-87,-39,35
746,-3782,-9,182,-4690,23,-90,-39,35
747,-3789,2,202,-4692,23,-87,-38,34
748,-3788,1,192,-4683,23,-88,-38,36
749,-3788,2,192,-4683,23,-87,-38,36
750,-3787,-1,190,-4681,23,-88,-40,35
751,-3792,-3,195,-4682,23,-87,-38,35
752,-3789,-8,189,-4682,23,-85,-40,35
753,-3786,-7,196,-4684,23,-89,-40,35
754,-3782,-6,183,-4684,23,-87,-38,35
755,-3790,2,180,-4674,23,-87,-39,35
756,-3783,-5,194,-4681,23,-86,-37,35
757,-3792,-7,180,-4679,23,-86,-38,36
758,-3785,-8,181,-4674,23,-87,-39,36
759,-3788,-7,183,-4681,23,-88,-38,35
760,-3790,-7,185,-4680,23,-88,-39,34
761,-3786,-5,177,-4686,23,-89,-40,35
762,-3782,-7,185,-4688,23,-88,-38,35
763,-3786,-15,186,-4683,23,-87,-38,34
764,-3777,-5,192,-4689,23,-87,-41,34
765,-3779,-5,191,-4683,23,-89,-39,34
766,-3787,1,180,-4681,23,-88,-39,34
767,-3784,-11,183,-4685,23,-90,-38,35
768,-3786,-6,190,-4684,23,-87,-37,34
769,-3780,-11,193,-4683,23,-87,-39,34
770,-3784,-2,198,-4680,23,-87,-37,34
771,-3779,-12,191,-4689,23,-88,-38,34
772,-3783,-2,187,-4684,23,-89,-38,34
773,-3789,2,197,-4690,23,-87,-38,36
774,-3801,2,196,-4684,23,-88,-38,34
775,-3798,-5,184,-4686,23,-86,-39,35
776,-3793,2,191,-4687,23,-88,-38,37
777,-3786,1,190,-4684,23,-88,-39,35
778,-3789,-3,183,-4685,23,-86,-38,34
779,-3788,0,184,-4684,23,-86,-39,34
780,-3790,3,181,-4687,23,-87,-39,34
781,-3792,3,186,-4685,23,-88,-40,33
782,-3792,2,188,-4686,23,-87,-41,35
783,-3786,6,187,-4679,23,-87,-41,35
784,-3786,-3,183,-4684,23,-88,-39,34
785,-3792,-9,187,-4683,23,-88,-39,34
786,-3785,-15,182,-4682,23,-88,-39,33
787,-3795,-10,180,-4685,23,-88,-37,34
788,-3791,-5,174,-4678,23,-86,-38,33
789,-3796,-12,185,-4682,23,-87,-38,34
790,-3791,-10,190,-4684,23,-86,-37,34
791,-3791,-8,184,-4680,23,-87,-38,35
792,-3797,-6,193,-4687,23,-88,-37,34
793,-3798,-8,187,-4684,23,-87,-38,35
794,-3796,-5,184,-4682,23,-87,-39,35
795,-3794,6,175,-4685,23,-89,-40,35
796,-3791,2,181,-4686,23,-87,-40,34
797,-3788,5,188,-4680,23,-86,-39,34
798,-3786,-2,196,-4682,23,-84,-41,33
799,-3791,3,195,-4683,23,-86,-38,34
800,-3788,-1,184,-4683,23,-88,-37,35
801,-3796,-4,179,-4680,23,-88,-38,36
802,-3787,-4,199,-4682,23,-87,-38,34
803,-3783,-4,195,-4684,23,-86,-38,34
804,-3781,-8,183,-4685,23,-86,-38,34
805,-3789,-5,186,-4682,23,-86,-38,35
806,-3794,-4,184,-4675,23,-86,-38,33
807,-3793,7,183,-4675,23,-88,-38,35
808,-3792,5,187,-4684,23,-87,-40,35
809,-3794,-2,191,-4684,23,-86,-39,35
810,-3788,2,188,-4685,23,-87,-39,35
811,-3792,1,195,-4689,23,-87,-38,34
812,-3793,17,195,-4690,23,-86,-39,33
813,-3783,5,191,-4683,23,-88,-39,33
814,-3791,6,185,-4684,23,-86,-40,35
815,-3787,-4,191,-4683,23,-88,-40,35
816,-3790,-5,203,-4683,23,-87,-39,36
817,-3782,-3,190,-4684,23,-88,-39,35
818,-3798,0,188,-4682,23,-88,-39,35
819,-3786,-2,193,-4676,23,-88,-39,35
820,-3794,1,194,-4683,23,-88,-40,34
821,-3787,1,186,-4685,23,-87,-39,35
822,-3791,-7,199,-4684,23,-90,-38,33
823,-3790,-1,192,-4681,23,-87,-40,33
824,-3795,-5,193,-4683,23,-85,-40,33
825,-3785,-7,191,-4688,23,-86,-37,33
826,-3786,-10,184,-4686,23,-88,-35,34
827,-3789,-9,186,-4681,23,-89,-38,35
828,-3789,-3,188,-4682,23,-90,-39,34
829,-3786,0,192,-4686,23,-89,-37,34
830,-3793,-1,186,-4677,23,-87,-38,35
831,-3787,-11,182,-4682,23,-87,-38,35
832,-3790,0,190,-4682,23,-86,-39,34
833,-3793,-5,195,-4683,23,-87,-39,34
834,-3792,-8,188,-4678,23,-89,-37,33
835,-3800,-9,186,-4679,23,-88,-36,35
836,-3795,-6,202,-4682,23,-86,-38,35
837,-3798,3,190,-4682,23,-84,-37,35
838,-3796,6,191,-4682,23,-86,-39,35
839,-3790,-3,188,-4679,23,-88,-39,36
840,-3787,-6,187,-4677,23,-87,-40,37
841,-3778,-7,194,-4681,23,-88,-39,35
842,-3792,-4,196,-4686,23,-88,-39,34
843,-3788,-4,197,-4683,23,-89,-41,34
844,-3776,-3,192,-4686,23,-86,-42,34
845,-3784,-8,181,-4683,23,-86,-40,35
846,-3789,-9,185,-4685,23,-86,-39,33
847,-3791,-5,184,-4679,23,-87,-39,35
848,-3788,-3,193,-4680,23,-87,-39,35
849,-3787,-4,183,-4688,23,-88,-38,34
850,-3783,-8,175,-4688,23,-88,-36,34
851,-3787,-7,192,-4681,23,-87,-40,34
852,-3790,-3,196,-4681,23,-89,-38,35
853,-3789,1,195,-4680,23,-88,-38,35
854,-3785,3,181,-4684,23,-87,-38,35
855,-3787,-6,170,-4676,23,-89,-37,36
856,-3778,-13,178,-4677,23,-87,-39,34
857,-3780,-8,198,-4680,23,-86,-40,34
858,-3788,4,200,-4681,23,-86,-37,35
859,-3792,7,208,-4678,23,-86,-38,36
860,-3789,2,191,-4685,23,-87,-40,35
861,-3794,-4,187,-4684,23,-86,-39,35
862,-3790,2,178,-4687,23,-89,-37,34
863,-3785,0,180,-4682,23,-88,-37,34
864,-3784,-11,187,-4682,23,-88,-38,34
865,-3792,-8,181,-4685,23,-87,-38,35
866,-3788,-9,187,-4685,23,-88,-37,34
867,-3788,-2,183,-4683,23,-88,-38,35
868,-3784,1,181,-4688,23,-89,-39,35
869,-3791,3,193,-4689,23,-86,-40,35
870,-3794,3,188,-4687,23,-88,-38,34
871,-3790,-3,182,-4687,23,-88,-39,34
872,-3787,-7,184,-4685,23,-87,-39,35
873,-3785,-7,193,-4683,23,-87,-39,35
874,-3782,-6,187,-4682,23,-86,-39,34
875,-3795,0,176,-4679,23,-87,-39,35
876,-3792,-6,193,-4679,23,-86,-40,35
877,-3797,-10,183,-4685,23,-87,-39,36
878,-3790,-1,183,-4679,23,-87,-36,35
879,-3789,5,182,-4682,23,-88,-38,34
880,-3788,4,186,-4686,23,-87,-39,33
881,-3792,9,180,-4687,23,-87,-40,34
882,-3793,7,181,-4688,23,-89,-39,35
883,-3792,0,183,-4686,23,-86,-39,34
884,-3801,1,182,-4680,23,-85,-39,35
885,-3799,-4,184,-4681,23,-87,-41,34
886,-3796,-5,194,-4683,23,-86,-39,34
887,-3797,1,193,-4682,23,-85,-38,34
888,-3793,-2,182,-4683,23,-85,-38,35
889,-3791,-2,182,-4682,23,-87,-37,33
890,-3794,-7,187,-4684,23,-88,-38,33
891,-3795,-14,187,-4683,23,-88,-41,35
892,-3792,-11,183,-4677,23,-88,-39,35
893,-3785,-6,185,-4680,23,-87,-39,35
894,-3785,2,192,-4681,23,-87,-39,34
895,-3791,-3,193,-4686,23,-87,-39,34
896,-3789,0,183,-4684,23,-87,-37,35
897,-3789,-3,182,-4681,23,-87,-39,35
898,-3784,-13,176,-4676,23,-86,-38,35
899,-3785,-16,182,-4679,23,-86,-38,35
900,-3789,-6,186,-4681,23,-87,-39,34
901,-3790,-5,191,-4683,23,-87,-39,34
902,-3789,-9,186,-4684,23,-88,-40,35
903,-3791,-4,184,-4682,23,-87,-40,34
904,-3798,1,186,-4683,23,-87,-39,34
905,-3793,-2,184,-4677,23,-86,-41,34
906,-3786,-4,180,-4677,23,-87,-40,33
907,-3789,-2,187,-4683,23,-86,-40,35
908,-3785,-11,184,-4679,23,-87,-41,35
909,-3787,-2,182,-4685,23,-88,-41,36
910,-3791,0,193,-4678,23,-87,-40,34
911,-3791,-4,191,-4678,23,-88,-41,33
912,-3785,-9,183,-4680,23,-88,-39,33
913,-3781,-4,191,-4681,23,-87,-40,34
914,-3786,-1,181,-4679,23,-88,-39,34
915,-3790,-8,190,-4681,23,-87,-37,35
916,-3790,-6,187,-4688,23,-88,-38,35
917,-3795,-9,191,-4682,23,-87,-37,35
918,-3796,-11,193,-4679,23,-88,-39,35
919,-3791,-1,185,-4682,23,-87,-38,34
920,-3779,-4,188,-4685,23,-87,-39,35
921,-3787,-6,187,-4682,23,-87,-39,34
922,-3791,-6,179,-4681,23,-87,-39,33
923,-3790,-5,192,-4682,23,-87,-37,33
924,-3781,-7,196,-4681,23,-86,-38,34
925,-3783,-9,191,-4684,23,-88,-38,34
926,-3783,-8,192,-4681,23,-87,-41,33
927,-3793,-8,192,-4684,23,-86,-39,35
928,-3793,1,194,-4684,23,-87,-41,34
929,-3792,-3,184,-4686,23,-87,-40,36
930,-3793,-4,181,-4682,23,-88,-38,35
931,-3789,-11,184,-4686,23,-86,-37,35
932,-3783,-14,191,-4682,23,-87,-38,36
933,-3786,-4,175,-4684,23,-87,-41,33
934,-3785,4,183,-4680,23,-87,-41,34
935,-3793,-4,195,-4680,23,-86,-38,34
936,-3788,5,178,-4684,23,-88,-37,34
937,-3784,-5,185,-4679,23,-88,-37,33
938,-3786,-6,192,-4678,23,-87,-39,35
939,-3785,-5,191,-4681,23,-87,-41,35
940,-3786,-10,187,-4677,23,-88,-39,35
941,-3784,-9,189,-4680,23,-88,-40,35
942,-3782,-9,192,-4681,23,-86,-41,34
943,-3787,-5,183,-4679,23,-86,-39,36
944,-3794,1,183,-4680,23,-87,-40,36
945,-3797,-3,184,-4683,23,-88,-39,35
946,-3791,-4,175,-4682,23,-87,-39,36
947,-3792,-12,180,-4679,23,-88,-38,35
948,-3788,-5,182,-4679,23,-89,-39,34
949,-3783,-3,184,-4682,23,-86,-38,33
950,-3776,0,189,-4681,23,-87,-38,35
951,-3789,-6,189,-4678,23,-90,-38,34
952,-3787,1,184,-4676,23,-88,-39,33
953,-3791,-3,182,-4681,23,-87,-40,34
954,-3787,2,190,-4686,23,-87,-40,34
955,-3790,-1,188,-4690,23,-87,-37,33
956,-3791,-5,187,-4687,23,-87,-39,36
957,-3788,-4,195,-4691,23,-87,-37,33
958,-3784,-3,188,-4681,23,-87,-39,34
959,-3790,-3,185,-4679,23,-87,-39,33
960,-3792,-1,179,-4675,23,-88,-40,33
961,-3792,-4,193,-4677,23,-89,-41,34
962,-3790,1,190,-4679,23,-88,-39,34
963,-3790,0,186,-4680,23,-89,-38,34
964,-3778,-1,189,-4676,23,-87,-39,36
965,-3776,-10,191,-4682,23,-87,-38,36
966,-3789,-6,191,-4684,23,-88,-38,35
967,-3796,-8,184,-4681,23,-85,-38,34
968,-3794,-8,193,-4683,23,-87,-39,34
969,-3792,-7,195,-4686,23,-88,-38,35
970,-3786,-9,189,-4685,23,-88,-38,36
971,-3789,8,181,-4688,23,-87,-39,36
972,-3788,-2,179,-4687,23,-87,-38,34
973,-3781,1,184,-4685,23,-86,-39,35
974,-3781,4,181,-4681,23,-87,-39,35
975,-3785,3,183,-4684,23,-89,-38,35
976,-3783,0,192,-4684,23,-88,-39,35
977,-3784,2,191,-4684,23,-87,-38,34
978,-3786,1,194,-4688,23,-88,-38,33
979,-3791,1,194,-4686,23,-87,-38,33
980,-3794,2,189,-4684,23,-88,-40,33
981,-3790,-3,191,-4679,23,-87,-38,33
982,-3791,-3,186,-4685,23,-87,-38,33
983,-3791,-7,199,-4684,23,-87,-40,36
984,-3793,-4,192,-4681,23,-86,-38,34
985,-3791,-2,184,-4680,23,-86,-38,36
986,-3792,-6,191,-4680,23,-87,-39,35
987,-3791,-3,190,-4686,23,-87,-39,37
988,-3790,-1,191,-4689,23,-87,-39,36
989,-3793,0,192,-4687,23,-88,-39,35
990,-3788,-1,189,-4686,23,-88,-39,34
991,-3799,-3,178,-4679,23,-87,-38,35
992,-3789,-1,187,-4685,23,-88,-40,34
993,-3788,-7,192,-4689,23,-87,-40,34
994,-3793,-3,184,-4685,23,-88,-38,35
995,-3789,-5,177,-4680,23,-86,-39,37
996,-3786,-4,190,-4685,23,-86,-39,36
997,-3783,0,178,-4682,23,-86,-39,36
998,-3788,0,184,-4683,23,-88,-40,34
