,acc_X,acc_Y,acc_Z,temp,tempC,gyr_X,gyr_Y,gyr_Z
0,-1894,-1,90,-4666,23,-87,-37,34
1,-1894,0,94,-4664,23,-87,-38,35
2,-1894,-3,94,-4665,23,-87,-39,35
3,-1894,-1,92,-4667,23,-87,-38,35
4,-1895,1,91,-4671,23,-87,-38,34
5,-1892,1,93,-4670,23,-88,-38,34
6,-1892,1,94,-4669,23,-88,-39,35
7,-1892,-1,95,-4667,23,-87,-39,35
8,-1894,0,91,-4666,23,-88,-39,36
9,-1892,-1,93,-4667,23,-87,-39,35
10,-1891,-1,94,-4667,23,-87,-39,35
11,-1893,-1,93,-4667,23,-87,-38,35
12,-1894,-1,95,-4667,23,-88,-39,35
13,-1895,-3,92,-4669,23,-88,-39,34
14,-1894,-5,93,-4671,23,-88,-39,34
15,-1895,-3,92,-4670,23,-87,-39,34
16,-1895,-3,91,-4670,23,-88,-38,34
17,-1894,-1,93,-4668,23,-88,-38,34
18,-1895,-2,94,-4668,23,-88,-38,34
19,-1896,0,93,-4670,23,-87,-38,34
20,-1893,-1,93,-4668,23,-89,-38,35
21,-1893,1,91,-4669,23,-88,-39,35
22,-1891,0,92,-4669,23,-88,-40,35
23,-1890,1,91,-4669,23,-87,-39,35
24,-1890,0,93,-4668,23,-89,-39,35
25,-1892,0,92,-4668,23,-88,-38,35
26,-1891,-3,91,-4667,23,-88,-38,35
27,-1892,-2,92,-4666,23,-88,-38,35
28,-1896,-3,95,-4664,23,-89,-39,35
29,-1894,-5,100,-4662,23,-88,-39,36
30,-1896,-3,97,-4663,23,-88,-39,35
31,-1896,-1,95,-4666,23,-89,-39,35
32,-1896,-1,94,-4667,23,-89,-39,34
33,-1895,-2,92,-4667,23,-89,-39,34
34,-1893,-2,90,-4669,23,-88,-39,34
35,-1892,-2,93,-4669,23,-87,-38,34
36,-1895,-1,94,-4671,23,-88,-37,34
37,-1895,-1,95,-4669,23,-87,-37,35
38,-1895,0,92,-4668,23,-88,-38,35
39,-1896,-1,94,-4669,23,-88,-37,36
40,-1897,-1,94,-4669,23,-88,-38,35
41,-1896,-2,95,-4670,23,-88,-39,35
42,-1894,-3,92,-4671,23,-88,-39,34
43,-1896,-1,93,-4666,23,-89,-39,35
44,-1895,-3,96,-4666,23,-89,-39,35
45,-1896,-4,95,-4663,23,-88,-41,34
46,-1894,-6,95,-4665,23,-88,-41,34
47,-1894,-5,93,-4667,23,-88,-40,34
48,-1895,-4,95,-4666,23,-88,-39,35
49,-1896,-4,94,-4667,23,-88,-39,36
50,-1895,-5,93,-4667,23,-88,-39,37
51,-1895,-2,95,-4668,23,-87,-39,36
52,-1894,-4,96,-4669,23,-86,-39,36
53,-1895,-4,97,-4668,23,-87,-38,36
54,-1895,-4,94,-4667,23,-87,-38,35
55,-1895,-5,94,-4665,23,-87,-38,35
56,-1896,-4,91,-4667,23,-87,-38,34
57,-1897,-4,92,-4670,23,-89,-37,35
58,-1895,-1,93,-4669,23,-88,-38,35
59,-1893,-2,94,-4670,23,-88,-38,35
60,-1893,-2,91,-4669,23,-88,-38,36
61,-1893,-4,93,-4666,23,-88,-38,35
62,-1895,-5,91,-4665,23,-88,-39,34
63,-1896,-3,92,-4668,23,-88,-39,35
64,-1894,-3,91,-4667,23,-88,-39,34
65,-1893,-3,93,-4665,23,-86,-40,33
66,-1892,-4,94,-4666,23,-87,-40,33
67,-1893,-4,95,-4669,23,-88,-39,34
68,-1893,-4,95,-4670,23,-87,-40,34
69,-1895,-3,96,-4668,23,-87,-39,34
70,-1897,-5,96,-4668,23,-85,-39,35
71,-1896,-3,97,-4670,23,-86,-38,36
72,-1895,-3,94,-4666,23,-86,-38,35
73,-1892,-2,94,-4669,23,-87,-38,35
74,-1891,-2,92,-4668,23,-86,-38,35
75,-1895,-2,91,-4669,23,-86,-38,35
76,-1896,-1,92,-4667,23,-87,-38,35
77,-1896,0,92,-4670,23,-87,-39,34
78,-1895,1,95,-4673,23,-87,-39,35
79,-1895,1,94,-4672,23,-87,-40,35
80,-1895,1,92,-4670,23,-87,-40,35
81,-1895,-1,95,-4671,23,-88,-39,34
82,-1896,-1,89,-4669,23,-88,-38,35
83,-1896,-3,90,-4669,23,-87,-38,34
84,-1894,-3,92,-4671,23,-88,-39,35
85,-1893,-4,92,-4672,23,-88,-38,35
86,-1893,-3,92,-4670,23,-88,-39,34
87,-1894,-3,91,-4667,23,-88,-39,35
88,-1896,-2,91,-4671,23,-88,-39,34
89,-1897,0,90,-4668,23,-88,-40,34
90,-1897,0,88,-4669,23,-89,-39,35
91,-1896,0,92,-4667,23,-89,-39,34
92,-1895,0,89,-4665,23,-88,-39,34
93,-1892,-3,93,-4665,23,-88,-39,35
94,-1893,-5,93,-4665,23,-87,-38,34
95,-1895,-6,88,-4666,23,-87,-38,34
96,-1895,-6,87,-4668,23,-87,-38,33
97,-1895,-5,88,-4671,23,-87,-39,33
98,-1895,-3,87,-4670,23,-87,-38,33
99,-1895,-1,91,-4668,23,-88,-38,34
100,-1896,-4,93,-4668,23,-87,-38,34
101,-1896,-2,92,-4667,23,-87,-39,34
102,-1893,-3,92,-4664,23,-87,-39,34
103,-1894,-5,92,-4664,23,-87,-38,35
104,-1894,-3,93,-4666,23,-87,-39,35
105,-1895,-2,90,-4667,23,-87,-39,36
106,-1895,-4,91,-4664,23,-87,-39,35
107,-1896,-5,89,-4665,23,-88,-39,35
108,-1893,-4,90,-4662,23,-88,-40,35
109,-1894,-2,92,-4662,23,-88,-38,36
110,-1895,-1,90,-4661,23,-87,-39,35
111,-1894,-1,92,-4662,23,-87,-40,34
112,-1894,0,92,-4663,23,-88,-39,35
113,-1894,-1,94,-4663,23,-86,-39,35
114,-1892,-2,94,-4665,23,-87,-38,34
115,-1892,-3,97,-4666,23,-86,-37,34
116,-1894,-1,95,-4661,23,-87,-38,35
117,-1893,0,97,-4662,23,-87,-37,34
118,-1894,0,96,-4663,23,-87,-38,34
119,-1894,0,91,-4662,23,-89,-38,36
120,-1893,-1,92,-4663,23,-88,-38,35
121,-1894,-3,94,-4665,23,-87,-37,36
122,-1895,-2,92,-4663,23,-87,-39,35
123,-1896,-3,92,-4663,23,-88,-38,35
124,-1895,-6,91,-4664,23,-89,-38,34
125,-1896,-5,96,-4664,23,-88,-38,35
126,-1896,-3,95,-4665,23,-87,-38,34
127,-1896,-2,93,-4662,23,-86,-37,34
128,-1894,-2,92,-4661,23,-86,-37,34
129,-1896,-4,93,-4661,23,-87,-38,34
130,-1895,-4,92,-4661,23,-86,-38,34
131,-1894,-4,93,-4661,23,-86,-38,34
132,-1893,-2,92,-4663,23,-86,-39,33
133,-1893,-4,94,-4666,23,-86,-39,34
134,-1896,-4,92,-4666,23,-86,-39,34
135,-1896,-4,92,-4662,23,-87,-38,34
136,-1895,-4,91,-4663,23,-87,-39,35
137,-1892,-2,92,-4662,23,-87,-38,34
138,-1894,-1,90,-4663,23,-88,-38,34
139,-1896,-3,91,-4664,23,-88,-38,34
140,-1895,0,93,-4666,23,-87,-38,35
141,-1893,0,93,-4668,23,-87,-38,35
142,-1895,-2,94,-4666,23,-86,-39,35
143,-1895,1,94,-4665,23,-87,-39,35
144,-1896,-2,94,-4664,23,-87,-38,35
145,-1896,-1,91,-4664,23,-87,-38,34
146,-1895,-1,89,-4663,23,-86,-39,34
147,-1895,1,88,-4666,23,-88,-39,34
148,-1895,-3,90,-4663,23,-88,-39,35
149,-1893,-4,91,-4661,23,-88,-39,35
150,-1893,-3,93,-4659,23,-89,-38,35
151,-1894,-3,91,-4661,23,-87,-38,34
152,-1894,-1,90,-4661,23,-87,-38,33
153,-1894,-1,92,-4662,23,-88,-38,34
154,-1895,-2,91,-4662,23,-89,-39,35
155,-1894,-3,95,-4662,23,-88,-37,35
156,-1893,-2,95,-4663,23,-88,-37,34
157,-1893,-3,96,-4662,23,-88,-38,35
158,-1892,-4,95,-4661,23,-87,-38,35
159,-1893,-3,94,-4663,23,-87,-37,34
160,-1892,-3,89,-4665,23,-88,-40,34
161,-1894,-5,90,-4666,23,-87,-40,34
162,-1895,-3,91,-4666,23,-87,-39,34
163,-1895,-1,88,-4667,23,-87,-39,34
164,-1894,-1,94,-4666,23,-86,-39,35
165,-1894,-1,96,-4665,23,-88,-38,35
166,-1892,-2,96,-4662,23,-88,-39,35
167,-1891,-2,94,-4663,23,-87,-39,35
168,-1892,-2,93,-4664,23,-87,-39,36
169,-1894,-3,96,-4663,23,-87,-38,36
170,-1893,-3,97,-4664,23,-89,-38,36
171,-1894,-4,98,-4661,23,-89,-40,36
172,-1896,-1,97,-4661,23,-88,-39,35
173,-1897,-1,98,-4660,23,-88,-38,35
174,-1899,-1,97,-4663,23,-88,-37,34
175,-1897,-1,98,-4661,23,-88,-38,36
176,-1897,-2,94,-4662,23,-88,-38,35
177,-1895,-2,96,-4661,23,-88,-38,35
178,-1897,0,97,-4663,23,-87,-38,35
179,-1896,-1,93,-4662,23,-86,-37,35
180,-1895,-1,91,-4663,23,-86,-38,35
181,-1895,0,93,-4662,23,-87,-39,35
182,-1896,0,92,-4661,23,-87,-39,34
183,-1894,-2,93,-4664,23,-86,-39,35
184,-1893,-1,92,-4664,23,-87,-39,35
185,-1894,-1,94,-4664,23,-88,-39,34
186,-1893,-3,93,-4664,23,-89,-39,35
187,-1892,-3,91,-4662,23,-89,-38,34
188,-1895,-4,86,-4664,23,-88,-39,35
189,-1895,-4,89,-4662,23,-87,-39,34
190,-1893,-5,88,-4662,23,-88,-39,34
191,-1894,-3,89,-4662,23,-89,-38,35
192,-1894,-1,90,-4661,23,-89,-38,35
193,-1896,-5,93,-4662,23,-89,-39,35
194,-1896,-3,91,-4664,23,-88,-37,35
195,-1897,-3,92,-4661,23,-87,-36,35
196,-1896,-6,95,-4661,23,-87,-38,35
197,-1897,-7,95,-4665,23,-87,-38,35
198,-1898,-6,95,-4664,23,-88,-38,34
199,-1896,-4,94,-4664,23,-88,-38,35
200,-1896,-2,95,-4664,23,-88,-38,35
201,-1895,-1,96,-4663,23,-88,-38,35
202,-1896,-3,98,-4661,23,-87,-38,36
203,-1895,-4,97,-4659,23,-87,-39,35
204,-1894,-4,97,-4656,23,-87,-39,35
205,-1895,-4,98,-4658,23,-88,-39,35
206,-1896,-4,95,-4663,23,-88,-39,34
207,-1897,-5,91,-4663,23,-87,-39,35
208,-1897,-4,94,-4664,23,-87,-38,35
209,-1894,-4,93,-4664,23,-86,-38,35
210,-1894,-2,93,-4662,23,-86,-39,34
211,-1893,1,91,-4662,23,-86,-38,34
212,-1894,0,89,-4665,23,-87,-39,34
213,-1895,0,89,-4662,23,-87,-39,34
214,-1896,-1,91,-4661,23,-87,-39,34
215,-1894,0,90,-4663,23,-88,-39,34
216,-1895,-1,88,-4662,23,-88,-38,34
217,-1894,-2,90,-4660,23,-88,-39,34
218,-1894,-2,88,-4658,23,-89,-39,33
219,-1894,-2,88,-4659,23,-88,-38,34
220,-1897,-2,87,-4661,23,-87,-37,34
221,-1894,-2,91,-4660,23,-88,-37,34
222,-1894,-5,90,-4662,23,-88,-37,33
223,-1894,-4,93,-4663,23,-87,-38,34
224,-1895,-2,92,-4662,23,-86,-38,34
225,-1895,0,92,-4662,23,-86,-39,35
226,-1897,0,90,-4664,23,-87,-39,35
227,-1897,-1,95,-4662,23,-88,-38,34
228,-1897,-2,94,-4662,23,-88,-38,35
229,-1895,-3,95,-4662,23,-88,-39,34
230,-1894,-1,96,-4661,23,-88,-39,34
231,-1895,-1,100,-4662,23,-88,-38,34
232,-1893,-1,100,-4662,23,-88,-38,33
233,-1895,-3,97,-4663,23,-87,-38,34
234,-1895,-2,95,-4663,23,-87,-38,35
235,-1895,-1,96,-4662,23,-87,-38,35
236,-1895,-3,93,-4662,23,-87,-37,35
237,-1895,-4,94,-4662,23,-88,-37,34
238,-1892,-3,93,-4662,23,-88,-37,35
239,-1892,-3,92,-4661,23,-87,-38,34
240,-1894,-1,91,-4659,23,-87,-37,36
241,-1893,0,93,-4660,23,-87,-38,35
242,-1893,-2,94,-4658,23,-87,-37,34
243,-1894,-4,95,-4660,23,-87,-38,35
244,-1893,-3,94,-4661,23,-88,-37,35
245,-1893,-2,96,-4660,23,-88,-37,34
246,-1894,-2,98,-4662,23,-88,-38,34
247,-1895,-4,96,-4664,23,-87,-39,34
248,-1896,-1,95,-4661,23,-88,-38,34
249,-1897,-1,95,-4662,23,-87,-38,34
250,-1896,-2,96,-4660,23,-88,-38,34
251,-1894,-3,98,-4662,23,-88,-38,34
252,-1893,-4,96,-4663,23,-88,-39,35
253,-1894,-2,94,-4661,23,-88,-38,35
254,-1894,-4,94,-4661,23,-88,-37,34
255,-1895,-5,94,-4666,23,-89,-39,34
256,-1896,-4,92,-4665,23,-88,-38,34
257,-1895,-3,91,-4661,23,-89,-38,34
258,-1894,1,93,-4662,23,-88,-37,34
259,-1894,-1,93,-4658,23,-88,-38,34
260,-1896,-2,92,-4660,23,-86,-38,34
261,-1895,0,89,-4660,23,-87,-39,34
262,-1895,0,93,-4663,23,-86,-39,35
263,-1894,1,92,-4660,23,-86,-39,34
264,-1894,-2,95,-4662,23,-87,-38,34
265,-1893,-3,93,-4661,23,-87,-38,34
266,-1893,-2,94,-4662,23,-87,-39,34
267,-1891,-1,90,-4662,23,-86,-38,35
268,-1892,0,91,-4659,23,-87,-38,35
269,-1894,0,91,-4659,23,-87,-39,35
270,-1894,-1,93,-4663,23,-88,-38,35
271,-1895,0,92,-4664,23,-88,-39,35
272,-1895,-1,93,-4664,23,-88,-39,35
273,-1898,-3,94,-4661,23,-87,-39,36
274,-1897,-1,93,-4662,23,-88,-39,35
275,-1895,-1,96,-4665,23,-88,-38,36
276,-1896,-1,97,-4663,23,-87,-37,36
277,-1895,-1,98,-4662,23,-87,-36,35
278,-1896,-1,98,-4658,23,-88,-38,35
279,-1894,-2,95,-4660,23,-87,-38,35
280,-1895,-4,92,-4660,23,-88,-39,35
281,-1895,-2,91,-4661,23,-88,-39,34
282,-1895,-5,92,-4664,23,-88,-38,34
283,-1897,-4,89,-4664,23,-87,-39,34
284,-1897,-4,93,-4665,23,-86,-38,34
285,-1894,-3,94,-4664,23,-87,-39,34
286,-1894,0,98,-4666,23,-87,-38,34
287,-1895,1,98,-4664,23,-86,-38,33
288,-1895,0,96,-4664,23,-87,-37,34
289,-1894,0,95,-4662,23,-87,-38,34
290,-1895,-2,95,-4660,23,-87,-38,34
291,-1896,-3,93,-4663,23,-88,-38,35
292,-1895,-2,93,-4662,23,-86,-38,35
293,-1896,-1,90,-4664,23,-85,-38,35
294,-1895,-1,93,-4662,23,-87,-39,35
295,-1893,-2,94,-4661,23,-87,-39,35
296,-1891,-1,96,-4659,23,-89,-39,34
297,-1892,1,98,-4662,23,-88,-39,34
298,-1893,0,99,-4659,23,-88,-38,34
299,-1892,-1,95,-4660,23,-88,-38,35
300,-1893,-3,93,-4660,23,-87,-38,35
301,-1894,-3,95,-4660,23,-88,-37,34
302,-1893,-3,93,-4664,23,-87,-38,34
303,-1892,-1,91,-4664,23,-88,-39,34
304,-1892,-2,96,-4663,23,-87,-39,34
305,-1891,-3,95,-4663,23,-87,-38,34
306,-1894,-4,93,-4663,23,-86,-38,34
307,-1892,-3,96,-4660,23,-86,-39,35
308,-1893,-4,98,-4660,23,-88,-38,35
309,-1893,-5,96,-4660,23,-88,-37,35
310,-1892,-4,97,-4660,23,-88,-38,35
311,-1894,-2,93,-4661,23,-87,-38,35
312,-1894,-2,92,-4661,23,-87,-39,34
313,-1894,-2,90,-4661,23,-87,-37,33
314,-1893,0,91,-4665,23,-86,-38,35
315,-1893,-3,91,-4663,23,-85,-38,35
316,-1892,-2,91,-4662,23,-87,-38,34
317,-1892,-3,91,-4659,23,-87,-39,34
318,-1893,0,92,-4660,23,-87,-38,34
319,-1893,-1,93,-4658,23,-87,-37,34
320,-1892,-2,95,-4655,23,-88,-37,34
321,-1892,-3,92,-4654,23,-88,-37,35
322,-1891,-2,96,-4656,23,-87,-36,34
323,-1894,-2,97,-4658,23,-88,-37,34
324,-1893,0,99,-4659,23,-87,-39,35
325,-1894,0,96,-4659,23,-88,-38,35
326,-1894,0,96,-4658,23,-87,-38,34
327,-1894,-1,94,-4657,23,-87,-38,35
328,-1892,-3,94,-4657,23,-87,-38,35
329,-1895,-2,93,-4657,23,-87,-39,35
330,-1896,-4,99,-4657,23,-89,-39,35
331,-1896,-5,98,-4654,23,-87,-38,34
332,-1894,-3,97,-4657,23,-87,-37,34
333,-1895,-3,96,-4660,23,-87,-38,34
334,-1895,-1,94,-4660,23,-87,-39,34
335,-1894,0,97,-4657,23,-89,-39,36
336,-1895,0,97,-4659,23,-88,-39,36
337,-1897,-1,96,-4659,23,-89,-39,36
338,-1894,-4,94,-4662,23,-87,-39,35
339,-1895,-3,92,-4664,23,-87,-39,35
340,-1897,-4,92,-4662,23,-87,-39,34
341,-1895,-1,93,-4662,23,-88,-39,34
342,-1897,-2,93,-4658,23,-88,-38,34
343,-1896,-1,92,-4658,23,-87,-38,35
344,-1896,1,93,-4659,23,-88,-38,34
345,-1898,1,96,-4661,23,-88,-38,34
346,-1898,0,95,-4659,23,-88,-37,35
347,-1897,-1,96,-4659,23,-87,-38,35
348,-1896,-2,96,-4661,23,-87,-37,34
349,-1897,-1,100,-4661,23,-87,-37,34
350,-1897,-3,99,-4660,23,-87,-38,34
351,-1895,0,100,-4659,23,-88,-38,34
352,-1895,0,102,-4660,23,-88,-40,35
353,-1895,-1,99,-4657,23,-88,-39,34
354,-1893,-4,100,-4660,23,-87,-38,34
355,-1893,-2,98,-4660,23,-88,-38,35
356,-1897,-1,97,-4657,23,-88,-38,35
357,-1898,0,94,-4657,23,-88,-38,35
358,-1896,-1,96,-4659,23,-87,-37,35
359,-1895,-3,94,-4658,23,-87,-37,34
360,-1895,-3,95,-4660,23,-87,-37,35
361,-1893,-2,93,-4659,23,-88,-37,35
362,-1896,-2,93,-4662,23,-88,-38,35
363,-1895,-2,92,-4664,23,-88,-38,35
364,-1895,-1,91,-4663,23,-89,-39,36
365,-1895,-2,90,-4660,23,-89,-39,36
366,-1895,0,89,-4659,23,-89,-39,35
367,-1895,-1,89,-4659,23,-87,-39,35
368,-1894,-1,92,-4658,23,-86,-38,35
369,-1893,-2,93,-4659,23,-87,-39,35
370,-1892,-3,94,-4658,23,-86,-37,35
371,-1893,-3,95,-4661,23,-87,-37,35
372,-1894,-3,94,-4661,23,-87,-37,34
373,-1893,-4,94,-4661,23,-87,-38,35
374,-1892,-5,96,-4660,23,-87,-38,34
375,-1891,-6,96,-4658,23,-87,-39,33
376,-1892,-3,95,-4656,23,-87,-38,34
377,-1892,-3,94,-4656,23,-86,-39,35
378,-1893,-2,92,-4659,23,-87,-39,35
379,-1892,-2,92,-4661,23,-86,-38,35
380,-1893,-1,92,-4660,23,-88,-39,35
381,-1893,-2,91,-4659,23,-88,-39,36
382,-1893,-1,88,-4660,23,-88,-40,35
383,-1892,-1,90,-4657,23,-88,-39,35
384,-1893,-1,91,-4656,23,-87,-39,35
385,-1895,-2,91,-4660,23,-87,-39,36
386,-1897,-2,95,-4659,23,-87,-37,35
387,-1896,-3,96,-4658,23,-88,-38,36
388,-1896,-1,94,-4660,23,-87,-37,36
389,-1893,-1,94,-4662,23,-87,-37,35
390,-1894,-2,96,-4662,23,-86,-37,35
391,-1893,-2,97,-4660,23,-87,-37,35
392,-1895,-2,98,-4662,23,-88,-38,35
393,-1893,-1,97,-4660,23,-88,-37,34
394,-1892,0,93,-4657,23,-88,-37,35
395,-1892,-1,94,-4655,23,-88,-38,34
396,-1891,-2,92,-4657,23,-89,-37,35
397,-1893,-3,91,-4656,23,-88,-37,35
398,-1894,-2,93,-4658,23,-88,-37,34
399,-1893,-2,93,-4657,23,-88,-38,35
400,-1894,-3,90,-4657,23,-89,-38,34
401,-1894,-2,92,-4656,23,-88,-39,34
402,-1893,-2,93,-4656,23,-87,-39,34
403,-1892,-2,92,-4657,23,-86,-40,35
404,-1893,-1,93,-4658,23,-87,-38,34
405,-1895,0,89,-4659,23,-86,-39,35
406,-1896,0,91,-4658,23,-87,-38,34
407,-1895,-1,94,-4658,23,-89,-38,34
408,-1896,-3,92,-4658,23,-88,-38,33
409,-1896,-4,91,-4657,23,-88,-39,34
410,-1896,-3,92,-4659,23,-89,-38,35
411,-1894,-5,92,-4659,23,-87,-39,35
412,-1894,-3,97,-4655,23,-87,-38,34
413,-1895,-2,95,-4656,23,-88,-39,35
414,-1894,-2,94,-4660,23,-88,-39,35
415,-1895,-1,96,-4660,23,-88,-39,35
416,-1896,-2,94,-4657,23,-88,-39,35
417,-1896,-4,91,-4657,23,-88,-38,34
418,-1893,-3,94,-4656,23,-87,-38,34
419,-1895,-2,95,-4656,23,-87,-38,34
420,-1894,-3,91,-4661,23,-87,-38,34
421,-1894,-4,90,-4661,23,-87,-39,34
422,-1894,-4,90,-4659,23,-87,-37,34
423,-1896,-4,91,-4658,23,-88,-37,34
424,-1897,-3,95,-4660,23,-87,-37,35
425,-1896,-3,92,-4659,23,-86,-36,34
426,-1897,-1,95,-4660,23,-86,-38,35
427,-1897,-2,93,-4658,23,-87,-38,35
428,-1896,-1,92,-4656,23,-87,-37,35
429,-1895,1,89,-4656,23,-88,-38,34
430,-1896,-1,89,-4658,23,-88,-38,34
431,-1894,-2,93,-4657,23,-88,-38,34
432,-1896,-3,92,-4655,23,-87,-37,35
433,-1895,-2,94,-4653,23,-88,-38,36
434,-1892,-1,97,-4655,23,-87,-38,36
435,-1892,-3,97,-4653,23,-88,-39,36
436,-1892,-2,96,-4651,23,-88,-38,35
437,-1895,-3,99,-4650,23,-87,-37,35
438,-1895,-2,98,-4653,23,-88,-37,35
439,-1893,-1,99,-4651,23,-87,-37,35
440,-1893,-1,96,-4654,23,-86,-38,35
441,-1893,0,96,-4653,23,-88,-38,35
442,-1894,-1,94,-4654,23,-87,-38,34
443,-1893,0,91,-4652,23,-88,-38,34
444,-1894,0,91,-4654,23,-87,-38,34
445,-1893,0,92,-4653,23,-88,-38,35
446,-1893,-1,92,-4653,23,-87,-38,34
447,-1895,-2,94,-4654,23,-88,-38,34
448,-1898,-1,92,-4655,23,-88,-39,34
449,-1897,0,94,-4657,23,-87,-39,35
450,-1894,-1,90,-4657,23,-87,-38,35
451,-1894,-1,91,-4659,23,-87,-38,35
452,-1894,-1,96,-4658,23,-86,-37,35
453,-1894,-4,93,-4655,23,-85,-37,35
454,-1896,-4,94,-4657,23,-87,-38,34
455,-1897,-3,94,-4657,23,-87,-38,35
456,-1896,0,95,-4657,23,-87,-38,36
457,-1896,0,92,-4659,23,-87,-38,35
458,-1897,-3,92,-4659,23,-87,-39,34
459,-1895,-1,92,-4658,23,-87,-38,34
460,-1896,-3,91,-4657,23,-87,-37,35
461,-1896,-1,94,-4654,23,-87,-38,35
462,-1896,-1,92,-4655,23,-87,-38,35
463,-1896,-1,94,-4656,23,-88,-38,35
464,-1895,0,96,-4654,23,-88,-38,36
465,-1896,1,94,-4654,23,-88,-39,36
466,-1895,-3,91,-4655,23,-87,-38,36
467,-1895,-3,94,-4654,23,-87,-38,36
468,-1895,-3,94,-4655,23,-88,-38,34
469,-1894,-2,96,-4654,23,-88,-39,35
470,-1895,-1,95,-4658,23,-89,-39,34
471,-1894,-3,95,-4657,23,-89,-38,35
472,-1894,-3,94,-4655,23,-87,-38,34
473,-1897,-3,96,-4657,23,-88,-38,33
474,-1899,-3,93,-4658,23,-88,-39,33
475,-1898,-3,90,-4658,23,-88,-38,34
476,-1896,-2,94,-4657,23,-88,-38,33
477,-1895,0,92,-4656,23,-87,-37,33
478,-1894,-3,92,-4656,23,-88,-37,35
479,-1893,-1,91,-4657,23,-87,-39,34
480,-1894,-2,96,-4657,23,-88,-39,36
481,-1895,-3,94,-4656,23,-87,-39,35
482,-1896,-4,93,-4654,23,-86,-38,35
483,-1894,-4,96,-4653,23,-87,-39,35
484,-1895,-3,97,-4654,23,-87,-38,35
485,-1895,-1,97,-4654,23,-86,-37,35
486,-1895,-1,95,-4655,23,-86,-38,36
487,-1895,-1,91,-4655,23,-87,-38,35
488,-1894,2,91,-4655,23,-88,-38,35
489,-1892,2,91,-4657,23,-88,-38,35
490,-1892,-1,89,-4659,23,-88,-38,35
491,-1892,0,89,-4659,23,-88,-38,35
492,-1893,-2,89,-4659,23,-88,-39,35
493,-1895,-1,89,-4660,23,-87,-40,35
494,-1897,-3,88,-4656,23,-87,-38,35
495,-1897,-2,90,-4657,23,-86,-39,35
496,-1897,-1,90,-4658,23,-86,-39,34
497,-1897,0,90,-4654,23,-87,-40,34
498,-1895,-1,93,-4655,23,-88,-39,34
499,-1895,-3,91,-4656,23,-87,-38,34
500,-1896,-4,90,-4654,23,-86,-37,34
501,-1897,-4,93,-4656,23,-86,-39,35
502,-1897,-2,93,-4657,23,-87,-39,35
503,-1895,-2,93,-4655,23,-87,-38,34
504,-1895,-3,92,-4653,23,-88,-39,35
505,-1892,-4,93,-4656,23,-88,-39,34
506,-1894,-4,93,-4657,23,-88,-39,35
507,-1895,-2,92,-4657,23,-88,-38,35
508,-1895,-4,94,-4656,23,-88,-39,34
509,-1895,-5,95,-4658,23,-87,-39,34
510,-1894,-4,97,-4658,23,-87,-40,35
511,-1895,-2,97,-4659,23,-87,-40,35
512,-1894,2,94,-4660,23,-86,-39,36
513,-1895,-2,95,-4657,23,-87,-39,36
514,-1896,-3,94,-4655,23,-87,-39,34
515,-1896,-5,93,-4654,23,-87,-39,34
516,-1894,-5,97,-4656,23,-87,-38,33
517,-1893,-3,98,-4656,23,-87,-37,34
518,-1894,-4,96,-4657,23,-87,-37,34
519,-1896,-3,99,-4656,23,-87,-37,34
520,-1894,-4,94,-4660,23,-87,-37,35
521,-1892,-5,94,-4661,23,-87,-38,36
522,-1895,-4,94,-4659,23,-88,-39,35
523,-1895,-3,96,-4656,23,-88,-39,36
524,-1894,-5,96,-4655,23,-87,-39,34
525,-1894,-3,99,-4656,23,-87,-39,34
526,-1894,-5,99,-4655,23,-88,-39,35
527,-1894,-3,101,-4656,23,-88,-39,34
528,-1892,-2,100,-4656,23,-88,-39,33
529,-1892,-4,96,-4657,23,-88,-38,35
530,-1894,-2,94,-4655,23,-88,-38,34
531,-1896,-1,92,-4659,23,-88,-38,34
532,-1896,-2,96,-4656,23,-88,-38,33
533,-1896,0,94,-4659,23,-88,-38,34
534,-1895,1,91,-4656,23,-88,-38,34
535,-1895,-1,91,-4655,23,-87,-38,34
536,-1896,-3,91,-4655,23,-87,-37,34
537,-1894,-3,93,-4656,23,-86,-38,35
538,-1892,-2,96,-4656,23,-88,-38,35
539,-1893,-3,94,-4660,23,-88,-37,34
540,-1893,-4,93,-4659,23,-88,-39,35
541,-1891,-4,91,-4656,23,-89,-37,36
542,-1890,-5,92,-4657,23,-87,-38,35
543,-1892,-5,94,-4657,23,-87,-37,35
544,-1893,-2,92,-4655,23,-87,-38,36
545,-1894,-3,95,-4655,23,-87,-39,35
546,-1895,-4,92,-4653,23,-87,-39,35
547,-1895,-3,93,-4654,23,-87,-38,34
548,-1895,-3,92,-4656,23,-86,-37,35
549,-1895,-1,91,-4657,23,-86,-39,34
550,-1898,-2,91,-4655,23,-88,-38,34
551,-1898,0,92,-4655,23,-88,-38,35
552,-1895,0,91,-4655,23,-89,-39,35
553,-1896,0,91,-4654,23,-89,-38,34
554,-1895,1,91,-4655,23,-88,-39,34
555,-1896,-2,91,-4653,23,-88,-38,34
556,-1896,-1,93,-4652,23,-88,-38,34
557,-1897,0,95,-4655,23,-88,-38,34
558,-1895,0,97,-4655,23,-88,-37,34
559,-1894,-1,96,-4659,23,-88,-38,33
560,-1895,2,96,-4657,23,-87,-39,35
561,-1896,-1,94,-4656,23,-87,-38,34
562,-1895,1,91,-4655,23,-88,-38,34
563,-1895,3,93,-4654,23,-88,-38,35
564,-1894,2,95,-4655,23,-88,-37,35
565,-1897,2,96,-4655,23,-87,-38,36
566,-1897,1,89,-4655,23,-88,-37,35
567,-1896,1,88,-4653,23,-88,-38,35
568,-1897,1,89,-4654,23,-88,-39,35
569,-1895,-1,92,-4651,23,-87,-39,34
570,-1895,-2,91,-4649,23,-87,-39,34
571,-1896,-1,92,-4651,23,-87,-39,34
572,-1896,-3,91,-4653,23,-87,-39,34
573,-1897,-3,88,-4654,23,-88,-39,34
574,-1895,-1,88,-4654,23,-88,-39,34
575,-1896,-2,89,-4653,23,-87,-38,34
576,-1896,-4,97,-4654,23,-88,-38,34
577,-1896,-2,97,-4654,23,-87,-38,34
578,-1898,-3,94,-4652,23,-88,-39,34
579,-1897,-1,94,-4655,23,-88,-39,35
580,-1896,0,92,-4656,23,-88,-41,35
581,-1896,-1,94,-4654,23,-88,-39,35
582,-1896,-2,95,-4655,23,-88,-40,35
583,-1894,-2,93,-4656,23,-87,-39,35
584,-1896,-3,96,-4656,23,-87,-39,35
585,-1895,-3,96,-4655,23,-87,-38,35
586,-1894,-5,93,-4657,23,-87,-38,34
587,-1895,-4,94,-4657,23,-87,-38,35
588,-1898,-4,94,-4658,23,-87,-37,35
589,-1895,-1,94,-4658,23,-88,-38,35
590,-1897,-3,94,-4656,23,-88,-39,35
591,-1897,-2,89,-4655,23,-87,-39,34
592,-1893,-2,92,-4656,23,-87,-39,35
593,-1893,-3,94,-4656,23,-87,-39,35
594,-1894,-3,94,-4655,23,-87,-39,35
595,-1894,-3,94,-4656,23,-86,-38,34
596,-1892,-2,95,-4652,23,-86,-39,34
597,-1894,-2,95,-4654,23,-87,-39,33
598,-1894,-1,94,-4657,23,-87,-39,34
599,-1893,-2,94,-4656,23,-86,-39,34
600,-1890,-3,90,-4655,23,-86,-39,34
601,-1890,-3,92,-4654,23,-87,-40,35
602,-1891,-2,91,-4654,23,-87,-40,36
603,-1892,-1,95,-4654,23,-87,-39,35
604,-1894,0,93,-4653,23,-88,-39,34
605,-1896,1,92,-4655,23,-88,-39,33
606,-1895,-1,91,-4656,23,-88,-39,34
607,-1893,-1,93,-4657,23,-87,-39,33
608,-1894,0,93,-4656,23,-88,-39,34
609,-1893,0,90,-4654,23,-88,-38,33
610,-1895,-1,92,-4655,23,-88,-39,35
611,-1896,-2,94,-4656,23,-87,-38,35
612,-1892,2,93,-4656,23,-87,-39,35
613,-1893,0,96,-4655,23,-87,-38,35
614,-1895,-2,93,-4654,23,-88,-37,36
615,-1897,0,90,-4653,23,-87,-37,35
616,-1894,-2,91,-4655,23,-88,-37,35
617,-1894,-4,93,-4656,23,-87,-37,35
618,-1895,-3,97,-4657,23,-87,-38,35
619,-1895,-2,97,-4658,23,-88,-38,35
620,-1896,-1,96,-4655,23,-88,-38,36
621,-1894,-1,97,-4657,23,-88,-39,37
622,-1894,-1,93,-4656,23,-88,-38,37
623,-1895,-3,96,-4656,23,-88,-37,36
624,-1895,-3,92,-4655,23,-88,-37,34
625,-1894,-5,91,-4651,23,-88,-38,34
626,-1894,-4,89,-4656,23,-87,-38,34
627,-1895,-4,91,-4656,23,-88,-38,33
628,-1897,-4,91,-4656,23,-88,-38,34
629,-1898,-3,92,-4654,23,-88,-38,34
630,-1897,-4,94,-4655,23,-88,-38,34
631,-1898,-3,94,-4655,23,-88,-38,35
632,-1897,-6,93,-4658,23,-87,-38,35
633,-1895,-3,96,-4656,23,-87,-38,34
634,-1896,-2,94,-4654,23,-88,-39,34
635,-1897,-3,94,-4650,23,-87,-39,34
636,-1896,-2,96,-4650,23,-88,-38,35
637,-1893,-2,98,-4652,23,-88,-38,35
638,-1896,-1,95,-4650,23,-87,-38,34
639,-1896,-1,93,-4653,23,-88,-39,33
640,-1898,-1,91,-4653,23,-87,-40,34
641,-1895,1,90,-4654,23,-88,-39,34
642,-1893,-2,91,-4654,23,-88,-39,34
643,-1894,-1,93,-4654,23,-89,-40,34
644,-1894,-1,91,-4659,23,-89,-39,34
645,-1896,-2,92,-4659,23,-88,-39,34
646,-1895,-3,88,-4658,23,-87,-39,34
647,-1892,-4,94,-4654,23,-87,-38,35
648,-1895,-2,96,-4653,23,-87,-40,34
649,-1894,-1,96,-4650,23,-87,-39,35
650,-1896,-2,98,-4653,23,-88,-39,36
651,-1898,-1,99,-4656,23,-88,-39,35
652,-1896,-2,96,-4654,23,-88,-38,35
653,-1895,-5,98,-4658,23,-89,-39,35
654,-1894,-4,96,-4653,23,-89,-38,35
655,-1894,-4,94,-4655,23,-89,-38,34
656,-1893,-3,97,-4654,23,-88,-38,34
657,-1893,-2,94,-4652,23,-87,-38,35
658,-1894,-3,95,-4655,23,-88,-38,35
659,-1895,-5,93,-4656,23,-88,-37,35
660,-1894,-5,91,-4653,23,-88,-38,35
661,-1895,-3,93,-4654,23,-87,-38,34
662,-1895,-3,96,-4652,23,-87,-37,34
663,-1895,-2,94,-4652,23,-87,-37,34
664,-1896,-2,93,-4652,23,-87,-38,34
665,-1898,-2,94,-4652,23,-87,-38,34
666,-1896,0,92,-4653,23,-87,-38,35
667,-1897,0,91,-4652,23,-87,-37,34
668,-1895,1,92,-4654,23,-88,-39,35
669,-1895,0,94,-4656,23,-87,-37,35
670,-1896,-2,95,-4657,23,-87,-38,34
671,-1895,0,94,-4659,23,-87,-38,34
672,-1895,-2,96,-4657,23,-87,-38,34
673,-1896,-4,93,-4655,23,-87,-38,35
674,-1895,-2,95,-4655,23,-87,-38,34
675,-1894,-3,93,-4657,23,-87,-39,34
676,-1895,0,93,-4654,23,-87,-38,35
677,-1894,-3,92,-4653,23,-86,-39,35
678,-1895,-2,93,-4652,23,-86,-39,34
679,-1896,-3,96,-4652,23,-87,-38,35
680,-1896,-4,94,-4654,23,-86,-39,34
681,-1896,-5,93,-4654,23,-86,-39,34
682,-1894,-4,91,-4656,23,-86,-39,34
683,-1894,-3,92,-4655,23,-88,-39,35
684,-1894,-1,90,-4657,23,-88,-38,35
685,-1893,-2,92,-4656,23,-87,-38,35
686,-1894,-1,94,-4655,23,-87,-37,34
687,-1896,-2,93,-4654,23,-87,-38,35
688,-1894,-2,93,-4652,23,-88,-38,35
689,-1893,-3,92,-4654,23,-87,-38,34
690,-1894,-2,90,-4649,23,-87,-39,34
691,-1896,-1,92,-4652,23,-87,-38,34
692,-1896,1,91,-4653,23,-86,-39,35
693,-1896,1,92,-4653,23,-86,-40,35
694,-1895,-1,90,-4654,23,-87,-39,35
695,-1894,3,89,-4654,23,-87,-39,35
696,-1895,0,95,-4655,23,-88,-39,34
697,-1896,-3,93,-4655,23,-88,-39,34
698,-1896,-2,92,-4652,23,-87,-39,35
699,-1895,-3,91,-4651,23,-88,-38,35
700,-1894,-2,92,-4654,23,-88,-39,34
701,-1895,-3,94,-4657,23,-88,-39,35
702,-1894,-2,95,-4654,23,-88,-39,36
703,-1895,-1,92,-4653,23,-88,-38,36
704,-1895,-2,89,-4649,23,-89,-38,36
705,-1896,-1,93,-4653,23,-87,-39,35
706,-1896,0,94,-4652,23,-87,-39,34
707,-1897,-1,91,-4651,23,-87,-40,34
708,-1897,-2,90,-4652,23,-87,-40,34
709,-1897,-2,90,-4653,23,-88,-40,34
710,-1895,-2,93,-4654,23,-88,-38,35
711,-1896,-2,92,-4652,23,-88,-38,34
712,-1896,-3,93,-4655,23,-87,-38,35
713,-1895,-1,94,-4654,23,-87,-38,35
714,-1896,-2,93,-4654,23,-87,-39,34
715,-1893,-2,91,-4655,23,-87,-40,34
716,-1896,-1,88,-4654,23,-87,-39,34
717,-1896,-1,90,-4650,23,-87,-39,34
718,-1895,-2,92,-4646,23,-87,-39,35
719,-1894,-2,93,-4646,23,-87,-38,36
720,-1893,-3,93,-4648,23,-88,-38,36
721,-1894,-3,94,-4648,23,-87,-38,35
722,-1895,1,92,-4647,23,-88,-39,36
723,-1895,0,91,-4646,23,-87,-38,35
724,-1895,0,94,-4647,23,-87,-37,35
725,-1896,-3,98,-4648,23,-87,-38,34
726,-1896,-3,92,-4648,23,-87,-38,35
727,-1896,-1,90,-4650,23,-87,-39,35
728,-1895,-1,86,-4648,23,-86,-39,36
729,-1895,0,91,-4649,23,-86,-38,35
730,-1895,-2,93,-4651,23,-88,-38,35
731,-1895,-1,95,-4651,23,-87,-39,35
732,-1895,-3,93,-4651,23,-87,-39,34
733,-1895,-2,92,-4649,23,-87,-39,34
734,-1894,-1,95,-4648,23,-87,-39,35
735,-1895,-1,93,-4646,23,-88,-38,35
736,-1895,-2,91,-4649,23,-87,-38,35
737,-1896,-3,90,-4652,23,-87,-39,35
738,-1895,-1,90,-4652,23,-86,-39,34
739,-1894,-4,91,-4651,23,-88,-39,35
740,-1894,-1,94,-4648,23,-88,-38,35
741,-1895,-1,96,-4650,23,-88,-38,34
742,-1894,1,96,-4650,23,-87,-38,34
743,-1895,1,95,-4651,23,-87,-39,33
744,-1893,-3,96,-4654,23,-88,-38,33
745,-1895,-1,96,-4654,23,-88,-38,34
746,-1895,-2,95,-4655,23,-88,-39,35
747,-1896,-4,96,-4654,23,-87,-39,35
748,-1896,-3,94,-4654,23,-87,-38,36
749,-1896,-2,91,-4654,23,-88,-38,35
750,-1897,0,90,-4657,23,-88,-40,34
751,-1896,-1,92,-4657,23,-88,-40,35
752,-1894,-2,94,-4656,23,-88,-39,35
753,-1896,-2,93,-4655,23,-88,-38,35
754,-1895,-2,95,-4654,23,-86,-40,34
755,-1892,-2,93,-4653,23,-87,-39,35
756,-1895,-2,93,-4655,23,-86,-38,35
757,-1894,-2,94,-4652,23,-87,-38,35
758,-1895,0,93,-4653,23,-87,-38,34
759,-1895,0,92,-4652,23,-88,-38,35
760,-1893,-1,92,-4651,23,-89,-39,36
761,-1892,-1,94,-4650,23,-89,-39,36
762,-1893,-3,95,-4651,23,-87,-39,35
763,-1893,-1,94,-4653,23,-88,-39,35
764,-1893,-2,92,-4657,23,-87,-38,35
765,-1896,-3,90,-4658,23,-88,-38,34
766,-1894,-2,89,-4654,23,-88,-39,35
767,-1895,-3,92,-4656,23,-87,-37,35
768,-1896,-3,92,-4653,23,-87,-37,35
769,-1894,-3,94,-4652,23,-87,-38,34
770,-1893,-4,88,-4654,23,-88,-38,34
771,-1894,-2,90,-4652,23,-87,-38,33
772,-1895,1,94,-4649,23,-86,-38,35
773,-1896,0,93,-4653,23,-87,-38,35
774,-1897,-1,94,-4652,23,-86,-38,35
775,-1897,-5,94,-4655,23,-87,-38,34
776,-1895,-6,95,-4654,23,-86,-39,34
777,-1896,-4,97,-4652,23,-87,-39,34
778,-1894,-2,95,-4653,23,-87,-38,35
779,-1894,-3,97,-4654,23,-88,-39,35
780,-1894,-3,98,-4654,23,-88,-39,35
781,-1893,-3,101,-4657,23,-88,-39,35
782,-1894,-3,97,-4655,23,-88,-39,35
783,-1894,-1,92,-4651,23,-88,-39,35
784,-1892,-2,90,-4650,23,-88,-40,35
785,-1892,-1,90,-4651,23,-88,-38,35
786,-1893,-2,96,-4652,23,-88,-38,36
787,-1893,-1,94,-4652,23,-88,-38,35
788,-1893,-1,94,-4651,23,-88,-37,35
789,-1894,-3,92,-4654,23,-89,-37,36
790,-1895,-3,95,-4655,23,-89,-39,36
791,-1895,-3,94,-4653,23,-88,-39,35
792,-1896,-4,92,-4651,23,-88,-39,34
793,-1896,-4,92,-4648,23,-87,-39,34
794,-1895,-2,94,-4649,23,-88,-38,34
795,-1895,-4,97,-4651,23,-87,-39,34
796,-1896,-4,95,-4653,23,-87,-40,34
797,-1895,-4,94,-4654,23,-87,-39,35
798,-1895,-6,95,-4652,23,-88,-38,34
799,-1896,-5,93,-4653,23,-88,-36,35
800,-1897,-3,97,-4655,23,-88,-37,34
801,-1897,-4,94,-4652,23,-88,-38,35
802,-1896,-3,93,-4649,23,-89,-37,34
803,-1894,-2,90,-4648,23,-88,-38,34
804,-1892,-1,92,-4649,23,-87,-38,34
805,-1892,-3,93,-4651,23,-87,-38,34
806,-1894,-4,93,-4650,23,-88,-38,35
807,-1896,1,91,-4651,23,-87,-39,34
808,-1895,1,89,-4650,23,-87,-38,35
809,-1894,0,91,-4648,23,-88,-38,34
810,-1894,2,92,-4648,23,-88,-38,35
811,-1894,1,93,-4647,23,-87,-39,35
812,-1893,0,94,-4649,23,-87,-38,35
813,-1894,-1,94,-4648,23,-87,-38,34
814,-1894,1,95,-4651,23,-87,-39,35
815,-1894,0,95,-4653,23,-88,-39,35
816,-1894,-1,94,-4650,23,-89,-39,33
817,-1894,0,93,-4651,23,-88,-39,34
818,-1893,0,94,-4651,23,-89,-38,35
819,-1893,-1,94,-4649,23,-89,-39,34
820,-1893,1,92,-4651,23,-88,-39,35
821,-1894,1,90,-4651,23,-88,-37,34
822,-1894,2,94,-4652,23,-88,-38,35
823,-1895,1,94,-4653,23,-88,-38,35
824,-1895,0,93,-4651,23,-88,-38,36
825,-1894,1,94,-4651,23,-88,-38,35
826,-1894,-1,95,-4655,23,-88,-38,35
827,-1895,-3,92,-4655,23,-86,-39,35
828,-1894,-3,95,-4655,23,-87,-38,34
829,-1894,-5,92,-4654,23,-87,-38,35
830,-1893,-4,92,-4652,23,-87,-39,34
831,-1893,-3,92,-4650,23,-86,-39,35
832,-1892,-1,91,-4651,23,-87,-40,35
833,-1892,-1,91,-4653,23,-87,-38,34
834,-1894,-1,92,-4652,23,-87,-38,35
835,-1893,-2,92,-4652,23,-88,-38,35
836,-1893,-1,91,-4651,23,-88,-39,35
837,-1894,-3,92,-4650,23,-89,-40,35
838,-1893,0,89,-4650,23,-89,-40,35
839,-1893,-2,90,-4648,23,-89,-39,35
840,-1895,-1,92,-4651,23,-88,-40,35
841,-1894,-3,95,-4651,23,-88,-39,34
842,-1895,-3,93,-4652,23,-89,-39,34
843,-1894,-3,94,-4651,23,-89,-38,34
844,-1894,-1,96,-4649,23,-88,-38,34
845,-1893,2,98,-4653,23,-87,-38,34
846,-1893,3,95,-4655,23,-87,-39,34
847,-1895,0,94,-4656,23,-87,-39,34
848,-1892,-1,91,-4652,23,-87,-38,34
849,-1894,-1,91,-4653,23,-86,-38,33
850,-1895,0,91,-4652,23,-87,-39,33
851,-1896,-2,92,-4651,23,-88,-38,33
852,-1897,-2,89,-4652,23,-88,-38,33
853,-1896,-3,88,-4650,23,-89,-39,34
854,-1895,-1,92,-4650,23,-88,-38,35
855,-1893,-2,94,-4653,23,-87,-38,34
856,-1892,-2,93,-4650,23,-88,-38,34
857,-1894,-3,90,-4648,23,-87,-39,35
858,-1895,-2,91,-4648,23,-87,-39,35
859,-1894,-3,94,-4648,23,-87,-38,34
860,-1894,-2,93,-4649,23,-87,-38,34
861,-1895,-3,93,-4653,23,-87,-38,35
862,-1895,-3,94,-4655,23,-87,-37,35
863,-1896,-3,94,-4653,23,-88,-38,35
864,-1894,0,93,-4652,23,-88,-38,35
865,-1893,1,94,-4651,23,-88,-38,35
866,-1895,-2,92,-4648,23,-88,-38,35
867,-1894,-2,92,-4648,23,-89,-39,34
868,-1894,-3,90,-4648,23,-88,-38,34
869,-1895,-1,93,-4648,23,-88,-38,34
870,-1895,-2,96,-4651,23,-88,-39,35
871,-1895,-2,94,-4649,23,-87,-38,35
872,-1894,-1,94,-4648,23,-88,-38,35
873,-1894,-1,94,-4648,23,-86,-39,34
874,-1893,-1,91,-4651,23,-87,-39,34
875,-1895,0,95,-4652,23,-87,-39,34
876,-1895,0,95,-4653,23,-88,-37,34
877,-1896,0,95,-4654,23,-87,-38,34
878,-1897,-1,95,-4654,23,-87,-38,35
879,-1896,0,95,-4654,23,-87,-38,35
880,-1896,-1,94,-4656,23,-88,-38,35
881,-1895,-2,93,-4652,23,-87,-40,35
882,-1894,-3,93,-4652,23,-87,-41,35
883,-1891,-2,89,-4653,23,-87,-40,35
884,-1892,-2,93,-4655,23,-87,-40,35
885,-1895,-2,93,-4657,23,-87,-40,35
886,-1894,0,93,-4655,23,-88,-40,35
887,-1895,1,93,-4655,23,-87,-40,35
888,-1897,1,91,-4652,23,-87,-40,35
889,-1894,0,90,-4653,23,-87,-40,35
890,-1893,0,91,-4650,23,-87,-40,35
891,-1892,1,90,-4651,23,-88,-39,35
892,-1893,2,89,-4649,23,-87,-37,35
893,-1893,1,91,-4649,23,-87,-37,34
894,-1893,1,95,-4646,23,-88,-38,35
895,-1893,-1,97,-4649,23,-88,-38,35
896,-1894,-1,94,-4649,23,-88,-39,34
897,-1893,-2,94,-4651,23,-87,-38,35
898,-1894,-3,93,-4653,23,-87,-38,35
899,-1892,-1,93,-4652,23,-88,-37,35
900,-1892,0,95,-4653,23,-89,-38,35
901,-1893,0,94,-4653,23,-89,-37,35
902,-1896,0,96,-4651,23,-88,-37,36
903,-1895,0,95,-4650,23,-88,-38,36
904,-1894,-1,93,-4649,23,-87,-38,35
905,-1895,-2,93,-4648,23,-88,-38,35
906,-1896,-2,93,-4650,23,-88,-39,35
907,-1896,0,95,-4647,23,-89,-39,36
908,-1893,-1,95,-4646,23,-88,-39,37
909,-1894,-1,96,-4651,23,-87,-39,36
910,-1896,-3,95,-4652,23,-87,-38,35
911,-1895,-1,94,-4648,23,-88,-38,35
912,-1895,-1,93,-4649,23,-89,-38,36
913,-1894,-1,91,-4650,23,-88,-39,35
914,-1893,-1,92,-4648,23,-88,-38,34
915,-1893,-3,90,-4646,23,-88,-37,34
916,-1892,-2,93,-4646,23,-88,-37,35
917,-1893,-1,95,-4648,23,-88,-38,34
918,-1893,-4,92,-4649,23,-87,-38,34
919,-1893,-5,90,-4649,23,-88,-38,35
920,-1894,-4,93,-4650,23,-88,-38,34
921,-1892,-3,94,-4651,23,-88,-38,33
922,-1894,-4,94,-4646,23,-88,-39,34
923,-1894,-1,93,-4651,23,-88,-39,34
924,-1895,0,96,-4651,23,-88,-39,35
925,-1896,-1,94,-4651,23,-88,-40,34
926,-1896,-1,93,-4649,23,-87,-38,35
927,-1896,-3,93,-4646,23,-87,-39,35
928,-1897,-2,92,-4650,23,-88,-38,35
929,-1897,-3,92,-4651,23,-88,-39,36
930,-1894,-4,90,-4651,23,-88,-40,36
931,-1894,-1,92,-4650,23,-88,-39,36
932,-1895,-2,90,-4650,23,-89,-38,36
933,-1893,-2,91,-4648,23,-88,-38,36
934,-1896,-2,91,-4648,23,-88,-38,36
935,-1894,-1,91,-4648,23,-87,-38,36
936,-1895,1,95,-4649,23,-87,-38,36
937,-1896,-1,95,-4648,23,-87,-38,36
938,-1896,-3,93,-4647,23,-87,-38,34
939,-1895,-1,96,-4650,23,-87,-39,34
940,-1894,-2,96,-4650,23,-88,-39,35
941,-1893,-5,94,-4649,23,-88,-40,35
942,-1896,-4,93,-4649,23,-87,-39,35
943,-1894,-5,90,-4651,23,-88,-39,35
944,-1894,-3,92,-4648,23,-89,-38,34
945,-1895,-3,88,-4648,23,-88,-38,34
946,-1893,-1,91,-4647,23,-88,-39,33
947,-1894,-2,93,-4648,23,-88,-39,33
948,-1893,-3,96,-4649,23,-88,-39,33
949,-1894,-3,94,-4646,23,-88,-39,34
950,-1894,-2,94,-4649,23,-87,-39,34
951,-1893,-4,95,-4653,23,-87,-39,33
952,-1892,-4,97,-4651,23,-87,-38,34
953,-1895,-4,95,-4655,23,-87,-39,34
954,-1895,-3,94,-4652,23,-87,-38,33
955,-1895,-2,93,-4646,23,-87,-37,34
956,-1895,-2,91,-4647,23,-88,-37,34
957,-1897,-2,92,-4648,23,-87,-39,36
958,-1895,-3,96,-4649,23,-88,-38,35
959,-1895,-1,94,-4646,23,-88,-38,35
960,-1896,-1,95,-4648,23,-88,-38,36
961,-1895,0,93,-4649,23,-88,-38,35
962,-1895,1,94,-4651,23,-89,-38,34
963,-1894,0,92,-4651,23,-89,-38,34
964,-1895,-3,92,-4648,23,-88,-40,33
965,-1896,-4,92,-4649,23,-88,-39,33
966,-1895,-3,96,-4648,23,-88,-38,34
967,-1897,-2,93,-4650,23,-88,-38,35
968,-1899,-2,91,-4651,23,-89,-40,35
969,-1897,-2,96,-4650,23,-88,-39,35
970,-1897,0,95,-4646,23,-87,-39,35
971,-1895,0,92,-4646,23,-87,-38,35
972,-1898,-1,94,-4643,23,-88,-38,35
973,-1897,-3,92,-4646,23,-87,-37,34
974,-1896,-3,90,-4645,23,-87,-38,35
975,-1897,-2,91,-4644,23,-87,-38,35
976,-1897,-3,92,-4645,23,-88,-38,34
977,-1897,-1,93,-4644,23,-86,-38,34
978,-1896,-3,96,-4647,23,-87,-39,35
979,-1896,-3,90,-4649,23,-87,-38,35
980,-1898,-4,90,-4648,23,-87,-39,35
981,-1895,-2,94,-4647,23,-88,-38,35
982,-1895,-2,94,-4645,23,-88,-38,35
983,-1897,0,93,-4646,23,-89,-37,35
984,-1897,0,95,-4641,23,-89,-38,34
985,-1895,0,95,-4641,23,-88,-38,35
986,-1895,-3,94,-4641,23,-88,-39,35
987,-1894,-4,95,-4647,23,-89,-38,35
988,-1893,-4,93,-4645,23,-89,-38,35
989,-1894,-2,94,-4644,23,-88,-38,35
990,-1892,-2,95,-4646,23,-88,-37,35
991,-1894,-1,97,-4648,23,-88,-38,34
992,-1895,0,95,-4643,23,-88,-38,34
993,-1895,2,94,-4646,23,-89,-39,34
994,-1894,0,91,-4643,23,-88,-39,34
995,-1896,0,96,-4644,23,-87,-39,34
996,-1897,-1,95,-4646,23,-87,-39,34
997,-1895,-1,92,-4646,23,-88,-38,34
998,-1897,-2,95,-4647,23,-89,-39,35
