,acc_X,acc_Y,acc_Z,temp,tempC,gyr_X,gyr_Y,gyr_Z
0,-7573,-5,372,-4583,23,-87,-39,34
1,-7579,-10,376,-4585,23,-88,-39,34
2,-7580,-17,375,-4585,23,-88,-39,34
3,-7583,-14,369,-4581,23,-88,-38,34
4,-7582,-16,375,-4580,23,-89,-39,34
5,-7575,-16,371,-4578,23,-89,-38,35
6,-7575,-12,375,-4579,23,-89,-37,35
7,-7568,-6,377,-4579,23,-88,-40,35
8,-7566,0,360,-4579,23,-88,-41,35
9,-7569,-5,354,-4580,23,-88,-41,35
10,-7560,-7,364,-4582,23,-87,-40,35
11,-7569,-9,365,-4583,23,-88,-39,36
12,-7566,-1,364,-4581,23,-88,-39,35
13,-7576,-1,354,-4580,23,-87,-39,35
14,-7575,-1,375,-4584,23,-87,-39,35
15,-7576,-5,378,-4586,23,-88,-39,35
16,-7574,-8,391,-4582,23,-87,-39,35
17,-7578,-13,384,-4578,23,-86,-40,35
18,-7575,-12,388,-4580,23,-88,-40,34
19,-7568,-8,392,-4579,23,-87,-41,34
20,-7573,-7,404,-4582,23,-87,-40,33
21,-7580,-4,384,-4579,23,-86,-39,34
22,-7585,-14,384,-4579,23,-87,-40,34
23,-7578,-8,384,-4580,23,-88,-39,34
24,-7591,-5,391,-4582,23,-87,-39,35
25,-7588,-10,386,-4581,23,-87,-38,35
26,-7584,-17,400,-4579,23,-87,-39,34
27,-7582,-15,407,-4578,23,-87,-39,34
28,-7580,-10,388,-4577,23,-87,-39,35
29,-7578,-1,387,-4578,23,-88,-39,34
30,-7565,-2,382,-4579,23,-88,-39,33
31,-7569,-5,385,-4581,23,-88,-40,34
32,-7568,-9,375,-4580,23,-88,-40,34
33,-7569,-7,377,-4583,23,-88,-39,35
34,-7576,-5,377,-4582,23,-89,-40,35
35,-7577,-8,367,-4577,23,-87,-39,35
36,-7582,0,371,-4578,23,-87,-39,35
37,-7582,-4,384,-4580,23,-88,-39,36
38,-7585,-8,382,-4579,23,-88,-39,35
39,-7581,-8,380,-4578,23,-87,-39,34
40,-7579,-15,381,-4577,23,-87,-39,34
41,-7590,-8,370,-4581,23,-87,-39,34
42,-7590,-4,371,-4582,23,-87,-39,34
43,-7591,-11,382,-4585,23,-88,-39,34
44,-7589,-4,371,-4582,23,-88,-39,34
45,-7576,-6,371,-4582,23,-88,-39,34
46,-7572,-5,383,-4580,23,-88,-40,34
47,-7567,-6,392,-4579,23,-88,-38,34
48,-7571,0,382,-4582,23,-88,-39,33
49,-7568,1,376,-4580,23,-87,-39,34
50,-7565,-4,368,-4581,23,-86,-39,35
51,-7570,-6,376,-4582,23,-87,-40,35
52,-7577,-7,370,-4578,23,-86,-39,35
53,-7575,-10,375,-4583,23,-85,-38,35
54,-7576,-4,367,-4582,23,-86,-39,35
55,-7573,-8,373,-4578,23,-86,-37,34
56,-7571,-12,375,-4580,23,-87,-38,33
57,-7568,-11,377,-4581,23,-87,-39,34
58,-7570,-8,370,-4580,23,-87,-40,33
59,-7570,-11,367,-4580,23,-87,-39,34
60,-7567,-12,378,-4581,23,-88,-40,34
61,-7568,-12,369,-4584,23,-89,-40,35
62,-7578,-8,375,-4583,23,-88,-40,35
63,-7583,-8,374,-4582,23,-88,-40,35
64,-7575,-12,372,-4585,23,-87,-41,34
65,-7579,-11,367,-4585,23,-87,-39,33
66,-7569,-14,373,-4584,23,-87,-40,34
67,-7575,-12,391,-4585,23,-87,-39,34
68,-7574,-15,404,-4584,23,-87,-39,34
69,-7574,-18,401,-4585,23,-87,-39,35
70,-7567,-5,396,-4581,23,-87,-39,34
71,-7572,-1,396,-4584,23,-87,-40,34
72,-7582,-2,385,-4583,23,-87,-39,34
73,-7575,-3,387,-4585,23,-88,-39,33
74,-7581,-11,394,-4584,23,-88,-39,34
75,-7575,-8,369,-4583,23,-89,-40,35
76,-7582,-16,371,-4579,23,-89,-39,35
77,-7588,-6,374,-4580,23,-88,-40,35
78,-7585,-14,372,-4583,23,-87,-40,35
79,-7580,-13,371,-4581,23,-87,-38,34
80,-7577,-6,379,-4581,23,-87,-39,33
81,-7575,-6,382,-4583,23,-87,-39,34
82,-7572,-12,388,-4584,23,-87,-40,33
83,-7577,-12,380,-4583,23,-87,-40,34
84,-7571,-6,383,-4582,23,-88,-40,34
85,-7570,-14,385,-4577,23,-87,-40,35
86,-7578,-12,392,-4579,23,-87,-38,35
87,-7575,-16,394,-4581,23,-87,-38,35
88,-7572,-23,376,-4584,23,-87,-39,35
89,-7574,-18,386,-4585,23,-86,-38,35
90,-7572,-15,384,-4587,23,-87,-38,35
91,-7579,-13,382,-4585,23,-87,-39,35
92,-7580,-11,388,-4586,23,-87,-39,34
93,-7575,-8,383,-4584,23,-87,-38,33
94,-7576,-8,381,-4583,23,-88,-38,34
95,-7577,-6,370,-4581,23,-87,-38,34
96,-7582,-4,384,-4577,23,-87,-39,34
97,-7586,-7,382,-4578,23,-87,-38,34
98,-7578,-3,384,-4574,23,-86,-38,34
99,-7579,-6,390,-4577,23,-86,-39,35
100,-7581,-5,397,-4575,23,-85,-39,35
101,-7578,-4,395,-4577,23,-86,-38,36
102,-7572,-4,387,-4583,23,-88,-38,35
103,-7582,-2,372,-4584,23,-88,-38,35
104,-7579,-10,365,-4583,23,-87,-39,34
105,-7575,-6,368,-4581,23,-88,-39,34
106,-7577,-10,385,-4579,23,-86,-39,35
107,-7579,-15,373,-4579,23,-86,-38,35
108,-7589,-3,390,-4581,23,-86,-38,35
109,-7584,-6,380,-4578,23,-86,-39,34
110,-7586,-8,384,-4581,23,-86,-39,34
111,-7583,-8,387,-4581,23,-87,-39,34
112,-7581,-13,389,-4583,23,-86,-39,35
113,-7582,-7,396,-4584,23,-87,-38,33
114,-7580,-6,385,-4581,23,-87,-38,34
115,-7576,3,378,-4580,23,-87,-38,35
116,-7577,-5,370,-4580,23,-88,-39,35
117,-7581,-9,371,-4583,23,-87,-39,35
118,-7588,-6,365,-4585,23,-88,-38,34
119,-7582,3,359,-4583,23,-88,-38,34
120,-7574,7,362,-4581,23,-87,-39,34
121,-7574,6,354,-4582,23,-88,-39,34
122,-7566,1,362,-4582,23,-88,-39,34
123,-7573,-4,369,-4584,23,-89,-39,33
124,-7572,-2,365,-4584,23,-88,-40,34
125,-7573,-7,371,-4580,23,-89,-39,34
126,-7575,-16,382,-4584,23,-88,-39,34
127,-7577,-11,379,-4582,23,-88,-39,34
128,-7567,-2,387,-4582,23,-89,-40,33
129,-7575,-3,390,-4583,23,-89,-38,35
130,-7586,-13,378,-4586,23,-89,-38,34
131,-7574,-20,372,-4584,23,-88,-39,34
132,-7571,-8,362,-4583,23,-88,-39,34
133,-7576,-4,364,-4581,23,-87,-38,35
134,-7582,-9,365,-4583,23,-88,-39,34
135,-7570,-13,374,-4582,23,-88,-38,34
136,-7570,-10,380,-4581,23,-88,-39,34
137,-7567,0,390,-4583,23,-87,-38,35
138,-7569,-5,387,-4578,23,-87,-39,34
139,-7571,-15,392,-4583,23,-87,-39,34
140,-7569,-10,375,-4583,23,-87,-40,34
141,-7575,-13,360,-4580,23,-87,-40,34
142,-7572,-15,371,-4581,23,-87,-39,34
143,-7577,-13,374,-4585,23,-86,-40,34
144,-7575,-4,370,-4583,23,-87,-39,34
145,-7572,-5,377,-4582,23,-87,-40,33
146,-7577,-11,369,-4580,23,-87,-39,33
147,-7577,-14,366,-4584,23,-88,-39,34
148,-7575,-8,355,-4582,23,-87,-39,34
149,-7579,-10,376,-4585,23,-88,-38,35
150,-7569,-9,395,-4586,23,-87,-39,35
151,-7573,-10,380,-4588,23,-88,-38,35
152,-7574,-14,366,-4585,23,-89,-39,36
153,-7584,-6,373,-4584,23,-88,-39,36
154,-7580,-3,376,-4586,23,-87,-39,35
155,-7586,4,358,-4583,23,-87,-40,35
156,-7586,-3,366,-4584,23,-88,-40,34
157,-7578,-6,371,-4582,23,-87,-41,35
158,-7578,-4,362,-4583,23,-88,-40,35
159,-7582,-6,358,-4579,23,-88,-41,34
160,-7583,-9,361,-4580,23,-88,-40,34
161,-7577,-4,367,-4584,23,-88,-39,33
162,-7573,-6,375,-4582,23,-88,-38,34
163,-7575,-3,379,-4580,23,-87,-37,34
164,-7570,1,369,-4578,23,-87,-38,34
165,-7579,-5,375,-4579,23,-87,-38,35
166,-7580,-5,387,-4577,23,-87,-39,35
167,-7572,-5,371,-4576,23,-86,-38,35
168,-7570,-11,387,-4578,23,-86,-39,33
169,-7583,-15,378,-4579,23,-87,-39,34
170,-7581,-11,380,-4581,23,-88,-38,33
171,-7575,-9,378,-4582,23,-88,-38,33
172,-7573,-1,357,-4583,23,-87,-39,34
173,-7575,-2,355,-4582,23,-87,-40,34
174,-7575,-12,362,-4581,23,-88,-39,34
175,-7579,-12,372,-4581,23,-87,-38,34
176,-7575,-12,376,-4581,23,-87,-38,34
177,-7578,-15,384,-4579,23,-88,-39,35
178,-7572,-13,382,-4581,23,-88,-37,35
179,-7578,-7,381,-4581,23,-88,-38,35
180,-7572,-11,396,-4579,23,-87,-37,35
181,-7573,-1,390,-4579,23,-87,-38,35
182,-7580,3,387,-4581,23,-87,-38,35
183,-7573,-6,403,-4577,23,-87,-38,34
184,-7568,0,398,-4577,23,-86,-38,35
185,-7565,5,386,-4578,23,-87,-39,35
186,-7564,2,376,-4575,23,-87,-40,36
187,-7569,-6,371,-4577,23,-88,-39,36
188,-7566,-9,389,-4579,23,-88,-39,35
189,-7578,2,397,-4579,23,-88,-39,35
190,-7582,-3,385,-4579,23,-87,-39,35
191,-7576,-8,375,-4582,23,-87,-39,36
192,-7579,-8,375,-4585,23,-87,-38,35
193,-7585,-7,388,-4585,23,-87,-38,34
194,-7579,-9,401,-4587,23,-87,-38,35
195,-7581,-4,387,-4586,23,-87,-39,35
196,-7574,-5,390,-4584,23,-87,-39,34
197,-7576,-9,393,-4582,23,-88,-39,34
198,-7578,-12,391,-4582,23,-87,-39,35
199,-7583,-10,383,-4579,23,-88,-39,35
200,-7576,-7,383,-4579,23,-87,-40,35
201,-7577,-8,397,-4581,23,-87,-39,35
202,-7581,-11,380,-4582,23,-88,-39,35
203,-7582,-6,389,-4581,23,-87,-39,34
204,-7582,-7,378,-4582,23,-87,-40,34
205,-7587,-9,365,-4582,23,-87,-40,34
206,-7587,-4,368,-4582,23,-86,-40,35
207,-7593,-1,368,-4583,23,-85,-39,35
208,-7580,5,367,-4583,23,-87,-38,35
209,-7583,5,385,-4578,23,-87,-39,35
210,-7585,-13,360,-4583,23,-86,-39,35
211,-7588,-19,360,-4578,23,-87,-39,36
212,-7586,-4,379,-4579,23,-86,-40,35
213,-7586,-8,378,-4582,23,-87,-39,35
214,-7584,-14,394,-4584,23,-86,-39,35
215,-7587,-7,391,-4586,23,-88,-39,35
216,-7582,-5,381,-4586,23,-88,-41,34
217,-7581,0,382,-4584,23,-88,-39,34
218,-7589,-7,372,-4582,23,-88,-39,34
219,-7579,-11,373,-4582,23,-88,-38,34
220,-7578,-10,360,-4584,23,-88,-38,35
221,-7584,-10,363,-4583,23,-87,-38,35
222,-7574,-4,368,-4586,23,-87,-38,36
223,-7572,-5,364,-4585,23,-86,-37,35
224,-7573,-4,385,-4585,23,-88,-37,34
225,-7578,-4,381,-4586,23,-87,-38,35
226,-7584,-2,368,-4589,23,-87,-38,35
227,-7577,-4,379,-4587,23,-88,-39,35
228,-7568,-8,382,-4583,23,-87,-39,35
229,-7568,-8,388,-4583,23,-88,-39,36
230,-7575,-3,383,-4582,23,-88,-39,36
231,-7576,-10,378,-4585,23,-89,-38,35
232,-7570,-5,376,-4586,23,-88,-38,35
233,-7579,-12,377,-4586,23,-89,-38,34
234,-7582,1,385,-4588,23,-88,-38,35
235,-7582,-4,382,-4589,23,-88,-38,35
236,-7583,-10,378,-4588,23,-88,-39,35
237,-7588,-2,372,-4589,23,-88,-38,35
238,-7593,-1,367,-4585,23,-88,-38,35
239,-7589,7,362,-4585,23,-88,-38,35
240,-7581,9,355,-4583,23,-89,-38,35
241,-7573,-7,358,-4588,23,-89,-39,35
242,-7581,-5,377,-4587,23,-88,-40,35
243,-7574,-6,371,-4586,23,-89,-40,35
244,-7574,-10,375,-4585,23,-89,-40,35
245,-7574,-12,378,-4585,23,-88,-39,35
246,-7571,-15,368,-4587,23,-88,-39,35
247,-7566,-4,368,-4586,23,-88,-39,36
248,-7569,-1,363,-4583,23,-88,-38,36
249,-7576,-1,359,-4584,23,-88,-40,35
250,-7579,-1,356,-4585,23,-88,-39,34
251,-7580,-2,365,-4585,23,-89,-39,35
252,-7585,-8,381,-4580,23,-87,-39,34
253,-7588,-12,373,-4583,23,-87,-38,34
254,-7588,-8,379,-4585,23,-86,-38,33
255,-7590,-10,374,-4583,23,-86,-39,34
256,-7585,-9,376,-4584,23,-88,-39,35
257,-7581,-9,382,-4583,23,-89,-39,36
258,-7578,-8,382,-4581,23,-89,-40,35
259,-7578,-5,388,-4580,23,-88,-40,35
260,-7578,-5,383,-4582,23,-89,-39,34
261,-7580,-3,369,-4580,23,-88,-38,35
262,-7575,-6,374,-4584,23,-88,-38,35
263,-7579,1,374,-4584,23,-87,-38,35
264,-7573,-2,366,-4583,23,-88,-39,35
265,-7569,-4,370,-4584,23,-88,-39,36
266,-7573,-9,360,-4584,23,-88,-38,35
267,-7577,-1,367,-4585,23,-88,-38,36
268,-7581,1,376,-4583,23,-87,-38,35
269,-7577,-6,380,-4581,23,-88,-38,36
270,-7585,-1,384,-4583,23,-87,-38,35
271,-7581,-12,385,-4584,23,-87,-38,35
272,-7576,-9,387,-4582,23,-88,-38,35
273,-7574,-5,380,-4582,23,-86,-38,35
274,-7573,-6,386,-4584,23,-87,-39,35
275,-7573,-7,374,-4586,23,-88,-40,35
276,-7572,-12,374,-4586,23,-87,-39,34
277,-7581,-13,376,-4585,23,-88,-39,34
278,-7581,-7,387,-4582,23,-88,-39,34
279,-7578,-10,367,-4582,23,-88,-40,34
280,-7580,0,373,-4580,23,-88,-40,34
281,-7582,-5,385,-4582,23,-87,-37,34
282,-7586,-14,390,-4586,23,-88,-37,34
283,-7581,-13,385,-4585,23,-88,-38,35
284,-7576,-13,386,-4582,23,-88,-39,35
285,-7576,-9,392,-4583,23,-87,-39,35
286,-7580,-3,390,-4581,23,-88,-40,34
287,-7573,0,380,-4580,23,-89,-41,34
288,-7573,5,374,-4582,23,-88,-40,34
289,-7569,3,385,-4580,23,-88,-39,35
290,-7568,-1,387,-4581,23,-88,-39,35
291,-7572,-6,379,-4583,23,-88,-39,34
292,-7565,-4,368,-4586,23,-88,-38,34
293,-7568,-3,380,-4585,23,-88,-39,35
294,-7568,-11,381,-4582,23,-87,-39,36
295,-7569,-11,367,-4583,23,-88,-38,35
296,-7574,-13,368,-4584,23,-89,-38,35
297,-7574,-12,367,-4585,23,-88,-37,34
298,-7574,1,371,-4583,23,-87,-39,34
299,-7572,8,377,-4583,23,-88,-39,34
300,-7582,0,367,-4582,23,-88,-39,34
301,-7587,3,382,-4584,23,-89,-38,34
302,-7577,0,385,-4582,23,-89,-38,34
303,-7583,2,388,-4579,23,-88,-38,35
304,-7587,-1,377,-4581,23,-88,-38,34
305,-7590,-2,367,-4580,23,-89,-38,35
306,-7586,-4,363,-4582,23,-88,-38,36
307,-7582,-2,365,-4578,23,-88,-38,36
308,-7586,-8,361,-4579,23,-88,-39,35
309,-7576,-4,362,-4581,23,-87,-38,34
310,-7580,-9,364,-4581,23,-88,-38,34
311,-7575,-3,386,-4579,23,-88,-39,34
312,-7576,-4,382,-4580,23,-88,-39,34
313,-7570,-7,378,-4581,23,-88,-39,35
314,-7569,-4,371,-4586,23,-88,-40,35
315,-7570,-6,370,-4585,23,-88,-39,35
316,-7574,-6,382,-4585,23,-89,-38,34
317,-7578,-7,370,-4581,23,-88,-39,34
318,-7577,-6,381,-4584,23,-88,-38,34
319,-7574,-10,375,-4584,23,-87,-39,36
320,-7580,-11,369,-4582,23,-86,-39,35
321,-7581,-14,373,-4583,23,-86,-39,35
322,-7585,-11,378,-4582,23,-87,-39,35
323,-7586,-12,373,-4580,23,-88,-39,35
324,-7583,-6,384,-4581,23,-87,-39,35
325,-7586,-5,377,-4583,23,-87,-39,33
326,-7581,-7,373,-4582,23,-88,-39,33
327,-7581,-12,377,-4579,23,-88,-40,33
328,-7571,-9,369,-4581,23,-87,-39,33
329,-7573,-5,366,-4583,23,-87,-38,32
330,-7566,-3,380,-4585,23,-88,-39,33
331,-7576,-4,386,-4585,23,-89,-39,34
332,-7578,2,372,-4582,23,-88,-39,34
333,-7576,-4,377,-4583,23,-90,-40,35
334,-7580,-3,389,-4581,23,-88,-39,34
335,-7575,2,379,-4579,23,-87,-40,35
336,-7580,-8,381,-4580,23,-87,-39,35
337,-7572,-2,381,-4580,23,-87,-39,34
338,-7560,0,389,-4582,23,-87,-39,34
339,-7564,0,382,-4581,23,-88,-39,35
340,-7569,-11,373,-4583,23,-87,-39,35
341,-7574,-6,376,-4582,23,-88,-39,34
342,-7566,-3,374,-4581,23,-88,-39,34
343,-7579,4,381,-4583,23,-87,-39,33
344,-7578,-4,376,-4582,23,-88,-39,34
345,-7575,-8,384,-4582,23,-88,-40,34
346,-7575,-5,384,-4580,23,-87,-40,35
347,-7579,-1,374,-4581,23,-88,-40,34
348,-7576,-6,379,-4580,23,-87,-40,34
349,-7583,-15,373,-4581,23,-87,-38,33
350,-7586,-20,383,-4585,23,-87,-39,33
351,-7594,-17,379,-4583,23,-87,-38,33
352,-7590,-2,376,-4584,23,-86,-38,34
353,-7584,-10,381,-4586,23,-88,-38,34
354,-7588,-2,371,-4584,23,-88,-38,34
355,-7581,-4,388,-4583,23,-87,-38,35
356,-7571,-5,376,-4582,23,-87,-38,36
357,-7582,-6,377,-4578,23,-87,-38,35
358,-7588,-9,379,-4574,23,-87,-38,35
359,-7581,-11,395,-4575,23,-88,-38,35
360,-7568,-5,373,-4580,23,-88,-39,35
361,-7573,-12,363,-4584,23,-88,-38,35
362,-7583,-8,366,-4581,23,-87,-39,34
363,-7590,-8,362,-4579,23,-87,-39,34
364,-7577,-14,385,-4581,23,-87,-39,33
365,-7569,-10,392,-4578,23,-86,-39,34
366,-7580,-14,387,-4578,23,-87,-39,34
367,-7575,-13,361,-4576,23,-88,-39,34
368,-7575,-12,358,-4579,23,-87,-37,34
369,-7579,-15,363,-4581,23,-88,-38,34
370,-7569,-15,377,-4577,23,-87,-39,35
371,-7574,-10,362,-4575,23,-87,-38,35
372,-7577,-15,367,-4576,23,-87,-40,34
373,-7578,-9,379,-4578,23,-87,-39,34
374,-7585,-10,390,-4579,23,-87,-39,34
375,-7574,-6,377,-4578,23,-87,-40,34
376,-7573,-4,370,-4580,23,-86,-39,34
377,-7575,-10,364,-4581,23,-86,-40,35
378,-7575,-14,381,-4578,23,-87,-39,35
379,-7573,-8,381,-4578,23,-87,-38,36
380,-7573,-3,381,-4584,23,-87,-38,34
381,-7576,-2,382,-4586,23,-88,-38,35
382,-7577,-7,373,-4587,23,-87,-38,34
383,-7566,-11,371,-4583,23,-87,-37,34
384,-7566,-20,380,-4582,23,-87,-38,33
385,-7568,-12,371,-4584,23,-87,-39,34
386,-7575,-16,376,-4581,23,-87,-39,34
387,-7577,-12,372,-4583,23,-88,-39,34
388,-7575,-9,368,-4581,23,-88,-39,35
389,-7573,-2,373,-4581,23,-87,-40,34
390,-7583,5,359,-4580,23,-87,-40,36
391,-7587,4,360,-4582,23,-88,-38,35
392,-7586,0,369,-4581,23,-87,-39,35
393,-7581,-13,390,-4581,23,-86,-39,34
394,-7580,-10,381,-4583,23,-87,-39,34
395,-7577,-12,393,-4579,23,-87,-39,34
396,-7580,-20,382,-4580,23,-87,-39,35
397,-7577,-14,390,-4581,23,-88,-39,35
398,-7572,-10,392,-4583,23,-87,-39,34
399,-7576,-7,392,-4583,23,-87,-38,33
400,-7578,-8,387,-4585,23,-87,-39,34
401,-7579,-6,385,-4584,23,-86,-40,35
402,-7568,-6,392,-4583,23,-88,-39,35
403,-7577,-15,389,-4579,23,-89,-39,35
404,-7572,-13,399,-4583,23,-88,-39,35
405,-7571,-4,384,-4584,23,-87,-38,35
406,-7563,-9,387,-4582,23,-87,-38,35
407,-7573,-2,377,-4581,23,-87,-39,34
408,-7577,-12,385,-4583,23,-87,-40,35
409,-7572,-17,400,-4582,23,-88,-41,34
410,-7584,-10,387,-4585,23,-87,-39,34
411,-7576,-8,379,-4586,23,-88,-39,34
412,-7567,-1,382,-4583,23,-88,-39,34
413,-7572,-8,380,-4583,23,-89,-39,34
414,-7578,-4,366,-4583,23,-90,-39,34
415,-7573,-6,369,-4585,23,-88,-38,34
416,-7573,-2,376,-4587,23,-89,-39,35
417,-7574,-6,373,-4586,23,-89,-39,35
418,-7582,-4,367,-4585,23,-88,-38,34
419,-7577,-8,369,-4584,23,-89,-38,35
420,-7577,-11,378,-4583,23,-89,-39,35
421,-7571,-10,377,-4585,23,-87,-39,34
422,-7569,-19,391,-4585,23,-87,-39,35
423,-7578,-6,390,-4583,23,-88,-39,34
424,-7585,-12,383,-4581,23,-87,-37,34
425,-7577,-7,381,-4579,23,-87,-38,33
426,-7580,-1,379,-4581,23,-88,-38,34
427,-7580,-9,390,-4580,23,-88,-39,33
428,-7574,-9,380,-4584,23,-88,-38,33
429,-7567,-14,379,-4583,23,-87,-37,34
430,-7573,-21,380,-4586,23,-88,-38,35
431,-7578,-6,384,-4589,23,-87,-38,34
432,-7577,-5,380,-4588,23,-87,-38,34
433,-7574,0,372,-4588,23,-87,-38,34
434,-7572,-1,373,-4584,23,-87,-38,34
435,-7579,-2,383,-4583,23,-87,-38,34
436,-7575,1,384,-4581,23,-87,-38,35
437,-7582,-13,367,-4582,23,-87,-39,35
438,-7585,-7,385,-4580,23,-87,-38,34
439,-7583,-7,390,-4583,23,-88,-39,34
440,-7591,-7,395,-4586,23,-88,-38,35
441,-7593,-3,384,-4583,23,-88,-39,35
442,-7574,-5,376,-4582,23,-88,-38,35
443,-7569,-6,389,-4581,23,-87,-39,35
444,-7576,-8,381,-4580,23,-87,-39,35
445,-7578,-11,390,-4580,23,-88,-38,35
446,-7577,0,382,-4580,23,-87,-39,34
447,-7577,-5,371,-4582,23,-88,-38,35
448,-7580,1,376,-4587,23,-87,-38,34
449,-7583,-4,393,-4589,23,-87,-39,34
450,-7585,-2,379,-4585,23,-88,-40,34
451,-7573,-2,384,-4585,23,-89,-40,34
452,-7572,6,381,-4586,23,-88,-39,34
453,-7577,-1,379,-4585,23,-89,-39,34
454,-7570,3,371,-4584,23,-88,-38,35
455,-7570,-2,366,-4584,23,-88,-39,36
456,-7577,-1,375,-4585,23,-88,-39,35
457,-7580,-2,369,-4585,23,-88,-39,35
458,-7583,-9,375,-4585,23,-87,-38,34
459,-7585,-9,377,-4588,23,-88,-38,35
460,-7583,-9,361,-4586,23,-88,-38,35
461,-7591,-9,365,-4585,23,-88,-39,35
462,-7585,-9,370,-4584,23,-88,-39,35
463,-7582,-6,365,-4586,23,-87,-38,35
464,-7579,-1,366,-4587,23,-88,-39,35
465,-7572,3,383,-4588,23,-88,-38,34
466,-7580,-5,383,-4589,23,-87,-38,35
467,-7580,-8,379,-4586,23,-88,-38,35
468,-7573,-2,370,-4585,23,-88,-38,34
469,-7570,-6,368,-4582,23,-88,-38,34
470,-7578,-7,367,-4582,23,-87,-39,35
471,-7577,-4,371,-4582,23,-87,-39,34
472,-7585,-8,380,-4584,23,-88,-39,34
473,-7579,-1,390,-4584,23,-88,-39,34
474,-7583,-3,389,-4583,23,-88,-40,34
475,-7582,-4,378,-4584,23,-88,-39,34
476,-7585,3,371,-4585,23,-87,-39,34
477,-7580,6,366,-4586,23,-88,-39,34
478,-7577,-5,370,-4585,23,-88,-39,33
479,-7575,-4,372,-4584,23,-89,-39,34
480,-7571,-7,382,-4583,23,-88,-39,34
481,-7583,-8,389,-4583,23,-88,-40,34
482,-7583,-9,386,-4582,23,-88,-39,35
483,-7573,-7,390,-4584,23,-88,-39,35
484,-7581,-13,382,-4584,23,-87,-39,34
485,-7574,-7,380,-4582,23,-89,-39,34
486,-7577,-1,369,-4581,23,-89,-39,34
487,-7589,-3,368,-4582,23,-88,-38,35
488,-7589,-9,360,-4578,23,-88,-38,34
489,-7584,-9,371,-4581,23,-87,-38,35
490,-7587,-3,373,-4582,23,-87,-38,35
491,-7574,-8,390,-4585,23,-88,-38,35
492,-7576,-6,389,-4585,23,-89,-38,34
493,-7577,-6,380,-4583,23,-88,-39,33
494,-7584,-6,379,-4582,23,-88,-39,33
495,-7582,-5,376,-4581,23,-88,-39,33
496,-7580,-1,389,-4579,23,-88,-39,33
497,-7578,3,397,-4580,23,-87,-38,34
498,-7579,-4,396,-4581,23,-88,-39,33
499,-7580,-2,387,-4582,23,-89,-38,33
500,-7583,3,390,-4583,23,-88,-37,34
501,-7578,-1,383,-4583,23,-88,-38,34
502,-7577,-4,378,-4581,23,-89,-38,35
503,-7569,1,385,-4579,23,-89,-38,33
504,-7582,0,390,-4581,23,-88,-38,34
505,-7584,-1,381,-4578,23,-88,-38,35
506,-7586,-13,382,-4581,23,-88,-38,35
507,-7584,-9,382,-4581,23,-88,-39,35
508,-7585,-15,379,-4584,23,-89,-38,35
509,-7589,-4,389,-4586,23,-88,-38,35
510,-7582,3,403,-4583,23,-88,-39,35
511,-7582,-1,389,-4582,23,-88,-39,35
512,-7575,-3,388,-4582,23,-87,-39,34
513,-7572,-8,377,-4583,23,-88,-40,35
514,-7573,2,385,-4581,23,-87,-39,35
515,-7571,8,391,-4580,23,-87,-39,35
516,-7569,4,380,-4581,23,-88,-39,35
517,-7575,-5,381,-4582,23,-87,-39,35
518,-7580,-3,381,-4584,23,-87,-39,34
519,-7584,-1,367,-4585,23,-86,-38,35
520,-7577,-7,377,-4582,23,-87,-39,35
521,-7580,-12,374,-4580,23,-87,-39,35
522,-7587,-13,374,-4583,23,-87,-40,35
523,-7580,-3,380,-4582,23,-88,-40,35
524,-7575,-3,382,-4582,23,-88,-40,35
525,-7587,-1,367,-4579,23,-88,-39,35
526,-7582,-11,375,-4583,23,-89,-40,35
527,-7584,-1,376,-4581,23,-88,-41,35
528,-7581,-2,392,-4581,23,-88,-40,35
529,-7580,-9,380,-4581,23,-88,-40,34
530,-7581,-12,389,-4580,23,-88,-38,34
531,-7581,-10,397,-4579,23,-89,-39,34
532,-7585,-20,388,-4583,23,-89,-38,33
533,-7590,-9,373,-4582,23,-89,-39,34
534,-7587,-7,375,-4585,23,-89,-39,34
535,-7580,-9,381,-4582,23,-88,-39,35
536,-7576,-2,384,-4582,23,-88,-40,34
537,-7572,-5,384,-4581,23,-88,-39,33
538,-7570,-7,377,-4580,23,-88,-39,33
539,-7569,-10,381,-4580,23,-88,-38,33
540,-7566,-3,375,-4578,23,-88,-39,35
541,-7571,-6,366,-4580,23,-87,-39,35
542,-7565,-4,379,-4575,23,-88,-39,34
543,-7566,-8,370,-4574,23,-87,-38,34
544,-7565,-16,374,-4574,23,-87,-38,34
545,-7575,-11,370,-4575,23,-86,-39,34
546,-7579,-10,365,-4581,23,-86,-40,34
547,-7586,-12,372,-4581,23,-87,-40,33
548,-7589,-11,369,-4578,23,-87,-40,34
549,-7588,-4,371,-4580,23,-88,-39,34
550,-7592,-2,370,-4579,23,-88,-39,34
551,-7584,-5,380,-4578,23,-88,-38,35
552,-7571,0,382,-4577,23,-88,-38,35
553,-7563,-5,379,-4577,23,-88,-40,34
554,-7574,-6,387,-4576,23,-87,-40,33
555,-7575,1,395,-4579,23,-87,-40,33
556,-7569,-3,380,-4581,23,-87,-39,35
557,-7583,-6,371,-4581,23,-86,-38,34
558,-7585,-2,378,-4580,23,-86,-38,34
559,-7582,-2,383,-4579,23,-86,-39,35
560,-7582,-5,372,-4579,23,-87,-39,34
561,-7584,-1,361,-4577,23,-87,-38,34
562,-7580,-4,365,-4578,23,-88,-37,34
563,-7574,-12,375,-4577,23,-88,-38,34
564,-7569,-14,387,-4578,23,-87,-38,35
565,-7569,-13,367,-4577,23,-88,-40,34
566,-7578,-14,371,-4575,23,-89,-38,36
567,-7586,-6,376,-4576,23,-89,-38,35
568,-7580,0,366,-4575,23,-90,-38,35
569,-7585,1,375,-4577,23,-89,-38,34
570,-7591,3,374,-4577,23,-88,-40,34
571,-7586,3,383,-4579,23,-87,-40,35
572,-7587,0,382,-4578,23,-88,-40,35
573,-7583,-2,371,-4576,23,-88,-41,35
574,-7577,-7,370,-4577,23,-88,-39,35
575,-7579,-9,373,-4578,23,-88,-39,35
576,-7587,-15,379,-4579,23,-88,-39,35
577,-7587,-13,364,-4577,23,-87,-38,34
578,-7581,-18,367,-4574,23,-87,-39,34
579,-7574,-9,365,-4577,23,-86,-39,34
580,-7578,-6,364,-4580,23,-87,-39,34
581,-7575,-2,382,-4580,23,-88,-40,34
582,-7577,-6,388,-4578,23,-89,-39,34
583,-7572,-9,379,-4577,23,-88,-40,33
584,-7574,-3,376,-4574,23,-88,-41,33
585,-7578,-14,375,-4577,23,-87,-41,33
586,-7581,-12,372,-4575,23,-88,-40,33
587,-7579,-15,386,-4575,23,-88,-40,34
588,-7578,-11,387,-4575,23,-89,-39,34
589,-7581,-6,389,-4577,23,-88,-39,35
590,-7578,-10,376,-4578,23,-88,-38,35
591,-7574,-5,365,-4576,23,-88,-39,34
592,-7573,-1,363,-4577,23,-88,-39,35
593,-7580,1,363,-4578,23,-88,-39,35
594,-7571,-2,359,-4577,23,-89,-37,35
595,-7574,-9,373,-4573,23,-88,-38,35
596,-7570,-8,383,-4573,23,-88,-38,35
597,-7571,-4,380,-4573,23,-88,-39,35
598,-7573,-6,380,-4572,23,-87,-39,35
599,-7570,-7,376,-4574,23,-87,-38,35
600,-7574,-8,387,-4574,23,-87,-39,34
601,-7577,-9,379,-4575,23,-88,-39,34
602,-7579,-7,375,-4576,23,-88,-39,34
603,-7577,-2,378,-4575,23,-88,-40,34
604,-7569,-2,382,-4577,23,-88,-39,35
605,-7577,-3,393,-4576,23,-87,-40,35
606,-7576,-7,382,-4579,23,-87,-39,34
607,-7581,-13,369,-4581,23,-88,-38,34
608,-7579,-12,360,-4584,23,-88,-39,34
609,-7572,-14,353,-4582,23,-88,-39,34
610,-7581,-11,360,-4582,23,-88,-38,34
611,-7589,-10,370,-4581,23,-87,-38,33
612,-7591,-5,367,-4579,23,-88,-38,34
613,-7579,-6,368,-4578,23,-88,-39,35
614,-7577,-7,368,-4576,23,-89,-39,34
615,-7575,-21,353,-4576,23,-89,-38,35
616,-7576,-13,366,-4577,23,-89,-41,34
617,-7577,-8,378,-4576,23,-89,-39,34
618,-7578,-11,385,-4576,23,-88,-39,35
619,-7577,-16,388,-4577,23,-88,-40,36
620,-7571,-10,382,-4579,23,-87,-40,35
621,-7574,-10,379,-4580,23,-87,-41,34
622,-7582,-7,379,-4577,23,-87,-40,35
623,-7578,-16,362,-4577,23,-87,-39,34
624,-7573,-14,364,-4574,23,-87,-39,34
625,-7576,-2,378,-4574,23,-88,-39,35
626,-7565,1,378,-4574,23,-88,-39,34
627,-7563,6,378,-4576,23,-88,-40,35
628,-7568,-5,376,-4573,23,-87,-39,34
629,-7571,-12,388,-4574,23,-88,-40,34
630,-7578,-6,382,-4576,23,-89,-39,34
631,-7580,-16,371,-4578,23,-89,-39,34
632,-7584,-8,355,-4581,23,-88,-38,35
633,-7584,-12,360,-4580,23,-88,-38,35
634,-7589,-13,373,-4578,23,-88,-38,35
635,-7584,-12,376,-4579,23,-88,-39,35
636,-7587,-12,372,-4581,23,-88,-38,35
637,-7582,-1,378,-4578,23,-88,-38,34
638,-7584,0,389,-4574,23,-88,-39,34
639,-7581,-2,377,-4576,23,-88,-39,35
640,-7577,-3,380,-4576,23,-87,-40,35
641,-7576,-3,368,-4576,23,-87,-41,35
642,-7571,-10,377,-4577,23,-87,-40,34
643,-7567,-8,380,-4577,23,-88,-39,34
644,-7561,-14,380,-4579,23,-87,-38,34
645,-7566,-15,367,-4577,23,-88,-38,35
646,-7570,-18,373,-4577,23,-88,-39,35
647,-7570,-16,373,-4579,23,-88,-38,34
648,-7573,-13,361,-4583,23,-87,-37,34
649,-7563,-9,366,-4582,23,-88,-38,34
650,-7566,-11,372,-4579,23,-88,-39,34
651,-7567,-5,374,-4580,23,-89,-39,35
652,-7570,2,370,-4577,23,-89,-39,35
653,-7574,-6,379,-4579,23,-89,-39,35
654,-7578,-4,383,-4581,23,-89,-39,34
655,-7579,-4,387,-4579,23,-89,-39,34
656,-7573,-11,383,-4581,23,-88,-40,34
657,-7572,-10,374,-4581,23,-88,-40,33
658,-7574,-3,376,-4580,23,-88,-39,34
659,-7573,-6,381,-4582,23,-88,-39,34
660,-7575,-7,388,-4579,23,-89,-39,34
661,-7579,-14,385,-4576,23,-88,-40,34
662,-7582,-18,385,-4577,23,-88,-39,34
663,-7598,-17,376,-4577,23,-87,-40,34
664,-7583,-18,380,-4577,23,-88,-40,34
665,-7578,-14,386,-4577,23,-89,-40,34
666,-7583,-13,362,-4577,23,-88,-41,34
667,-7580,-13,360,-4576,23,-87,-39,34
668,-7580,-12,381,-4581,23,-87,-39,35
669,-7581,-7,388,-4583,23,-87,-38,35
670,-7585,-10,372,-4581,23,-86,-38,35
671,-7574,-3,361,-4579,23,-86,-40,35
672,-7572,-3,358,-4581,23,-87,-39,35
673,-7570,-4,360,-4578,23,-88,-39,35
674,-7571,-5,380,-4578,23,-88,-39,35
675,-7569,-6,376,-4578,23,-87,-38,35
676,-7571,-18,379,-4575,23,-89,-40,36
677,-7571,-19,378,-4578,23,-88,-40,35
678,-7575,-10,374,-4577,23,-87,-39,35
679,-7577,-4,370,-4576,23,-88,-40,34
680,-7578,-2,369,-4579,23,-88,-39,35
681,-7574,-4,375,-4579,23,-88,-39,34
682,-7574,-6,372,-4576,23,-87,-40,34
683,-7582,-11,386,-4578,23,-88,-40,34
684,-7590,-10,401,-4578,23,-87,-40,34
685,-7587,-5,394,-4578,23,-87,-40,35
686,-7577,-9,386,-4577,23,-88,-39,34
687,-7568,-16,385,-4579,23,-87,-39,34
688,-7566,-11,379,-4579,23,-88,-40,35
689,-7576,-8,391,-4579,23,-89,-40,35
690,-7577,-10,372,-4577,23,-88,-40,35
691,-7575,-11,371,-4580,23,-89,-39,34
692,-7577,-14,373,-4578,23,-88,-40,34
693,-7575,-8,369,-4575,23,-88,-39,34
694,-7572,-12,368,-4575,23,-88,-38,34
695,-7568,-14,385,-4578,23,-87,-38,33
696,-7583,-15,375,-4581,23,-88,-38,34
697,-7586,-11,376,-4581,23,-87,-40,33
698,-7585,-9,380,-4579,23,-88,-41,35
699,-7590,-10,377,-4576,23,-88,-40,34
700,-7575,-5,382,-4574,23,-89,-40,34
701,-7574,-15,385,-4575,23,-88,-39,35
702,-7578,-17,383,-4576,23,-88,-40,35
703,-7568,-13,382,-4575,23,-88,-40,35
704,-7567,-11,382,-4575,23,-89,-39,35
705,-7576,-8,366,-4574,23,-89,-39,35
706,-7588,-11,374,-4576,23,-88,-39,34
707,-7581,-7,369,-4577,23,-89,-39,35
708,-7584,-14,378,-4577,23,-87,-40,35
709,-7586,-1,384,-4574,23,-87,-39,34
710,-7587,2,383,-4576,23,-87,-38,34
711,-7579,-5,388,-4578,23,-87,-39,35
712,-7589,-8,372,-4577,23,-86,-38,36
713,-7583,-13,365,-4575,23,-86,-38,36
714,-7581,-14,367,-4574,23,-87,-38,35
715,-7583,-8,372,-4578,23,-88,-38,34
716,-7584,-8,386,-4574,23,-88,-38,36
717,-7580,-8,378,-4574,23,-87,-37,35
718,-7585,-10,389,-4577,23,-87,-38,35
719,-7591,-9,391,-4580,23,-87,-38,35
720,-7586,-2,384,-4582,23,-88,-38,35
721,-7583,-13,392,-4581,23,-89,-40,35
722,-7577,-8,391,-4574,23,-88,-40,35
723,-7576,-6,380,-4574,23,-88,-38,35
724,-7581,1,378,-4576,23,-88,-38,34
725,-7573,-2,367,-4576,23,-88,-40,34
726,-7573,2,366,-4581,23,-88,-41,34
727,-7579,-1,374,-4577,23,-87,-41,35
728,-7575,-5,381,-4580,23,-86,-40,34
729,-7575,-8,372,-4582,23,-87,-40,34
730,-7567,-5,369,-4576,23,-88,-39,35
731,-7575,-5,371,-4578,23,-87,-40,34
732,-7577,-9,364,-4577,23,-87,-39,35
733,-7588,-10,372,-4576,23,-88,-40,34
734,-7580,-7,368,-4577,23,-88,-39,34
735,-7571,-5,354,-4577,23,-88,-39,34
736,-7562,-10,367,-4576,23,-89,-39,34
737,-7565,-8,377,-4574,23,-88,-38,34
738,-7566,-11,380,-4575,23,-89,-39,34
739,-7579,-12,382,-4571,23,-88,-39,34
740,-7584,-6,376,-4574,23,-88,-39,33
741,-7588,-10,380,-4576,23,-88,-38,35
742,-7577,-11,380,-4578,23,-88,-39,34
743,-7574,-8,374,-4578,23,-89,-38,34
744,-7580,-5,358,-4581,23,-88,-38,33
745,-7577,-5,352,-4577,23,-89,-39,35
746,-7574,-9,357,-4577,23,-88,-38,35
747,-7564,-12,362,-4578,23,-87,-39,35
748,-7567,-9,376,-4579,23,-87,-38,35
749,-7571,-9,364,-4581,23,-87,-38,35
750,-7575,-12,369,-4579,23,-87,-39,35
751,-7582,-15,374,-4578,23,-89,-39,34
752,-7565,2,381,-4579,23,-88,-38,34
753,-7566,-7,372,-4579,23,-88,-39,34
754,-7568,2,374,-4582,23,-87,-40,35
755,-7572,6,379,-4582,23,-87,-41,35
756,-7576,-2,391,-4580,23,-88,-39,35
757,-7579,2,385,-4580,23,-88,-39,34
758,-7582,-8,391,-4581,23,-87,-41,35
759,-7581,-10,381,-4581,23,-88,-40,35
760,-7582,-7,379,-4578,23,-87,-39,35
761,-7579,2,366,-4580,23,-88,-39,35
762,-7570,-4,376,-4580,23,-88,-39,35
763,-7574,0,382,-4581,23,-89,-40,35
764,-7568,-4,388,-4581,23,-89,-40,35
765,-7571,-5,378,-4581,23,-88,-40,34
766,-7567,3,375,-4581,23,-88,-40,35
767,-7568,3,382,-4581,23,-89,-40,34
768,-7573,-4,374,-4581,23,-88,-40,35
769,-7574,-12,391,-4581,23,-88,-40,36
770,-7579,-9,390,-4581,23,-88,-39,35
771,-7579,-3,383,-4581,23,-88,-39,35
772,-7577,-8,375,-4583,23,-88,-39,35
773,-7570,-10,376,-4582,23,-87,-39,36
774,-7569,-14,366,-4580,23,-87,-38,35
775,-7581,-8,377,-4581,23,-86,-38,34
776,-7575,-15,381,-4581,23,-87,-38,34
777,-7576,-18,367,-4580,23,-87,-39,35
778,-7580,-6,383,-4581,23,-88,-38,34
779,-7578,-2,374,-4582,23,-88,-38,34
780,-7578,0,363,-4579,23,-88,-39,34
781,-7581,0,365,-4582,23,-88,-38,34
782,-7581,-4,368,-4579,23,-88,-39,34
783,-7575,-9,379,-4579,23,-88,-40,35
784,-7575,-9,366,-4581,23,-88,-39,34
785,-7575,-5,377,-4578,23,-88,-39,33
786,-7571,-11,389,-4576,23,-88,-40,34
787,-7565,-13,371,-4578,23,-87,-39,35
788,-7573,-9,370,-4578,23,-88,-39,35
789,-7578,-6,370,-4577,23,-89,-40,34
790,-7578,-2,372,-4576,23,-88,-41,33
791,-7577,-8,370,-4578,23,-88,-41,33
792,-7579,-9,376,-4575,23,-87,-39,34
793,-7581,-7,378,-4575,23,-88,-40,35
794,-7577,-13,380,-4577,23,-87,-39,35
795,-7573,-3,381,-4578,23,-87,-39,34
796,-7579,7,385,-4578,23,-88,-40,34
797,-7576,1,378,-4579,23,-87,-40,35
798,-7590,-12,385,-4577,23,-87,-40,35
799,-7579,-6,382,-4578,23,-88,-40,35
800,-7585,-4,357,-4579,23,-87,-39,35
801,-7584,6,363,-4577,23,-87,-40,35
802,-7585,4,367,-4576,23,-87,-38,34
803,-7576,-1,364,-4578,23,-88,-38,34
804,-7580,2,373,-4577,23,-88,-38,34
805,-7581,-1,378,-4579,23,-88,-38,34
806,-7577,6,382,-4577,23,-88,-39,35
807,-7580,1,384,-4581,23,-88,-38,35
808,-7586,-4,388,-4581,23,-89,-39,36
809,-7586,-5,386,-4577,23,-89,-38,36
810,-7586,-11,390,-4577,23,-89,-40,36
811,-7585,-7,380,-4577,23,-89,-40,36
812,-7584,-10,370,-4577,23,-89,-39,36
813,-7565,-14,358,-4576,23,-88,-39,36
814,-7574,-15,371,-4575,23,-87,-39,34
815,-7569,-10,361,-4578,23,-88,-39,34
816,-7581,-3,360,-4577,23,-87,-38,33
817,-7590,-4,356,-4577,23,-87,-38,34
818,-7577,-7,361,-4580,23,-87,-37,34
819,-7584,-8,380,-4578,23,-88,-39,34
820,-7595,-6,386,-4580,23,-86,-39,34
821,-7582,-8,397,-4577,23,-87,-39,34
822,-7581,-14,387,-4575,23,-87,-39,34
823,-7573,-2,382,-4578,23,-88,-40,34
824,-7572,-8,385,-4580,23,-88,-40,34
825,-7575,-11,387,-4576,23,-89,-40,34
826,-7588,-13,386,-4576,23,-89,-38,34
827,-7587,-2,373,-4579,23,-89,-39,34
828,-7575,1,371,-4576,23,-88,-39,34
829,-7580,-7,371,-4576,23,-87,-39,34
830,-7574,-5,376,-4577,23,-88,-39,34
831,-7584,5,370,-4579,23,-88,-40,34
832,-7584,-4,369,-4579,23,-88,-39,35
833,-7587,-5,373,-4578,23,-88,-39,35
834,-7584,-8,371,-4580,23,-88,-39,34
835,-7583,-13,372,-4581,23,-87,-39,35
836,-7578,-13,386,-4581,23,-86,-39,35
837,-7585,-15,372,-4580,23,-88,-39,35
838,-7587,-7,373,-4577,23,-88,-39,35
839,-7589,-13,387,-4576,23,-89,-39,35
840,-7585,-10,378,-4579,23,-88,-39,36
841,-7581,-12,367,-4577,23,-88,-40,36
842,-7584,-18,376,-4575,23,-88,-39,35
843,-7588,-6,383,-4578,23,-88,-39,35
844,-7581,-7,381,-4578,23,-87,-39,35
845,-7586,-8,390,-4581,23,-86,-40,35
846,-7579,-2,391,-4581,23,-88,-39,34
847,-7578,2,396,-4580,23,-87,-40,34
848,-7588,-1,381,-4580,23,-88,-40,33
849,-7581,-7,368,-4582,23,-87,-39,34
850,-7576,-6,366,-4581,23,-88,-39,35
851,-7575,-12,365,-4583,23,-89,-40,35
852,-7576,-23,370,-4580,23,-88,-39,35
853,-7575,-8,364,-4578,23,-89,-39,35
854,-7585,-5,371,-4579,23,-89,-39,35
855,-7581,-16,375,-4581,23,-88,-39,34
856,-7579,-12,381,-4580,23,-88,-40,34
857,-7575,-9,374,-4580,23,-89,-39,34
858,-7582,-5,380,-4579,23,-88,-39,34
859,-7581,1,381,-4580,23,-88,-38,35
860,-7566,-8,379,-4580,23,-87,-39,34
861,-7569,-3,391,-4580,23,-88,-40,34
862,-7571,-3,394,-4580,23,-88,-39,35
863,-7573,3,398,-4579,23,-88,-40,34
864,-7572,-1,383,-4575,23,-88,-40,35
865,-7577,-5,381,-4576,23,-88,-39,35
866,-7585,-3,372,-4578,23,-88,-39,34
867,-7589,-7,387,-4579,23,-88,-39,34
868,-7587,-3,387,-4575,23,-88,-38,35
869,-7589,-7,398,-4578,23,-87,-39,36
870,-7581,-7,380,-4578,23,-89,-39,37
871,-7586,-10,366,-4577,23,-89,-39,35
872,-7592,-8,371,-4579,23,-88,-38,35
873,-7586,-4,376,-4579,23,-87,-38,35
874,-7577,-4,372,-4579,23,-88,-38,34
875,-7570,-10,363,-4581,23,-89,-39,34
876,-7584,-5,366,-4580,23,-88,-39,34
877,-7586,0,374,-4581,23,-88,-39,35
878,-7577,-7,374,-4582,23,-89,-39,34
879,-7579,-10,377,-4580,23,-89,-39,35
880,-7580,-5,361,-4580,23,-89,-39,37
881,-7573,-6,363,-4579,23,-88,-39,35
882,-7571,-2,380,-4577,23,-88,-40,34
883,-7570,-9,383,-4577,23,-88,-40,35
884,-7567,-15,389,-4576,23,-88,-39,35
885,-7569,-18,385,-4578,23,-88,-39,35
886,-7575,-11,373,-4577,23,-88,-39,35
887,-7576,-5,370,-4580,23,-89,-38,35
888,-7572,-7,370,-4580,23,-88,-39,34
889,-7584,3,372,-4579,23,-88,-39,35
890,-7592,2,389,-4578,23,-87,-40,34
891,-7584,3,391,-4581,23,-88,-40,34
892,-7580,-4,388,-4585,23,-89,-40,34
893,-7580,-2,384,-4583,23,-88,-40,34
894,-7582,-3,386,-4584,23,-87,-39,34
895,-7580,3,382,-4582,23,-87,-40,35
896,-7576,1,385,-4583,23,-88,-39,35
897,-7569,-6,385,-4586,23,-88,-40,35
898,-7573,-8,375,-4582,23,-88,-39,34
899,-7586,-7,377,-4581,23,-87,-39,34
900,-7586,-9,394,-4580,23,-88,-38,35
901,-7580,-6,385,-4583,23,-88,-38,35
902,-7580,-12,378,-4584,23,-87,-39,35
903,-7578,-8,383,-4581,23,-87,-39,35
904,-7575,-5,379,-4578,23,-87,-39,35
905,-7582,-2,369,-4578,23,-87,-39,35
906,-7581,0,392,-4578,23,-87,-39,34
907,-7571,-7,396,-4581,23,-87,-39,35
908,-7575,-10,404,-4580,23,-87,-38,35
909,-7581,-9,407,-4579,23,-88,-38,34
910,-7589,-14,399,-4579,23,-88,-39,35
911,-7590,-10,394,-4577,23,-89,-39,34
912,-7588,-12,380,-4575,23,-89,-39,35
913,-7586,-6,376,-4576,23,-88,-38,35
914,-7575,-14,372,-4581,23,-88,-38,35
915,-7577,-16,369,-4580,23,-87,-38,35
916,-7585,-6,370,-4585,23,-87,-40,35
917,-7586,-8,370,-4579,23,-87,-39,34
918,-7584,-7,373,-4578,23,-87,-39,33
919,-7591,-10,377,-4578,23,-87,-39,34
920,-7587,-2,378,-4578,23,-88,-39,33
921,-7579,-3,387,-4577,23,-88,-39,34
922,-7578,-2,395,-4580,23,-88,-38,34
923,-7579,0,388,-4580,23,-87,-38,35
924,-7581,-11,389,-4580,23,-88,-39,35
925,-7583,-11,389,-4581,23,-88,-39,36
926,-7574,-14,368,-4582,23,-88,-39,35
927,-7574,-10,370,-4580,23,-88,-38,34
928,-7570,-1,372,-4578,23,-88,-38,34
929,-7583,3,372,-4583,23,-89,-39,33
930,-7587,2,366,-4581,23,-88,-38,34
931,-7579,7,382,-4581,23,-89,-38,34
932,-7586,-6,381,-4581,23,-89,-39,35
933,-7580,-12,380,-4579,23,-90,-38,35
934,-7581,-11,375,-4583,23,-89,-38,35
935,-7584,-3,369,-4585,23,-88,-38,35
936,-7572,6,367,-4587,23,-88,-40,35
937,-7576,4,368,-4586,23,-89,-40,34
938,-7575,-4,375,-4583,23,-88,-40,34
939,-7574,5,383,-4580,23,-88,-39,34
940,-7576,-14,392,-4580,23,-88,-39,35
941,-7576,-17,378,-4579,23,-88,-39,34
942,-7579,-9,378,-4580,23,-88,-39,33
943,-7578,-6,371,-4580,23,-88,-39,34
944,-7583,-6,372,-4580,23,-88,-39,35
945,-7594,-8,378,-4580,23,-89,-37,35
946,-7589,-10,376,-4583,23,-89,-38,35
947,-7583,-12,385,-4584,23,-89,-38,34
948,-7587,-8,382,-4580,23,-88,-39,34
949,-7581,-8,384,-4583,23,-88,-39,34
950,-7582,-7,375,-4580,23,-88,-40,34
951,-7585,-6,378,-4583,23,-88,-38,35
952,-7585,-1,377,-4584,23,-89,-39,35
953,-7574,0,379,-4581,23,-88,-38,34
954,-7572,-1,372,-4576,23,-88,-38,34
955,-7582,-2,388,-4576,23,-88,-38,34
956,-7578,-6,376,-4578,23,-89,-37,34
957,-7574,5,376,-4576,23,-88,-38,34
958,-7569,-4,370,-4577,23,-88,-38,34
959,-7572,-10,366,-4581,23,-88,-38,34
960,-7565,-9,379,-4580,23,-88,-38,34
961,-7572,-2,371,-4581,23,-87,-39,34
962,-7569,-7,367,-4578,23,-87,-40,34
963,-7580,-19,366,-4577,23,-87,-38,34
964,-7578,-10,379,-4579,23,-88,-38,35
965,-7573,-5,383,-4578,23,-88,-39,34
966,-7583,-10,387,-4579,23,-88,-38,34
967,-7583,-6,371,-4578,23,-88,-38,34
968,-7574,-13,371,-4580,23,-88,-38,34
969,-7567,-5,390,-4580,23,-88,-38,34
970,-7565,4,401,-4580,23,-89,-39,35
971,-7574,4,384,-4582,23,-88,-38,33
972,-7571,-5,381,-4582,23,-89,-39,33
973,-7575,-2,379,-4580,23,-88,-40,33
974,-7576,-5,373,-4582,23,-88,-39,34
975,-7573,-5,370,-4579,23,-88,-39,35
976,-7567,-4,365,-4578,23,-89,-39,34
977,-7578,-4,366,-4579,23,-89,-39,34
978,-7573,0,369,-4583,23,-88,-38,34
979,-7583,-4,364,-4584,23,-89,-38,35
980,-7588,-7,368,-4584,23,-89,-39,34
981,-7585,-3,373,-4582,23,-88,-40,35
982,-7581,-8,372,-4585,23,-88,-40,35
983,-7579,-5,362,-4581,23,-88,-39,34
984,-7577,-4,365,-4579,23,-89,-39,34
985,-7574,-5,366,-4582,23,-89,-39,34
986,-7572,-7,373,-4582,23,-88,-39,35
987,-7567,-2,372,-4582,23,-88,-39,36
988,-7573,-7,369,-4579,23,-88,-39,35
989,-7582,-10,363,-4577,23,-87,-39,35
990,-7582,-3,375,-4579,23,-88,-39,34
991,-7582,-3,363,-4582,23,-89,-38,34
992,-7582,1,362,-4582,23,-90,-38,34
993,-7574,3,369,-4579,23,-90,-39,33
994,-7574,2,378,-4581,23,-89,-39,35
995,-7580,-2,366,-4578,23,-88,-39,35
996,-7583,-4,368,-4576,23,-88,-40,34
997,-7590,-9,373,-4577,23,-88,-39,34
998,-7592,-8,388,-4577,23,-87,-39,34
