,acc_X,acc_Y,acc_Z,temp,tempC,gyr_X,gyr_Y,gyr_Z
0,-1894,-2,95,-4621,23,-177,-75,69
1,-1893,-1,96,-4618,23,-177,-74,69
2,-1895,0,92,-4621,23,-177,-74,69
3,-1894,-1,91,-4620,23,-175,-75,70
4,-1895,-2,92,-4618,23,-173,-75,68
5,-1897,-1,91,-4618,23,-175,-77,68
6,-1896,-2,90,-4617,23,-175,-76,68
7,-1895,-3,91,-4620,23,-175,-76,68
8,-1894,-3,94,-4621,23,-175,-76,69
9,-1894,-3,93,-4624,23,-174,-75,69
10,-1893,-4,94,-4619,23,-174,-75,70
11,-1894,-3,95,-4615,23,-175,-73,68
12,-1893,-4,94,-4616,23,-177,-73,69
13,-1894,-2,95,-4616,23,-176,-75,70
14,-1895,-2,96,-4618,23,-177,-74,72
15,-1894,-2,93,-4620,23,-176,-77,71
16,-1894,0,94,-4617,23,-176,-78,70
17,-1896,-2,93,-4618,23,-176,-77,71
18,-1895,-4,93,-4618,23,-177,-78,70
19,-1893,-5,93,-4616,23,-176,-76,69
20,-1896,-3,94,-4616,23,-175,-77,71
21,-1895,-1,97,-4615,23,-174,-79,70
22,-1895,0,95,-4614,23,-175,-79,71
23,-1895,-2,95,-4615,23,-173,-79,71
24,-1895,-2,95,-4617,23,-174,-78,71
25,-1897,-3,92,-4612,23,-177,-77,70
26,-1895,-2,96,-4616,23,-174,-79,71
27,-1897,-3,92,-4616,23,-174,-80,71
28,-1895,-2,93,-4620,23,-173,-80,71
29,-1897,-2,93,-4618,23,-173,-78,71
30,-1893,-2,90,-4617,23,-173,-75,72
31,-1895,-4,90,-4617,23,-172,-75,72
32,-1895,-4,93,-4618,23,-173,-75,71
33,-1896,-4,94,-4619,23,-173,-77,69
34,-1897,-5,91,-4620,23,-174,-74,69
35,-1896,-4,92,-4622,23,-174,-76,68
36,-1895,-3,93,-4622,23,-174,-75,67
37,-1895,-4,93,-4619,23,-176,-73,70
38,-1894,-2,95,-4619,23,-175,-73,71
39,-1895,-2,97,-4617,23,-173,-75,68
40,-1894,-3,94,-4620,23,-174,-76,71
41,-1893,-3,92,-4620,23,-174,-77,70
42,-1894,-3,94,-4623,23,-176,-79,71
43,-1895,-2,93,-4622,23,-177,-77,71
44,-1894,-1,89,-4616,23,-177,-75,70
45,-1894,-3,92,-4619,23,-175,-74,70
46,-1894,-3,92,-4619,23,-174,-76,68
47,-1895,-2,94,-4615,23,-175,-73,67
48,-1895,-2,96,-4617,23,-176,-76,69
49,-1895,-2,95,-4623,23,-175,-77,68
50,-1893,-3,94,-4622,23,-174,-79,70
51,-1894,-2,93,-4619,23,-172,-77,70
52,-1895,-4,90,-4620,23,-175,-76,70
53,-1894,-2,93,-4619,23,-175,-79,69
54,-1895,-3,94,-4622,23,-175,-78,69
55,-1898,-5,91,-4622,23,-175,-77,68
56,-1897,-4,94,-4620,23,-175,-77,69
57,-1899,-1,94,-4616,23,-172,-75,67
58,-1898,-2,99,-4618,23,-176,-80,70
59,-1895,0,99,-4617,23,-175,-78,70
60,-1897,0,97,-4617,23,-175,-75,70
61,-1895,-1,99,-4618,23,-176,-77,70
62,-1898,-1,93,-4620,23,-176,-78,71
63,-1898,-2,95,-4620,23,-174,-78,71
64,-1897,-1,94,-4618,23,-174,-76,69
65,-1897,-1,93,-4616,23,-174,-77,69
66,-1895,-1,94,-4614,23,-172,-74,71
67,-1894,-1,92,-4615,23,-173,-75,70
68,-1895,-1,94,-4615,23,-173,-75,72
69,-1894,-1,95,-4616,23,-176,-76,72
70,-1895,-1,94,-4616,23,-176,-77,72
71,-1894,0,95,-4613,23,-176,-78,72
72,-1895,0,94,-4617,23,-176,-76,71
73,-1896,0,93,-4616,23,-176,-77,69
74,-1897,-2,91,-4615,23,-176,-78,69
75,-1897,-1,90,-4615,23,-178,-78,68
76,-1896,-3,87,-4614,23,-175,-76,70
77,-1894,-3,88,-4614,23,-176,-77,69
78,-1896,-2,94,-4615,23,-174,-78,68
79,-1898,-3,94,-4618,23,-175,-78,69
80,-1896,-1,91,-4617,23,-175,-80,70
81,-1897,-3,92,-4614,23,-172,-80,71
82,-1896,-1,94,-4615,23,-173,-78,70
83,-1894,-2,94,-4614,23,-175,-78,71
84,-1897,-2,95,-4618,23,-174,-77,72
85,-1896,-1,92,-4618,23,-175,-76,71
86,-1895,-2,94,-4622,23,-172,-75,69
87,-1894,-2,94,-4621,23,-172,-75,68
88,-1895,-3,91,-4621,23,-171,-76,69
89,-1895,-3,92,-4620,23,-175,-78,71
90,-1894,-3,94,-4619,23,-174,-76,71
91,-1894,-5,96,-4618,23,-175,-76,70
92,-1895,-5,94,-4620,23,-176,-75,69
93,-1896,-3,96,-4617,23,-177,-77,68
94,-1896,-3,95,-4616,23,-175,-76,69
95,-1895,-2,96,-4618,23,-175,-77,68
96,-1894,-3,95,-4615,23,-176,-81,70
97,-1892,-3,97,-4614,23,-175,-81,69
98,-1893,-3,95,-4614,23,-175,-78,68
99,-1895,-3,92,-4616,23,-174,-78,67
100,-1895,-1,92,-4614,23,-175,-79,68
101,-1895,-1,91,-4615,23,-177,-77,69
102,-1896,-1,90,-4616,23,-177,-77,69
103,-1892,-2,91,-4621,23,-175,-76,67
104,-1894,-2,94,-4621,23,-177,-77,69
105,-1896,-1,96,-4621,23,-176,-79,72
106,-1896,-1,96,-4620,23,-177,-80,70
107,-1893,-2,94,-4622,23,-176,-80,70
108,-1894,-1,96,-4619,23,-175,-77,70
109,-1894,-1,96,-4618,23,-173,-76,72
110,-1897,-1,96,-4617,23,-176,-77,72
111,-1897,1,95,-4615,23,-175,-75,71
112,-1897,-1,98,-4617,23,-173,-75,72
113,-1896,0,100,-4615,23,-172,-75,72
114,-1897,0,95,-4612,23,-173,-76,70
115,-1897,-1,93,-4615,23,-176,-76,69
116,-1895,0,91,-4615,23,-176,-76,69
117,-1894,-2,92,-4614,23,-176,-74,70
118,-1892,-4,95,-4613,23,-176,-77,71
119,-1894,-4,93,-4612,23,-176,-77,72
120,-1895,-2,94,-4615,23,-177,-79,71
121,-1894,-5,96,-4614,23,-176,-78,70
122,-1896,-1,97,-4617,23,-174,-79,72
123,-1896,-2,93,-4616,23,-176,-77,72
124,-1897,-2,95,-4616,23,-175,-75,72
125,-1896,0,97,-4618,23,-176,-77,70
126,-1895,-1,95,-4616,23,-176,-77,70
127,-1895,-3,99,-4614,23,-175,-77,69
128,-1897,-3,94,-4614,23,-177,-76,68
129,-1895,-4,93,-4613,23,-175,-77,69
130,-1896,-3,93,-4615,23,-177,-76,70
131,-1893,-1,97,-4615,23,-176,-75,71
132,-1894,-1,96,-4619,23,-175,-77,71
133,-1895,-3,91,-4617,23,-173,-78,70
134,-1896,-4,89,-4616,23,-172,-76,72
135,-1896,-5,90,-4617,23,-172,-77,71
136,-1894,-5,92,-4612,23,-175,-77,72
137,-1892,-4,94,-4617,23,-176,-76,71
138,-1895,0,95,-4617,23,-177,-75,72
139,-1896,-3,94,-4614,23,-177,-76,69
140,-1896,-5,93,-4618,23,-177,-76,70
141,-1895,-3,94,-4616,23,-176,-75,69
142,-1894,-2,96,-4615,23,-177,-79,70
143,-1893,-4,93,-4616,23,-173,-80,69
144,-1894,-5,89,-4615,23,-174,-79,70
145,-1893,-3,90,-4619,23,-174,-77,70
146,-1895,-2,92,-4621,23,-172,-77,71
147,-1894,-2,93,-4622,23,-174,-76,70
148,-1893,-1,92,-4624,23,-173,-78,69
149,-1894,-1,88,-4622,23,-175,-80,70
150,-1895,-2,92,-4623,23,-176,-78,70
151,-1894,-2,91,-4618,23,-175,-80,69
152,-1893,-2,92,-4618,23,-175,-79,71
153,-1895,0,91,-4618,23,-174,-78,72
154,-1896,-1,95,-4617,23,-175,-75,73
155,-1894,-1,97,-4614,23,-175,-75,73
156,-1892,-2,96,-4613,23,-175,-75,71
157,-1894,-6,93,-4616,23,-172,-76,72
158,-1893,-3,93,-4611,23,-174,-76,69
159,-1896,-4,95,-4612,23,-172,-75,70
160,-1895,-3,92,-4612,23,-173,-76,69
161,-1895,-2,93,-4613,23,-175,-76,69
162,-1894,-2,94,-4614,23,-174,-76,69
163,-1894,-2,93,-4615,23,-174,-75,69
164,-1896,-5,89,-4615,23,-175,-76,68
165,-1896,-4,91,-4616,23,-174,-76,71
166,-1897,-2,95,-4614,23,-174,-77,72
167,-1896,-4,94,-4612,23,-174,-78,71
168,-1896,-4,92,-4615,23,-176,-78,69
169,-1894,-3,92,-4614,23,-175,-77,70
170,-1895,-3,93,-4614,23,-174,-76,69
171,-1894,-3,91,-4613,23,-175,-76,70
172,-1896,-3,93,-4613,23,-176,-77,69
173,-1897,-1,90,-4616,23,-175,-79,68
174,-1895,-1,91,-4617,23,-176,-77,66
175,-1895,-1,94,-4618,23,-177,-76,68
176,-1894,0,94,-4617,23,-176,-73,68
177,-1894,-2,94,-4616,23,-174,-76,68
178,-1894,-3,94,-4613,23,-174,-78,67
179,-1893,-5,93,-4615,23,-173,-77,69
180,-1894,-2,91,-4615,23,-173,-77,71
181,-1896,-3,91,-4615,23,-176,-78,71
182,-1898,-3,91,-4616,23,-176,-78,72
183,-1899,-4,95,-4618,23,-177,-78,70
184,-1896,-3,91,-4615,23,-174,-78,68
185,-1896,-1,93,-4616,23,-173,-78,69
186,-1893,-2,93,-4617,23,-176,-76,70
187,-1892,-5,94,-4618,23,-175,-79,70
188,-1893,-3,97,-4616,23,-173,-77,70
189,-1893,-3,95,-4617,23,-174,-76,69
190,-1894,-1,99,-4615,23,-173,-77,68
191,-1894,-4,97,-4616,23,-174,-78,68
192,-1894,-2,94,-4619,23,-174,-79,68
193,-1897,-4,95,-4617,23,-175,-79,70
194,-1897,-1,94,-4612,23,-177,-78,69
195,-1898,-2,93,-4613,23,-175,-78,69
196,-1894,-3,96,-4611,23,-175,-77,69
197,-1895,-2,94,-4616,23,-175,-77,71
198,-1894,0,95,-4615,23,-175,-75,70
199,-1894,-1,94,-4617,23,-175,-74,69
200,-1895,-2,95,-4615,23,-173,-75,69
201,-1896,0,97,-4613,23,-174,-75,70
202,-1896,-1,96,-4614,23,-173,-77,71
203,-1896,-2,93,-4618,23,-175,-77,71
204,-1896,-2,89,-4618,23,-175,-78,72
205,-1894,-1,89,-4616,23,-175,-79,71
206,-1895,-3,88,-4613,23,-174,-75,70
207,-1894,-3,90,-4613,23,-175,-77,70
208,-1894,-1,92,-4613,23,-174,-77,69
209,-1895,0,87,-4613,23,-174,-76,70
210,-1896,-1,88,-4614,23,-173,-78,71
211,-1895,-2,88,-4612,23,-175,-78,70
212,-1896,-3,89,-4611,23,-172,-78,70
213,-1896,-4,93,-4612,23,-173,-77,70
214,-1896,-4,95,-4613,23,-173,-74,69
215,-1895,-3,95,-4617,23,-174,-75,71
216,-1895,-5,95,-4616,23,-175,-76,69
217,-1895,-5,94,-4615,23,-175,-77,70
218,-1895,-4,95,-4615,23,-176,-74,69
219,-1894,-3,96,-4616,23,-176,-74,68
220,-1893,0,95,-4615,23,-177,-75,69
221,-1896,-1,95,-4614,23,-175,-76,69
222,-1894,0,98,-4612,23,-175,-75,69
223,-1894,1,96,-4612,23,-174,-76,69
224,-1896,0,97,-4614,23,-174,-76,70
225,-1899,-3,96,-4617,23,-173,-79,68
226,-1897,-2,90,-4617,23,-172,-77,69
227,-1896,-4,93,-4619,23,-176,-78,68
228,-1896,-4,94,-4618,23,-174,-80,69
229,-1896,-2,97,-4619,23,-173,-77,69
230,-1898,0,95,-4616,23,-175,-76,71
231,-1899,0,92,-4617,23,-176,-76,71
232,-1896,2,96,-4616,23,-174,-76,71
233,-1894,1,94,-4618,23,-172,-76,70
234,-1895,1,92,-4617,23,-174,-76,72
235,-1895,0,93,-4615,23,-173,-75,74
236,-1895,-1,93,-4617,23,-174,-77,72
237,-1897,-4,93,-4616,23,-174,-73,72
238,-1898,-5,95,-4617,23,-173,-75,70
239,-1897,-4,94,-4613,23,-173,-74,70
240,-1898,-2,92,-4615,23,-173,-74,68
241,-1895,-3,88,-4612,23,-174,-74,67
242,-1895,-3,90,-4613,23,-172,-75,68
243,-1895,-3,90,-4616,23,-172,-77,70
244,-1896,-3,92,-4616,23,-175,-76,69
245,-1895,-4,94,-4616,23,-174,-77,68
246,-1894,-3,95,-4614,23,-172,-76,68
247,-1892,-2,91,-4615,23,-171,-75,68
248,-1891,-2,91,-4618,23,-171,-78,69
249,-1893,-2,93,-4617,23,-173,-77,71
250,-1894,-4,93,-4620,23,-174,-77,72
251,-1894,-2,96,-4623,23,-173,-78,68
252,-1895,-3,95,-4620,23,-175,-79,68
253,-1894,-3,93,-4617,23,-175,-78,70
254,-1893,-2,97,-4616,23,-175,-78,70
255,-1895,-3,94,-4615,23,-175,-77,70
256,-1894,-2,93,-4614,23,-175,-77,70
257,-1893,-1,91,-4615,23,-173,-78,70
258,-1894,-2,89,-4616,23,-170,-78,69
259,-1893,-2,92,-4617,23,-172,-77,67
260,-1894,-2,95,-4614,23,-173,-81,68
261,-1895,-2,94,-4612,23,-174,-79,67
262,-1894,-3,95,-4612,23,-174,-78,69
263,-1894,0,95,-4612,23,-176,-80,68
264,-1894,-4,92,-4612,23,-174,-78,68
265,-1894,-1,92,-4615,23,-175,-77,69
266,-1894,-2,94,-4615,23,-176,-77,68
267,-1894,-3,94,-4615,23,-177,-77,69
268,-1896,0,91,-4611,23,-175,-78,68
269,-1896,-1,91,-4613,23,-175,-80,69
270,-1896,0,91,-4614,23,-175,-80,70
271,-1895,-3,92,-4613,23,-173,-77,71
272,-1896,-1,95,-4615,23,-172,-75,70
273,-1894,-2,94,-4615,23,-172,-76,69
274,-1894,-2,95,-4615,23,-173,-77,69
275,-1895,-2,95,-4614,23,-172,-77,70
276,-1894,0,94,-4616,23,-174,-76,70
277,-1895,-1,96,-4615,23,-174,-78,69
278,-1892,-1,94,-4612,23,-176,-77,69
279,-1893,0,93,-4612,23,-176,-75,71
280,-1894,0,93,-4613,23,-175,-74,70
281,-1895,1,94,-4613,23,-173,-73,69
282,-1894,0,93,-4615,23,-173,-75,70
283,-1894,-2,96,-4612,23,-172,-76,69
284,-1896,-3,95,-4612,23,-173,-76,69
285,-1898,-2,95,-4612,23,-172,-79,71
286,-1895,-2,92,-4610,23,-173,-77,70
287,-1895,-3,93,-4609,23,-174,-78,70
288,-1892,-2,91,-4613,23,-173,-77,70
289,-1894,0,94,-4614,23,-173,-78,69
290,-1895,0,92,-4615,23,-174,-77,71
291,-1897,-1,95,-4615,23,-175,-78,71
292,-1895,-2,94,-4615,23,-174,-75,70
293,-1894,-2,91,-4614,23,-176,-77,69
294,-1893,-2,92,-4615,23,-176,-76,70
295,-1894,-2,91,-4614,23,-172,-74,71
296,-1892,-2,94,-4616,23,-172,-76,70
297,-1892,-2,94,-4612,23,-174,-76,70
298,-1891,-3,89,-4616,23,-175,-77,71
299,-1893,-4,89,-4618,23,-178,-77,70
300,-1894,-4,94,-4617,23,-176,-77,70
301,-1894,-2,94,-4616,23,-174,-76,70
302,-1894,-4,94,-4614,23,-176,-78,70
303,-1896,-3,93,-4612,23,-175,-79,68
304,-1896,0,90,-4617,23,-174,-78,68
305,-1896,-3,92,-4614,23,-175,-78,68
306,-1896,-3,92,-4614,23,-175,-77,69
307,-1893,-2,94,-4610,23,-175,-76,68
308,-1893,-3,90,-4608,23,-175,-76,68
309,-1896,-2,93,-4610,23,-176,-76,70
310,-1898,-3,93,-4610,23,-175,-75,71
311,-1896,-2,96,-4614,23,-175,-75,70
312,-1896,-4,94,-4615,23,-176,-76,70
313,-1897,-3,94,-4618,23,-173,-77,70
314,-1895,0,94,-4616,23,-175,-77,70
315,-1897,1,94,-4615,23,-173,-77,69
316,-1894,1,95,-4614,23,-173,-76,69
317,-1896,1,95,-4616,23,-176,-77,69
318,-1898,0,96,-4617,23,-176,-77,69
319,-1898,-2,93,-4616,23,-176,-75,69
320,-1897,-3,96,-4614,23,-174,-75,69
321,-1895,-3,96,-4615,23,-173,-77,70
322,-1895,-4,94,-4614,23,-173,-78,71
323,-1895,-3,92,-4609,23,-173,-77,68
324,-1895,-3,89,-4609,23,-174,-77,67
325,-1895,-3,94,-4612,23,-173,-76,67
326,-1896,-3,94,-4614,23,-173,-75,68
327,-1895,-4,95,-4615,23,-172,-77,68
328,-1894,-5,93,-4616,23,-173,-79,68
329,-1895,-2,91,-4616,23,-175,-77,69
330,-1897,-3,91,-4616,23,-176,-77,69
331,-1894,-4,92,-4618,23,-173,-78,69
332,-1893,-3,95,-4616,23,-174,-77,68
333,-1892,-2,96,-4615,23,-174,-76,70
334,-1895,-2,100,-4618,23,-175,-75,69
335,-1896,-3,99,-4617,23,-174,-76,68
336,-1896,-2,93,-4617,23,-177,-76,69
337,-1896,-2,94,-4615,23,-175,-78,68
338,-1896,-2,93,-4614,23,-173,-76,68
339,-1896,-3,92,-4614,23,-172,-78,67
340,-1896,-1,90,-4611,23,-173,-78,68
341,-1893,-2,91,-4612,23,-175,-77,69
342,-1893,-5,91,-4612,23,-174,-77,69
343,-1894,-3,96,-4613,23,-175,-75,71
344,-1894,0,94,-4614,23,-175,-77,72
345,-1896,1,93,-4616,23,-175,-79,70
346,-1896,1,92,-4617,23,-174,-77,70
347,-1895,0,95,-4616,23,-174,-78,68
348,-1897,-2,90,-4616,23,-174,-79,68
349,-1896,-1,93,-4617,23,-174,-79,68
350,-1895,-2,93,-4615,23,-173,-78,70
351,-1896,-3,93,-4618,23,-173,-79,72
352,-1895,-4,93,-4616,23,-174,-79,70
353,-1897,-4,92,-4617,23,-174,-83,70
354,-1895,-5,94,-4618,23,-174,-83,73
355,-1895,-1,94,-4617,23,-173,-81,72
356,-1893,0,93,-4615,23,-174,-77,70
357,-1895,-1,93,-4616,23,-174,-79,69
358,-1896,-2,92,-4615,23,-173,-78,69
359,-1895,-2,92,-4614,23,-174,-76,68
360,-1895,-4,93,-4612,23,-172,-76,67
361,-1894,-3,90,-4610,23,-173,-78,71
362,-1896,-3,89,-4613,23,-173,-79,70
363,-1898,-4,88,-4613,23,-173,-77,70
364,-1895,-4,92,-4613,23,-173,-77,69
365,-1896,-4,95,-4614,23,-173,-76,69
366,-1898,-2,96,-4614,23,-174,-76,69
367,-1897,-2,99,-4612,23,-174,-77,68
368,-1898,-2,100,-4612,23,-175,-78,69
369,-1898,-1,97,-4616,23,-174,-77,68
370,-1896,-3,99,-4613,23,-173,-76,69
371,-1895,-3,95,-4610,23,-174,-75,70
372,-1895,-5,97,-4612,23,-173,-76,71
373,-1894,-4,96,-4612,23,-174,-77,69
374,-1895,-4,96,-4613,23,-173,-77,70
375,-1894,-2,94,-4613,23,-173,-76,70
376,-1894,-2,93,-4613,23,-174,-76,70
377,-1894,-2,90,-4614,23,-175,-76,71
378,-1894,0,92,-4612,23,-174,-76,72
379,-1895,-1,93,-4613,23,-172,-76,72
380,-1894,-1,96,-4614,23,-173,-77,72
381,-1893,0,92,-4612,23,-175,-79,71
382,-1895,-2,93,-4611,23,-174,-78,70
383,-1894,0,94,-4611,23,-175,-78,73
384,-1894,-1,93,-4612,23,-173,-76,73
385,-1895,-2,93,-4610,23,-175,-75,73
386,-1896,-4,91,-4608,23,-175,-76,72
387,-1893,-4,92,-4609,23,-175,-76,71
388,-1894,-2,96,-4611,23,-175,-75,72
389,-1896,-2,97,-4612,23,-175,-74,71
390,-1896,0,95,-4612,23,-175,-74,68
391,-1895,0,99,-4613,23,-176,-75,69
392,-1894,0,99,-4616,23,-178,-75,70
393,-1897,1,96,-4616,23,-177,-75,70
394,-1896,1,92,-4615,23,-176,-76,68
395,-1898,0,92,-4616,23,-177,-73,68
396,-1894,-1,89,-4614,23,-176,-75,68
397,-1895,-2,91,-4614,23,-175,-74,68
398,-1897,-3,92,-4615,23,-175,-75,69
399,-1895,-2,91,-4610,23,-172,-77,69
400,-1897,-3,94,-4613,23,-174,-76,69
401,-1895,-2,94,-4617,23,-173,-76,70
402,-1895,0,92,-4615,23,-173,-77,70
403,-1896,-1,93,-4610,23,-173,-77,70
404,-1896,-2,92,-4611,23,-173,-79,71
405,-1895,-3,91,-4613,23,-175,-79,69
406,-1896,-4,93,-4614,23,-174,-77,70
407,-1896,-4,89,-4611,23,-175,-77,69
408,-1896,-2,92,-4610,23,-173,-77,70
409,-1894,-3,93,-4611,23,-173,-76,69
410,-1896,-2,92,-4612,23,-173,-78,69
411,-1895,0,92,-4612,23,-175,-78,69
412,-1893,0,94,-4613,23,-177,-76,69
413,-1892,-1,92,-4611,23,-174,-75,70
414,-1893,-1,92,-4614,23,-174,-77,71
415,-1895,-1,90,-4612,23,-173,-76,69
416,-1895,-2,94,-4613,23,-173,-78,70
417,-1895,-2,95,-4614,23,-176,-78,69
418,-1893,-2,98,-4616,23,-175,-76,70
419,-1894,0,98,-4614,23,-174,-76,69
420,-1894,-3,96,-4612,23,-176,-74,68
421,-1892,-2,97,-4613,23,-175,-77,68
422,-1892,-2,95,-4615,23,-175,-76,70
423,-1893,-1,94,-4615,23,-175,-75,71
424,-1894,0,96,-4618,23,-176,-76,70
425,-1896,-1,98,-4616,23,-177,-78,69
426,-1897,-1,96,-4615,23,-177,-77,70
427,-1897,-1,96,-4614,23,-173,-75,70
428,-1896,0,91,-4613,23,-172,-78,70
429,-1898,3,92,-4613,23,-171,-78,71
430,-1898,2,94,-4615,23,-172,-78,70
431,-1899,-1,94,-4615,23,-173,-77,69
432,-1897,0,93,-4617,23,-175,-77,71
433,-1895,-1,97,-4615,23,-175,-77,70
434,-1896,-1,95,-4613,23,-174,-80,67
435,-1896,0,96,-4612,23,-173,-78,67
436,-1894,-2,96,-4614,23,-173,-81,69
437,-1894,-3,97,-4611,23,-172,-79,69
438,-1895,-2,97,-4610,23,-172,-79,69
439,-1895,-4,96,-4608,23,-175,-79,68
440,-1896,-2,93,-4610,23,-175,-78,71
441,-1894,-3,96,-4609,23,-176,-77,72
442,-1895,-1,97,-4608,23,-176,-77,69
443,-1894,-3,97,-4612,23,-176,-76,68
444,-1895,-5,96,-4611,23,-174,-75,70
445,-1896,-3,92,-4615,23,-175,-76,70
446,-1896,-3,91,-4615,23,-176,-78,70
447,-1894,-3,89,-4612,23,-173,-78,70
448,-1894,-5,92,-4614,23,-176,-79,69
449,-1895,-4,91,-4612,23,-175,-78,70
450,-1895,-2,89,-4612,23,-175,-76,71
451,-1896,0,91,-4614,23,-175,-75,72
452,-1897,-1,88,-4613,23,-175,-74,70
453,-1897,-2,89,-4617,23,-175,-74,71
454,-1896,-1,91,-4616,23,-174,-75,72
455,-1895,-2,92,-4613,23,-174,-75,72
456,-1896,-1,91,-4611,23,-174,-75,70
457,-1897,-1,93,-4612,23,-176,-72,69
458,-1898,0,98,-4611,23,-176,-74,70
459,-1896,-1,99,-4611,23,-174,-76,71
460,-1899,-3,98,-4611,23,-174,-78,70
461,-1898,-4,96,-4609,23,-171,-77,69
462,-1898,-3,92,-4608,23,-172,-77,71
463,-1895,-3,95,-4607,23,-173,-78,69
464,-1897,-4,96,-4606,23,-174,-79,70
465,-1897,-3,95,-4610,23,-175,-79,68
466,-1898,-1,93,-4612,23,-174,-78,71
467,-1896,0,94,-4613,23,-173,-77,70
468,-1896,0,93,-4611,23,-175,-77,70
469,-1896,-1,91,-4612,23,-175,-76,71
470,-1896,-2,90,-4612,23,-174,-78,70
471,-1894,-2,94,-4614,23,-174,-76,69
472,-1895,-2,95,-4613,23,-176,-77,69
473,-1894,-3,95,-4613,23,-176,-76,70
474,-1894,-6,93,-4613,23,-176,-77,70
475,-1896,-4,93,-4612,23,-176,-77,69
476,-1894,-3,98,-4613,23,-174,-75,70
477,-1894,-3,94,-4611,23,-175,-77,70
478,-1894,-5,91,-4612,23,-174,-75,70
479,-1896,-3,90,-4615,23,-172,-74,71
480,-1896,-2,92,-4616,23,-173,-75,73
481,-1896,-1,91,-4615,23,-173,-75,71
482,-1896,-1,90,-4614,23,-173,-74,71
483,-1896,-2,93,-4614,23,-174,-76,70
484,-1892,0,92,-4616,23,-176,-76,69
485,-1893,-1,92,-4614,23,-175,-75,70
486,-1894,-1,91,-4614,23,-173,-77,71
487,-1894,-1,90,-4613,23,-174,-76,71
488,-1897,-2,93,-4612,23,-175,-77,70
489,-1896,-2,94,-4610,23,-175,-79,69
490,-1897,-1,95,-4608,23,-174,-79,70
491,-1897,-1,97,-4610,23,-174,-79,70
492,-1895,-1,92,-4611,23,-174,-79,71
493,-1895,-1,97,-4614,23,-174,-77,70
494,-1895,-1,95,-4612,23,-174,-76,70
495,-1893,-1,93,-4613,23,-174,-77,69
496,-1891,-2,87,-4615,23,-174,-76,69
497,-1894,-2,92,-4613,23,-175,-77,69
498,-1893,-4,94,-4614,23,-177,-78,71
499,-1895,-4,90,-4614,23,-177,-80,70
500,-1893,-3,91,-4615,23,-176,-78,72
501,-1893,-3,95,-4615,23,-176,-76,72
502,-1893,-3,98,-4618,23,-176,-77,70
503,-1894,-2,95,-4617,23,-175,-79,70
504,-1893,-3,95,-4618,23,-176,-79,70
505,-1893,-1,94,-4613,23,-174,-79,69
506,-1895,-2,94,-4616,23,-174,-79,70
507,-1894,-4,93,-4616,23,-173,-79,69
508,-1893,-5,94,-4616,23,-173,-76,69
509,-1896,-4,96,-4614,23,-173,-77,70
510,-1896,-3,94,-4613,23,-174,-76,72
511,-1895,-3,95,-4614,23,-174,-76,71
512,-1894,-3,95,-4612,23,-176,-76,70
513,-1894,-3,94,-4614,23,-177,-75,69
514,-1894,-2,96,-4612,23,-174,-75,70
515,-1895,2,92,-4616,23,-174,-76,71
516,-1895,-2,93,-4615,23,-174,-77,71
517,-1895,-2,93,-4618,23,-176,-78,71
518,-1894,-4,93,-4618,23,-178,-78,70
519,-1895,-2,93,-4619,23,-178,-80,72
520,-1893,-4,95,-4620,23,-174,-76,70
521,-1894,-2,94,-4616,23,-174,-75,69
522,-1897,-1,93,-4614,23,-177,-76,68
523,-1897,-2,93,-4614,23,-175,-76,69
524,-1897,-1,92,-4611,23,-175,-75,70
525,-1895,-2,94,-4609,23,-174,-75,72
526,-1895,-2,95,-4612,23,-175,-75,72
527,-1896,-2,91,-4611,23,-176,-77,69
528,-1897,-2,93,-4617,23,-178,-78,68
529,-1899,-2,96,-4613,23,-176,-77,70
530,-1897,-2,93,-4612,23,-173,-80,70
531,-1895,-1,96,-4615,23,-173,-78,70
532,-1895,-4,95,-4616,23,-175,-78,69
533,-1896,-5,94,-4615,23,-176,-78,71
534,-1893,-2,93,-4614,23,-175,-78,70
535,-1892,-3,93,-4617,23,-175,-77,73
536,-1893,-3,91,-4619,23,-172,-78,73
537,-1894,-2,91,-4617,23,-174,-78,71
538,-1895,-3,93,-4617,23,-175,-79,72
539,-1897,-4,92,-4616,23,-174,-76,71
540,-1897,-5,94,-4616,23,-173,-76,68
541,-1898,-3,87,-4617,23,-174,-75,68
542,-1898,-3,87,-4617,23,-176,-75,69
543,-1898,-5,91,-4616,23,-176,-74,69
544,-1898,-5,94,-4616,23,-177,-75,70
545,-1893,-4,95,-4614,23,-176,-77,70
546,-1894,-3,93,-4613,23,-173,-75,71
547,-1895,-3,92,-4615,23,-175,-74,69
548,-1895,-2,91,-4617,23,-175,-76,70
549,-1894,-3,95,-4617,23,-175,-79,70
550,-1893,-1,93,-4616,23,-173,-79,70
551,-1895,-2,93,-4617,23,-172,-77,71
552,-1894,-3,95,-4617,23,-173,-76,71
553,-1896,-2,94,-4611,23,-173,-77,71
554,-1895,-4,92,-4611,23,-172,-77,69
555,-1896,-2,93,-4614,23,-172,-77,69
556,-1896,-1,96,-4614,23,-171,-76,68
557,-1895,-2,96,-4616,23,-172,-77,68
558,-1898,-4,96,-4614,23,-173,-74,68
559,-1896,-2,97,-4614,23,-173,-75,67
560,-1896,-2,96,-4613,23,-175,-77,66
561,-1896,-2,91,-4615,23,-175,-77,67
562,-1897,-1,90,-4616,23,-175,-76,70
563,-1897,-2,94,-4618,23,-173,-76,68
564,-1896,-1,92,-4614,23,-173,-77,67
565,-1899,-1,91,-4615,23,-175,-77,68
566,-1898,-3,92,-4615,23,-175,-78,69
567,-1895,-4,91,-4618,23,-175,-78,68
568,-1896,-5,92,-4615,23,-175,-77,68
569,-1894,-5,91,-4611,23,-175,-75,70
570,-1894,-4,93,-4609,23,-176,-76,70
571,-1893,-2,96,-4608,23,-176,-76,69
572,-1893,-1,94,-4611,23,-175,-74,69
573,-1894,-1,97,-4609,23,-173,-72,70
574,-1894,-2,92,-4610,23,-172,-73,69
575,-1896,-2,92,-4612,23,-173,-74,69
576,-1897,0,93,-4613,23,-175,-76,71
577,-1896,-2,93,-4610,23,-175,-76,69
578,-1897,-3,94,-4614,23,-175,-75,70
579,-1895,-2,98,-4615,23,-175,-74,70
580,-1897,-2,95,-4612,23,-174,-76,69
581,-1896,-2,96,-4613,23,-173,-75,70
582,-1897,-1,97,-4610,23,-173,-76,70
583,-1897,-1,92,-4607,23,-171,-76,70
584,-1897,-1,93,-4610,23,-172,-77,70
585,-1895,-1,92,-4609,23,-175,-78,69
586,-1894,-2,94,-4614,23,-175,-78,68
587,-1894,-3,96,-4612,23,-173,-77,70
588,-1892,-3,94,-4611,23,-173,-78,69
589,-1895,-3,93,-4609,23,-172,-78,69
590,-1897,-4,90,-4611,23,-175,-78,70
591,-1895,-2,90,-4614,23,-174,-78,70
592,-1896,-2,96,-4614,23,-173,-76,69
593,-1896,0,94,-4614,23,-174,-76,72
594,-1895,-3,92,-4613,23,-173,-76,69
595,-1893,-2,93,-4612,23,-173,-79,69
596,-1895,-3,92,-4613,23,-174,-77,68
597,-1894,-3,93,-4612,23,-175,-78,68
598,-1896,-2,93,-4613,23,-175,-77,68
599,-1897,-3,90,-4613,23,-173,-75,68
600,-1895,-4,90,-4612,23,-175,-77,68
601,-1895,-3,89,-4613,23,-175,-78,68
602,-1896,-3,90,-4614,23,-175,-76,69
603,-1896,-3,92,-4615,23,-175,-78,67
604,-1894,-4,92,-4615,23,-174,-76,67
605,-1894,-3,91,-4613,23,-176,-75,67
606,-1894,-3,91,-4615,23,-176,-75,67
607,-1895,-2,89,-4615,23,-175,-76,70
608,-1895,-2,93,-4611,23,-174,-78,71
609,-1896,-2,93,-4614,23,-173,-77,71
610,-1896,-3,94,-4612,23,-175,-77,70
611,-1898,-1,95,-4615,23,-175,-76,70
612,-1898,0,95,-4615,23,-175,-76,70
613,-1896,0,94,-4612,23,-176,-77,69
614,-1894,0,94,-4609,23,-177,-77,69
615,-1897,0,93,-4610,23,-176,-77,68
616,-1897,1,94,-4610,23,-174,-77,68
617,-1896,0,95,-4611,23,-175,-77,68
618,-1897,-1,95,-4607,23,-174,-77,68
619,-1897,-1,94,-4612,23,-175,-76,68
620,-1897,-1,95,-4616,23,-174,-74,67
621,-1896,-1,94,-4613,23,-174,-76,67
622,-1895,0,93,-4611,23,-176,-76,68
623,-1896,-4,96,-4612,23,-175,-77,69
624,-1895,-3,96,-4612,23,-175,-78,68
625,-1898,-2,94,-4612,23,-173,-79,68
626,-1898,-2,93,-4613,23,-172,-78,68
627,-1896,1,92,-4613,23,-174,-78,68
628,-1897,1,89,-4615,23,-174,-78,69
629,-1897,0,91,-4614,23,-172,-76,72
630,-1896,-1,90,-4614,23,-173,-76,71
631,-1895,0,90,-4611,23,-175,-76,72
632,-1894,-1,94,-4613,23,-174,-78,73
633,-1893,-1,93,-4614,23,-175,-79,69
634,-1893,0,93,-4614,23,-173,-79,70
635,-1893,-3,90,-4612,23,-175,-78,68
636,-1893,-2,89,-4611,23,-174,-77,69
637,-1896,-1,92,-4611,23,-173,-76,70
638,-1896,0,87,-4611,23,-175,-76,68
639,-1896,-1,87,-4611,23,-177,-75,68
640,-1895,-5,94,-4612,23,-177,-75,67
641,-1894,-3,93,-4611,23,-176,-75,68
642,-1894,-2,92,-4613,23,-176,-76,68
643,-1897,0,92,-4614,23,-176,-76,68
644,-1895,0,90,-4618,23,-175,-77,68
645,-1896,0,91,-4615,23,-175,-77,71
646,-1896,0,91,-4618,23,-174,-76,70
647,-1895,0,95,-4615,23,-175,-76,68
648,-1893,-2,92,-4616,23,-176,-76,72
649,-1893,-2,92,-4617,23,-177,-76,69
650,-1893,-2,92,-4613,23,-176,-77,68
651,-1893,-2,92,-4615,23,-175,-76,69
652,-1896,-2,91,-4617,23,-175,-76,70
653,-1896,-2,94,-4616,23,-177,-75,71
654,-1894,0,95,-4614,23,-174,-76,71
655,-1893,-2,96,-4615,23,-174,-76,70
656,-1895,0,94,-4617,23,-175,-77,72
657,-1896,-2,95,-4617,23,-174,-77,70
658,-1895,-3,94,-4614,23,-174,-79,73
659,-1896,-4,98,-4617,23,-174,-77,72
660,-1896,-4,96,-4616,23,-175,-77,72
661,-1895,-4,95,-4613,23,-172,-76,71
662,-1895,-2,97,-4610,23,-173,-75,72
663,-1896,-1,96,-4615,23,-175,-78,72
664,-1895,-1,97,-4617,23,-174,-77,71
665,-1895,-1,95,-4618,23,-174,-76,71
666,-1897,-1,93,-4615,23,-171,-76,71
667,-1894,-3,93,-4613,23,-172,-77,69
668,-1896,-2,93,-4611,23,-173,-76,71
669,-1895,-2,91,-4614,23,-174,-77,69
670,-1897,-4,95,-4614,23,-173,-76,71
671,-1894,-2,93,-4613,23,-172,-78,71
672,-1895,-5,94,-4614,23,-173,-80,72
673,-1895,-4,95,-4613,23,-172,-79,72
674,-1894,-2,96,-4614,23,-173,-79,74
675,-1895,-2,93,-4612,23,-172,-77,72
676,-1894,-1,92,-4612,23,-172,-77,70
677,-1895,-2,94,-4614,23,-173,-76,69
678,-1895,-1,93,-4614,23,-172,-75,69
679,-1894,-3,89,-4614,23,-173,-76,67
680,-1893,-2,90,-4614,23,-173,-75,67
681,-1894,-1,89,-4614,23,-174,-75,69
682,-1893,-3,91,-4612,23,-174,-77,69
683,-1895,-2,92,-4608,23,-174,-75,68
684,-1897,-1,93,-4607,23,-174,-76,69
685,-1895,-2,94,-4610,23,-175,-78,68
686,-1895,1,91,-4611,23,-176,-78,69
687,-1896,0,96,-4614,23,-175,-76,70
688,-1897,1,94,-4612,23,-176,-76,69
689,-1896,-1,91,-4614,23,-176,-77,69
690,-1897,-3,90,-4614,23,-174,-77,69
691,-1894,-4,88,-4611,23,-173,-76,67
692,-1894,-2,89,-4615,23,-174,-75,68
693,-1894,-3,91,-4615,23,-173,-74,69
694,-1896,-3,91,-4614,23,-173,-76,70
695,-1895,-3,95,-4617,23,-173,-75,70
696,-1896,0,94,-4615,23,-175,-76,71
697,-1896,-1,93,-4612,23,-177,-77,71
698,-1896,0,92,-4612,23,-175,-75,69
699,-1895,0,89,-4612,23,-174,-76,70
700,-1894,-2,90,-4612,23,-173,-76,70
701,-1894,-3,91,-4614,23,-173,-76,69
702,-1894,-5,89,-4614,23,-175,-76,69
703,-1897,-5,93,-4611,23,-174,-76,71
704,-1898,-6,94,-4613,23,-173,-76,69
705,-1897,-5,93,-4614,23,-175,-77,70
706,-1895,-5,93,-4609,23,-175,-76,71
707,-1896,-3,98,-4613,23,-172,-79,70
708,-1896,-1,93,-4612,23,-172,-80,71
709,-1893,-2,92,-4615,23,-173,-78,70
710,-1893,0,91,-4612,23,-172,-79,70
711,-1893,-2,90,-4610,23,-171,-76,71
712,-1892,-2,93,-4609,23,-172,-76,71
713,-1892,-3,94,-4610,23,-173,-78,70
714,-1892,-4,96,-4607,23,-174,-78,69
715,-1893,-6,92,-4611,23,-174,-78,69
716,-1895,-5,89,-4611,23,-173,-79,72
717,-1895,-4,93,-4613,23,-174,-77,70
718,-1896,-2,94,-4611,23,-174,-80,71
719,-1896,-1,93,-4613,23,-174,-82,72
720,-1895,-1,95,-4612,23,-176,-79,71
721,-1893,0,93,-4611,23,-176,-79,71
722,-1894,0,94,-4607,23,-175,-78,71
723,-1894,-3,91,-4608,23,-175,-78,71
724,-1895,-4,94,-4607,23,-175,-77,71
725,-1894,-3,95,-4607,23,-174,-79,72
726,-1895,-2,95,-4609,23,-174,-77,69
727,-1896,-2,89,-4608,23,-174,-78,69
728,-1895,-3,92,-4614,23,-174,-76,70
729,-1895,-4,95,-4611,23,-175,-76,69
730,-1894,-3,96,-4613,23,-175,-76,70
731,-1891,-2,93,-4611,23,-174,-74,71
732,-1894,-1,93,-4614,23,-172,-73,69
733,-1894,0,92,-4611,23,-174,-75,69
734,-1898,0,94,-4612,23,-174,-77,70
735,-1898,-1,96,-4608,23,-174,-77,69
736,-1898,0,99,-4613,23,-174,-75,71
737,-1895,-1,94,-4611,23,-174,-77,70
738,-1895,-2,93,-4611,23,-174,-76,71
739,-1897,-1,94,-4608,23,-174,-77,71
740,-1898,1,95,-4608,23,-174,-77,70
741,-1896,1,93,-4613,23,-175,-78,69
742,-1897,0,89,-4612,23,-175,-77,70
743,-1895,0,91,-4612,23,-174,-75,70
744,-1896,0,90,-4611,23,-175,-76,68
745,-1896,0,92,-4611,23,-176,-74,71
746,-1896,1,90,-4610,23,-174,-76,70
747,-1898,-2,89,-4612,23,-174,-77,69
748,-1896,-2,92,-4609,23,-175,-77,69
749,-1894,-3,95,-4609,23,-173,-76,67
750,-1895,-5,94,-4610,23,-171,-77,69
751,-1895,-3,95,-4608,23,-172,-75,70
752,-1895,-3,94,-4609,23,-172,-75,70
753,-1896,-2,91,-4611,23,-174,-75,69
754,-1895,-4,93,-4610,23,-174,-75,68
755,-1896,-3,93,-4611,23,-174,-75,68
756,-1895,-5,92,-4612,23,-174,-76,69
757,-1894,-5,91,-4615,23,-173,-76,69
758,-1894,-5,93,-4613,23,-172,-74,68
759,-1895,-5,96,-4612,23,-174,-76,69
760,-1894,-3,92,-4610,23,-174,-75,70
761,-1894,-5,91,-4613,23,-176,-74,70
762,-1894,-4,92,-4612,23,-178,-74,69
763,-1896,-4,90,-4612,23,-175,-73,69
764,-1898,-4,89,-4613,23,-174,-75,69
765,-1896,-1,90,-4610,23,-174,-76,68
766,-1896,0,92,-4614,23,-172,-74,68
767,-1896,-2,93,-4615,23,-174,-72,69
768,-1896,-3,92,-4609,23,-175,-73,70
769,-1897,-4,91,-4611,23,-174,-75,70
770,-1894,-3,92,-4610,23,-174,-76,69
771,-1892,-3,93,-4613,23,-175,-76,70
772,-1892,-4,92,-4612,23,-174,-77,69
773,-1892,-3,92,-4610,23,-174,-76,69
774,-1894,-3,94,-4607,23,-176,-75,71
775,-1894,-4,96,-4608,23,-176,-76,70
776,-1894,-4,95,-4608,23,-175,-74,70
777,-1896,-3,93,-4606,23,-175,-76,70
778,-1895,-3,93,-4608,23,-177,-76,69
779,-1895,-4,93,-4609,23,-173,-75,67
780,-1894,-2,95,-4609,23,-175,-75,67
781,-1895,-1,95,-4607,23,-176,-76,67
782,-1895,-1,93,-4607,23,-176,-77,67
783,-1896,-3,90,-4606,23,-176,-77,67
784,-1896,-4,89,-4609,23,-176,-77,67
785,-1896,-3,90,-4613,23,-175,-77,68
786,-1896,-2,93,-4612,23,-176,-75,68
787,-1896,1,94,-4613,23,-173,-77,69
788,-1895,0,96,-4612,23,-175,-77,68
789,-1892,0,95,-4609,23,-176,-78,70
790,-1893,-1,94,-4612,23,-176,-77,72
791,-1894,0,93,-4613,23,-176,-77,72
792,-1893,0,94,-4612,23,-173,-77,70
793,-1892,0,93,-4611,23,-173,-79,69
794,-1892,-2,92,-4609,23,-174,-76,70
795,-1893,-3,92,-4609,23,-176,-76,69
796,-1892,-2,89,-4610,23,-176,-78,69
797,-1894,-3,89,-4613,23,-175,-77,68
798,-1895,-2,89,-4613,23,-176,-77,68
799,-1896,0,92,-4611,23,-176,-75,70
800,-1896,-2,91,-4609,23,-176,-77,68
801,-1897,-1,90,-4611,23,-175,-77,69
802,-1894,-4,93,-4612,23,-174,-79,69
803,-1895,-3,93,-4611,23,-175,-79,68
804,-1895,-2,92,-4612,23,-175,-78,67
805,-1895,-2,93,-4612,23,-175,-79,68
806,-1895,-2,92,-4614,23,-176,-78,70
807,-1896,-2,90,-4612,23,-176,-78,70
808,-1896,-3,93,-4609,23,-176,-76,70
809,-1896,-2,95,-4610,23,-173,-75,70
810,-1897,-3,95,-4610,23,-174,-76,70
811,-1896,-3,94,-4607,23,-175,-78,70
812,-1894,-4,95,-4607,23,-172,-75,70
813,-1896,-4,94,-4607,23,-172,-77,69
814,-1895,-2,92,-4608,23,-173,-78,69
815,-1894,0,91,-4611,23,-175,-78,69
816,-1895,-2,95,-4609,23,-175,-78,71
817,-1897,0,96,-4612,23,-177,-77,70
818,-1896,0,98,-4609,23,-179,-77,69
819,-1894,-2,97,-4607,23,-177,-77,71
820,-1893,-2,95,-4610,23,-175,-76,70
821,-1894,-1,93,-4611,23,-175,-76,69
822,-1892,-3,92,-4612,23,-174,-78,70
823,-1894,-1,91,-4611,23,-176,-75,71
824,-1895,-1,91,-4613,23,-175,-75,73
825,-1894,-3,96,-4610,23,-175,-79,72
826,-1895,-3,95,-4609,23,-173,-79,72
827,-1896,-6,93,-4608,23,-176,-78,70
828,-1896,-4,93,-4607,23,-176,-79,67
829,-1895,-3,94,-4606,23,-176,-78,68
830,-1894,-3,95,-4607,23,-175,-77,69
831,-1895,-4,97,-4610,23,-173,-76,68
832,-1895,-3,94,-4608,23,-174,-76,66
833,-1896,-3,98,-4609,23,-175,-77,68
834,-1893,-2,96,-4609,23,-174,-76,68
835,-1894,-2,95,-4610,23,-175,-77,67
836,-1895,-2,94,-4611,23,-174,-76,71
837,-1896,-3,94,-4610,23,-173,-75,69
838,-1895,-3,93,-4610,23,-175,-76,67
839,-1895,-4,90,-4610,23,-175,-76,67
840,-1895,-6,93,-4607,23,-176,-75,69
841,-1895,-3,92,-4610,23,-176,-75,69
842,-1896,-3,92,-4608,23,-175,-74,69
843,-1896,-1,92,-4607,23,-175,-75,70
844,-1894,-2,93,-4610,23,-175,-76,70
845,-1893,-2,90,-4608,23,-175,-76,68
846,-1894,-2,94,-4608,23,-175,-76,66
847,-1896,-1,96,-4608,23,-176,-76,66
848,-1895,-3,93,-4610,23,-175,-77,68
849,-1895,-1,96,-4611,23,-175,-76,69
850,-1894,1,91,-4610,23,-176,-75,68
851,-1891,0,93,-4611,23,-174,-78,69
852,-1893,0,92,-4612,23,-173,-77,67
853,-1896,-1,92,-4610,23,-173,-76,68
854,-1895,-1,95,-4612,23,-174,-75,70
855,-1892,-1,93,-4611,23,-174,-78,69
856,-1892,-1,95,-4609,23,-176,-78,70
857,-1892,-3,91,-4605,23,-175,-78,67
858,-1893,-1,93,-4612,23,-175,-78,69
859,-1892,0,92,-4612,23,-175,-77,70
860,-1895,-2,95,-4610,23,-174,-76,69
861,-1894,-2,93,-4613,23,-177,-77,68
862,-1895,-2,91,-4611,23,-176,-77,68
863,-1896,-2,93,-4608,23,-178,-77,69
864,-1894,-3,93,-4608,23,-178,-79,70
865,-1896,-3,96,-4609,23,-178,-77,69
866,-1894,-4,92,-4611,23,-177,-79,69
867,-1895,-3,93,-4612,23,-174,-76,71
868,-1895,-2,94,-4613,23,-174,-77,70
869,-1895,-2,94,-4611,23,-173,-75,70
870,-1894,-1,96,-4609,23,-173,-77,70
871,-1894,-3,93,-4609,23,-172,-77,69
872,-1897,-3,92,-4609,23,-173,-78,70
873,-1895,-4,97,-4608,23,-172,-76,68
874,-1897,-1,97,-4609,23,-174,-77,70
875,-1897,-2,93,-4607,23,-177,-77,68
876,-1896,-3,93,-4607,23,-175,-75,68
877,-1895,-3,94,-4607,23,-176,-77,67
878,-1894,-3,95,-4611,23,-175,-76,66
879,-1895,-3,96,-4610,23,-175,-76,67
880,-1896,-4,97,-4610,23,-175,-76,72
881,-1897,-5,96,-4610,23,-174,-76,72
882,-1896,-5,95,-4607,23,-175,-76,70
883,-1897,-5,95,-4606,23,-175,-76,71
884,-1897,-2,94,-4607,23,-174,-77,71
885,-1896,-3,91,-4612,23,-174,-78,70
886,-1896,-4,90,-4613,23,-175,-78,71
887,-1894,-3,94,-4611,23,-176,-80,70
888,-1895,-3,94,-4612,23,-177,-83,70
889,-1895,-2,90,-4609,23,-176,-82,69
890,-1895,-1,92,-4608,23,-175,-80,68
891,-1893,-1,92,-4610,23,-175,-77,68
892,-1892,-1,91,-4612,23,-174,-76,66
893,-1892,0,89,-4612,23,-175,-76,67
894,-1896,-2,88,-4610,23,-178,-75,68
895,-1897,-3,91,-4609,23,-178,-75,67
896,-1898,-5,95,-4607,23,-177,-77,68
897,-1896,-4,94,-4610,23,-173,-77,67
898,-1897,-5,92,-4610,23,-172,-79,68
899,-1897,-4,91,-4608,23,-173,-76,69
900,-1897,-3,92,-4611,23,-174,-75,70
901,-1894,-2,96,-4610,23,-175,-76,68
902,-1894,-2,91,-4611,23,-174,-78,67
903,-1893,-3,90,-4613,23,-175,-76,68
904,-1894,-2,93,-4613,23,-176,-78,69
905,-1895,-2,93,-4611,23,-176,-78,71
906,-1894,-2,92,-4611,23,-174,-76,71
907,-1895,-2,93,-4611,23,-177,-78,71
908,-1894,-2,94,-4613,23,-176,-79,70
909,-1895,-1,98,-4605,23,-175,-80,69
910,-1893,-3,96,-4609,23,-175,-78,69
911,-1894,1,95,-4612,23,-175,-76,68
912,-1894,1,95,-4612,23,-175,-76,68
913,-1895,-3,93,-4613,23,-176,-75,68
914,-1893,-1,94,-4612,23,-173,-75,68
915,-1891,-2,95,-4608,23,-174,-77,68
916,-1892,-4,95,-4607,23,-172,-77,68
917,-1893,-5,92,-4607,23,-176,-78,68
918,-1895,-7,95,-4607,23,-173,-79,68
919,-1892,-4,94,-4606,23,-176,-78,67
920,-1892,-2,96,-4606,23,-177,-77,67
921,-1893,-1,94,-4609,23,-177,-76,67
922,-1893,-2,96,-4608,23,-177,-75,69
923,-1894,-4,92,-4608,23,-175,-76,68
924,-1894,-3,93,-4609,23,-176,-75,71
925,-1895,-4,93,-4610,23,-177,-77,70
926,-1893,-2,92,-4615,23,-176,-78,69
927,-1892,-2,92,-4612,23,-174,-78,70
928,-1892,-5,94,-4612,23,-176,-76,67
929,-1895,-4,92,-4608,23,-173,-76,69
930,-1895,-5,92,-4609,23,-174,-75,70
931,-1892,-3,92,-4607,23,-173,-76,69
932,-1893,-4,92,-4607,23,-174,-74,70
933,-1893,-4,94,-4610,23,-174,-75,70
934,-1894,-3,91,-4608,23,-174,-75,70
935,-1898,-1,93,-4610,23,-174,-76,70
936,-1898,-4,90,-4609,23,-171,-76,70
937,-1898,-3,92,-4608,23,-172,-78,68
938,-1898,-3,93,-4607,23,-173,-78,71
939,-1894,-1,92,-4604,23,-172,-79,72
940,-1892,-2,94,-4604,23,-174,-81,71
941,-1894,-3,94,-4606,23,-174,-78,70
942,-1897,-1,94,-4605,23,-174,-79,70
943,-1894,-2,94,-4607,23,-176,-76,69
944,-1895,-2,94,-4609,23,-175,-75,69
945,-1893,-1,94,-4606,23,-174,-76,68
946,-1894,-1,93,-4611,23,-174,-76,69
947,-1895,-2,90,-4610,23,-175,-79,68
948,-1894,-1,92,-4609,23,-174,-79,68
949,-1893,-1,95,-4613,23,-173,-78,68
950,-1893,0,93,-4612,23,-173,-78,70
951,-1895,-2,96,-4611,23,-173,-76,70
952,-1896,-1,94,-4613,23,-174,-76,72
953,-1896,0,97,-4613,23,-175,-76,69
954,-1896,1,94,-4610,23,-173,-77,69
955,-1898,-1,92,-4609,23,-174,-78,69
956,-1896,0,93,-4610,23,-174,-77,68
957,-1895,-4,94,-4612,23,-174,-79,68
958,-1895,-4,96,-4611,23,-175,-80,69
959,-1895,-4,95,-4609,23,-175,-78,69
960,-1895,-2,96,-4608,23,-176,-77,68
961,-1895,1,97,-4607,23,-176,-76,68
962,-1894,2,97,-4607,23,-174,-79,70
963,-1896,-1,96,-4607,23,-173,-79,70
964,-1895,-1,92,-4604,23,-174,-78,71
965,-1896,1,89,-4602,23,-172,-77,72
966,-1896,0,91,-4605,23,-173,-76,71
967,-1897,-2,91,-4609,23,-174,-78,69
968,-1896,-2,92,-4608,23,-174,-78,68
969,-1896,-2,94,-4606,23,-176,-78,69
970,-1895,-2,95,-4607,23,-177,-78,69
971,-1895,-1,96,-4607,23,-177,-79,68
972,-1896,1,94,-4606,23,-175,-78,68
973,-1896,-1,93,-4605,23,-176,-79,69
974,-1895,-4,93,-4605,23,-176,-79,66
975,-1896,-5,95,-4603,23,-175,-76,67
976,-1898,-3,97,-4605,23,-176,-78,70
977,-1899,-1,94,-4607,23,-175,-77,71
978,-1899,-3,91,-4609,23,-175,-78,69
979,-1899,-1,89,-4608,23,-174,-78,69
980,-1897,-1,93,-4607,23,-174,-80,67
981,-1896,-1,92,-4609,23,-176,-81,68
982,-1894,-2,95,-4608,23,-175,-78,68
983,-1895,-4,97,-4614,23,-173,-79,67
984,-1892,-2,95,-4610,23,-174,-78,70
985,-1895,-1,95,-4611,23,-174,-78,69
986,-1895,0,96,-4612,23,-175,-78,71
987,-1895,0,92,-4613,23,-175,-78,69
988,-1894,0,94,-4610,23,-175,-78,70
989,-1894,1,93,-4611,23,-175,-78,68
990,-1894,-2,90,-4611,23,-176,-79,69
991,-1894,-2,91,-4612,23,-176,-79,69
992,-1895,-2,94,-4612,23,-177,-77,69
993,-1897,-3,96,-4609,23,-176,-76,68
994,-1897,-4,96,-4613,23,-175,-76,69
995,-1896,-4,94,-4610,23,-175,-74,70
996,-1897,-4,94,-4612,23,-176,-76,70
997,-1895,-4,93,-4611,23,-174,-76,71
998,-1894,-2,92,-4605,23,-174,-76,70
