,acc_X,acc_Y,acc_Z,temp,tempC,gyr_X,gyr_Y,gyr_Z
0,-15128,-26,750,-4739,23,-86,-37,32
1,-15182,64,724,-4744,23,-89,-37,33
2,-15172,10,658,-4733,23,-90,-39,32
3,-15140,22,680,-4736,23,-88,-36,34
4,-15158,48,680,-4747,23,-85,-37,33
5,-15148,-16,708,-4733,23,-87,-36,31
6,-15200,8,740,-4728,23,-86,-41,39
7,-15086,-24,738,-4741,23,-88,-34,37
8,-15190,-42,702,-4741,23,-87,-42,36
9,-15122,-48,712,-4737,23,-87,-41,33
10,-15108,-12,692,-4743,23,-87,-43,34
11,-15156,52,698,-4741,23,-85,-36,32
12,-15150,-34,708,-4735,23,-86,-39,34
13,-15180,-30,768,-4734,23,-88,-39,33
14,-15146,-46,698,-4740,23,-84,-38,36
15,-15214,38,734,-4748,23,-85,-42,35
16,-15174,-24,728,-4741,23,-86,-36,36
17,-15162,-36,806,-4733,23,-87,-37,37
18,-15096,-48,790,-4745,23,-86,-37,33
19,-15152,-22,714,-4740,23,-84,-37,35
20,-15126,-18,802,-4730,23,-84,-39,32
21,-15114,-10,754,-4738,23,-87,-39,36
22,-15186,-48,754,-4728,23,-90,-37,34
23,-15164,26,762,-4743,23,-87,-38,35
24,-15116,-72,740,-4726,23,-87,-37,34
25,-15132,14,740,-4730,23,-87,-39,37
26,-15170,-42,702,-4734,23,-86,-36,36
27,-15122,-32,742,-4729,23,-92,-37,38
28,-15176,-52,792,-4746,23,-85,-36,34
29,-15212,2,770,-4744,23,-88,-35,32
30,-15108,-6,764,-4726,23,-85,-41,35
31,-15156,30,750,-4731,23,-89,-39,32
32,-15162,-24,678,-4737,23,-88,-40,34
33,-15102,-20,708,-4734,23,-89,-40,36
34,-15122,-74,702,-4735,23,-89,-41,36
35,-15142,-20,738,-4737,23,-90,-38,34
36,-15162,-36,682,-4742,23,-87,-40,35
37,-15184,-26,668,-4742,23,-87,-39,34
38,-15126,8,714,-4732,23,-87,-40,34
39,-15184,6,772,-4732,23,-86,-34,33
40,-15138,18,766,-4722,23,-86,-39,38
41,-15182,20,702,-4747,23,-86,-39,33
42,-15128,-48,766,-4736,23,-88,-36,37
43,-15170,4,766,-4730,23,-84,-39,32
44,-15150,-64,748,-4741,23,-85,-37,35
45,-15172,34,680,-4737,23,-87,-40,37
46,-15142,64,760,-4737,23,-87,-41,36
47,-15138,38,768,-4741,23,-85,-39,32
48,-15138,10,724,-4736,23,-89,-38,34
49,-15112,4,788,-4736,23,-87,-40,35
50,-15184,-32,824,-4733,23,-85,-38,35
51,-15112,22,768,-4736,23,-87,-38,32
52,-15148,-34,726,-4746,23,-84,-37,36
53,-15168,-40,784,-4734,23,-85,-39,32
54,-15158,12,722,-4733,23,-87,-34,36
55,-15144,-38,750,-4742,23,-88,-43,35
56,-15192,-40,826,-4729,23,-90,-40,32
57,-15152,-40,662,-4738,23,-88,-40,38
58,-15136,-16,792,-4746,23,-87,-40,35
59,-15140,30,712,-4747,23,-87,-36,33
60,-15180,-36,722,-4743,23,-85,-38,35
61,-15132,48,726,-4743,23,-88,-37,31
62,-15134,-48,712,-4732,23,-88,-36,37
63,-15162,-48,804,-4726,23,-89,-40,38
64,-15134,-34,766,-4737,23,-86,-40,37
65,-15190,-28,756,-4734,23,-86,-37,35
66,-15184,-48,686,-4727,23,-89,-38,33
67,-15168,20,694,-4737,23,-89,-39,32
68,-15122,32,770,-4731,23,-87,-39,33
69,-15084,24,742,-4730,23,-86,-34,36
70,-15122,-54,924,-4734,23,-90,-41,37
71,-15150,-8,624,-4731,23,-88,-42,33
72,-15172,8,742,-4738,23,-89,-37,35
73,-15124,-88,790,-4735,23,-88,-38,33
74,-15216,14,708,-4742,23,-85,-35,31
75,-15206,12,806,-4734,23,-85,-41,32
76,-15072,-12,704,-4726,23,-88,-37,36
77,-15084,-14,760,-4739,23,-87,-38,36
78,-15190,-24,720,-4731,23,-88,-39,34
79,-15130,20,760,-4732,23,-87,-38,35
80,-15186,12,662,-4726,23,-89,-40,34
81,-15172,6,756,-4737,23,-83,-37,32
82,-15172,-32,784,-4732,23,-87,-41,35
83,-15128,-4,666,-4738,23,-88,-39,38
84,-15148,-26,786,-4736,23,-89,-36,32
85,-15124,-44,754,-4730,23,-87,-36,33
86,-15166,-40,804,-4733,23,-87,-42,33
87,-15118,50,786,-4740,23,-84,-42,35
88,-15148,-58,690,-4740,23,-85,-39,35
89,-15160,4,788,-4744,23,-83,-37,33
90,-15202,20,714,-4730,23,-82,-35,35
91,-15112,-8,768,-4730,23,-84,-38,34
92,-15184,66,758,-4730,23,-85,-35,34
93,-15154,26,716,-4736,23,-89,-35,33
94,-15164,8,674,-4732,23,-88,-38,36
95,-15122,0,736,-4737,23,-88,-43,34
96,-15174,-6,722,-4729,23,-87,-39,34
97,-15146,4,662,-4732,23,-86,-39,34
98,-15128,-20,802,-4723,23,-86,-40,36
99,-15182,-16,764,-4726,23,-86,-40,36
100,-15106,10,754,-4739,23,-88,-36,36
101,-15140,16,768,-4735,23,-85,-42,31
102,-15106,-70,678,-4719,23,-89,-41,36
103,-15074,-58,684,-4735,23,-87,-36,34
104,-15108,-30,824,-4732,23,-81,-38,34
105,-15166,-4,702,-4731,23,-86,-40,37
106,-15086,-68,784,-4742,23,-87,-41,36
107,-15214,-2,836,-4735,23,-85,-37,35
108,-15152,-60,766,-4738,23,-87,-39,35
109,-15144,-14,718,-4734,23,-85,-41,34
110,-15212,16,850,-4741,23,-85,-39,35
111,-15128,-26,754,-4733,23,-88,-38,34
112,-15090,18,752,-4725,23,-85,-42,34
113,-15120,2,662,-4740,23,-86,-40,35
114,-15198,24,768,-4736,23,-87,-38,35
115,-15212,6,780,-4735,23,-86,-40,33
116,-15132,-18,810,-4739,23,-84,-39,34
117,-15110,28,764,-4741,23,-86,-41,36
118,-15158,0,844,-4734,23,-85,-35,31
119,-15166,-6,738,-4736,23,-87,-37,33
120,-15160,4,746,-4743,23,-87,-35,33
121,-15166,24,738,-4734,23,-85,-38,35
122,-15138,0,722,-4732,23,-89,-39,33
123,-15084,8,706,-4734,23,-85,-37,35
124,-15124,-30,744,-4738,23,-92,-44,33
125,-15114,-36,664,-4735,23,-87,-38,36
126,-15128,-12,804,-4727,23,-88,-38,36
127,-15196,24,728,-4746,23,-86,-41,33
128,-15088,-46,742,-4738,23,-85,-37,32
129,-15112,34,716,-4733,23,-87,-37,34
130,-15188,12,810,-4743,23,-86,-39,37
131,-15162,-12,678,-4734,23,-86,-40,35
132,-15204,24,750,-4733,23,-83,-35,34
133,-15106,-38,796,-4734,23,-86,-40,34
134,-15226,-44,688,-4733,23,-85,-40,36
135,-15176,-116,664,-4734,23,-87,-37,35
136,-15154,18,814,-4735,23,-91,-36,34
137,-15152,-30,740,-4725,23,-85,-39,35
138,-15204,-34,740,-4736,23,-83,-43,36
139,-15116,-30,822,-4726,23,-83,-35,34
140,-15154,10,826,-4730,23,-88,-41,36
141,-15194,-24,722,-4724,23,-88,-41,35
142,-15166,-34,722,-4739,23,-86,-36,33
143,-15088,-36,808,-4736,23,-89,-38,31
144,-15180,28,836,-4726,23,-86,-38,34
145,-15260,8,758,-4732,23,-85,-40,35
146,-15174,28,740,-4742,23,-87,-36,35
147,-15104,-20,832,-4750,23,-88,-36,32
148,-15080,-4,736,-4738,23,-87,-40,35
149,-15198,-58,700,-4742,23,-88,-40,35
150,-15240,-8,800,-4735,23,-82,-40,33
151,-15092,18,790,-4725,23,-89,-42,38
152,-15156,-88,662,-4722,23,-82,-39,36
153,-15168,-14,752,-4725,23,-86,-39,35
154,-15126,58,704,-4730,23,-88,-39,37
155,-15150,-16,692,-4734,23,-88,-38,34
156,-15164,70,720,-4726,23,-87,-37,32
157,-15156,-60,684,-4733,23,-85,-36,37
158,-15164,-26,822,-4728,23,-84,-41,34
159,-15172,-16,776,-4733,23,-84,-44,34
160,-15156,-10,686,-4731,23,-87,-40,34
161,-15180,-12,748,-4735,23,-85,-35,33
162,-15068,-40,734,-4734,23,-85,-41,33
163,-15180,-38,660,-4732,23,-86,-37,37
164,-15180,-6,768,-4737,23,-88,-40,33
165,-15104,-50,680,-4733,23,-81,-41,34
166,-15150,-14,784,-4743,23,-85,-41,36
167,-15110,-30,740,-4733,23,-87,-38,34
168,-15152,-40,702,-4733,23,-89,-41,34
169,-15158,30,766,-4736,23,-87,-39,34
170,-15164,-22,758,-4740,23,-83,-37,34
171,-15176,-32,788,-4743,23,-85,-39,33
172,-15182,-26,852,-4733,23,-89,-40,37
173,-15122,-32,704,-4733,23,-90,-37,32
174,-15156,-20,756,-4733,23,-84,-37,32
175,-15114,-12,762,-4736,23,-85,-41,35
176,-15202,22,824,-4733,23,-83,-39,33
177,-15120,-16,666,-4738,23,-91,-40,37
178,-15144,-14,836,-4734,23,-82,-35,35
179,-15182,-22,672,-4729,23,-88,-38,33
180,-15146,-16,750,-4745,23,-87,-38,37
181,-15234,72,766,-4737,23,-88,-43,35
182,-15144,-22,718,-4737,23,-88,-41,37
183,-15216,30,632,-4734,23,-87,-37,33
184,-15108,2,776,-4738,23,-87,-43,35
185,-15190,-8,664,-4731,23,-86,-38,35
186,-15138,38,732,-4737,23,-88,-40,36
187,-15066,12,718,-4730,23,-88,-41,38
188,-15170,-66,870,-4742,23,-84,-40,33
189,-15152,-48,738,-4740,23,-87,-36,34
190,-15098,2,768,-4742,23,-88,-37,35
191,-15154,16,782,-4744,23,-85,-41,33
192,-15172,32,806,-4738,23,-83,-39,36
193,-15134,-24,788,-4733,23,-87,-36,35
194,-15106,-30,754,-4731,23,-88,-42,35
195,-15146,16,756,-4723,23,-88,-42,32
196,-15176,-40,862,-4741,23,-91,-39,34
197,-15092,-14,668,-4741,23,-84,-40,37
198,-15082,-26,786,-4743,23,-87,-43,34
199,-15216,-14,656,-4729,23,-88,-39,32
200,-15124,-26,736,-4732,23,-86,-39,35
201,-15162,-20,696,-4732,23,-88,-35,35
202,-15134,-32,774,-4738,23,-84,-38,36
203,-15152,16,736,-4729,23,-91,-40,30
204,-15116,2,764,-4732,23,-82,-39,34
205,-15180,-22,666,-4727,23,-88,-40,35
206,-15124,-28,738,-4744,23,-87,-41,32
207,-15178,-58,754,-4735,23,-89,-42,36
208,-15150,-46,816,-4733,23,-85,-41,34
209,-15178,-42,832,-4729,23,-86,-41,32
210,-15068,-16,838,-4742,23,-87,-36,36
211,-15154,24,714,-4735,23,-88,-42,36
212,-15168,-24,696,-4736,23,-86,-39,36
213,-15148,38,750,-4744,23,-87,-37,33
214,-15166,-30,722,-4742,23,-89,-38,34
215,-15150,12,772,-4719,23,-87,-36,33
216,-15130,-14,754,-4727,23,-86,-38,35
217,-15114,-16,636,-4728,23,-86,-39,36
218,-15176,-6,762,-4729,23,-90,-35,37
219,-15140,-4,694,-4732,23,-84,-39,36
220,-15160,-8,720,-4744,23,-84,-37,36
221,-15162,-16,658,-4744,23,-85,-35,36
222,-15138,-50,718,-4731,23,-91,-37,34
223,-15118,2,704,-4739,23,-85,-38,38
224,-15138,6,790,-4726,23,-89,-40,32
225,-15164,-26,838,-4739,23,-87,-38,37
226,-15168,-42,734,-4737,23,-87,-44,39
227,-15138,2,772,-4728,23,-87,-35,35
228,-15162,26,808,-4736,23,-86,-39,37
229,-15140,42,814,-4732,23,-87,-39,34
230,-15192,56,740,-4729,23,-84,-40,34
231,-15106,6,776,-4732,23,-86,-37,35
232,-15160,24,682,-4736,23,-84,-37,36
233,-15170,42,780,-4741,23,-86,-34,34
234,-15206,24,674,-4735,23,-89,-37,31
235,-15104,-14,682,-4744,23,-88,-37,34
236,-15142,-34,838,-4739,23,-85,-38,34
237,-15172,-2,776,-4738,23,-88,-37,38
238,-15132,-78,748,-4740,23,-85,-38,36
239,-15108,-2,760,-4730,23,-88,-38,34
240,-15162,6,790,-4732,23,-88,-41,32
241,-15160,-22,696,-4732,23,-86,-38,33
242,-15178,6,822,-4732,23,-88,-35,35
243,-15156,24,690,-4736,23,-84,-37,35
244,-15214,38,804,-4744,23,-88,-37,36
245,-15140,-72,690,-4735,23,-85,-35,32
246,-15130,-22,758,-4738,23,-86,-38,35
247,-15146,-42,796,-4739,23,-85,-37,35
248,-15110,14,714,-4735,23,-89,-36,35
249,-15174,56,746,-4733,23,-87,-40,33
250,-15120,8,770,-4724,23,-86,-41,35
251,-15146,18,804,-4735,23,-89,-43,33
252,-15148,-18,768,-4734,23,-90,-39,34
253,-15092,22,722,-4746,23,-84,-38,32
254,-15122,-6,762,-4744,23,-85,-37,35
255,-15114,-32,724,-4730,23,-85,-38,33
256,-15130,-38,770,-4733,23,-88,-38,38
257,-15114,-48,836,-4733,23,-89,-36,37
258,-15166,14,744,-4743,23,-89,-37,34
259,-15164,-2,798,-4733,23,-88,-37,36
260,-15100,-56,690,-4727,23,-87,-36,32
261,-15142,-64,706,-4736,23,-86,-38,32
262,-15152,-48,726,-4735,23,-85,-37,34
263,-15132,18,764,-4733,23,-85,-41,34
264,-15090,0,746,-4737,23,-88,-39,32
265,-15190,34,728,-4739,23,-86,-38,34
266,-15148,-32,780,-4732,23,-81,-37,32
267,-15150,14,738,-4736,23,-86,-42,34
268,-15116,-38,776,-4727,23,-86,-42,33
269,-15156,-18,860,-4738,23,-85,-40,35
270,-15126,-22,740,-4732,23,-84,-35,35
271,-15136,14,770,-4744,23,-87,-40,35
272,-15174,76,730,-4750,23,-87,-36,34
273,-15160,-48,750,-4727,23,-86,-39,32
274,-15068,-12,790,-4742,23,-86,-38,35
275,-15156,-6,654,-4739,23,-86,-40,34
276,-15138,32,664,-4729,23,-85,-40,36
277,-15114,4,794,-4727,23,-86,-40,36
278,-15196,-36,722,-4737,23,-85,-36,30
279,-15126,-60,842,-4735,23,-90,-41,33
280,-15138,-24,760,-4738,23,-87,-40,37
281,-15136,18,822,-4733,23,-86,-41,34
282,-15122,-64,734,-4731,23,-86,-37,36
283,-15136,6,794,-4734,23,-88,-39,34
284,-15110,54,740,-4736,23,-89,-37,38
285,-15138,20,784,-4739,23,-88,-39,35
286,-15170,-58,670,-4730,23,-89,-40,34
287,-15166,-10,740,-4737,23,-89,-35,34
288,-15164,-16,762,-4731,23,-89,-36,33
289,-15068,-62,738,-4740,23,-85,-38,32
290,-15134,4,764,-4737,23,-86,-36,34
291,-15204,-56,720,-4731,23,-88,-37,34
292,-15118,-14,794,-4736,23,-86,-38,32
293,-15088,16,888,-4737,23,-89,-36,35
294,-15170,-16,782,-4740,23,-90,-37,35
295,-15160,-46,774,-4740,23,-88,-40,37
296,-15142,-32,752,-4737,23,-91,-37,34
297,-15144,-66,740,-4733,23,-85,-40,36
298,-15116,42,742,-4724,23,-88,-40,37
299,-15192,-38,794,-4733,23,-87,-39,37
300,-15116,-20,804,-4728,23,-85,-34,34
301,-15160,-12,726,-4724,23,-84,-42,32
302,-15134,-22,702,-4730,23,-86,-36,37
303,-15196,-92,696,-4726,23,-86,-39,35
304,-15192,-42,730,-4727,23,-88,-38,37
305,-15226,20,762,-4737,23,-88,-42,34
306,-15098,-60,726,-4743,23,-86,-40,32
307,-15134,-46,802,-4741,23,-86,-39,32
308,-15180,-44,716,-4726,23,-89,-38,37
309,-15152,60,748,-4728,23,-88,-41,34
310,-15128,14,676,-4736,23,-83,-39,32
311,-15132,30,690,-4743,23,-81,-38,37
312,-15146,-54,722,-4728,23,-87,-39,36
313,-15170,18,686,-4729,23,-85,-41,36
314,-15172,-42,702,-4729,23,-84,-38,33
315,-15184,4,782,-4733,23,-90,-41,34
316,-15130,-10,730,-4733,23,-87,-38,35
317,-15104,-50,766,-4730,23,-87,-39,34
318,-15172,-42,778,-4737,23,-88,-39,34
319,-15168,40,750,-4740,23,-89,-40,34
320,-15210,56,618,-4739,23,-83,-39,37
321,-15156,-36,790,-4734,23,-87,-37,34
322,-15154,-34,678,-4729,23,-89,-36,33
323,-15106,34,654,-4743,23,-87,-38,34
324,-15188,36,690,-4735,23,-86,-37,36
325,-15166,4,866,-4735,23,-89,-38,30
326,-15150,4,778,-4729,23,-90,-34,34
327,-15152,-48,654,-4737,23,-90,-35,35
328,-15156,4,720,-4730,23,-87,-38,33
329,-15158,-10,718,-4735,23,-89,-38,33
330,-15162,26,810,-4727,23,-87,-40,33
331,-15178,-14,834,-4730,23,-90,-40,34
332,-15180,-42,716,-4738,23,-88,-42,34
333,-15126,-2,784,-4729,23,-88,-37,35
334,-15128,-22,820,-4723,23,-82,-40,35
335,-15102,-26,742,-4725,23,-89,-40,37
336,-15138,-40,664,-4731,23,-84,-39,35
337,-15154,-4,660,-4741,23,-84,-40,37
338,-15172,-32,818,-4727,23,-82,-39,35
339,-15148,68,760,-4728,23,-86,-39,36
340,-15204,-20,730,-4720,23,-86,-39,33
341,-15168,46,736,-4733,23,-86,-38,30
342,-15206,30,742,-4735,23,-88,-37,36
343,-15094,-14,772,-4734,23,-89,-41,33
344,-15136,-4,754,-4725,23,-86,-42,33
345,-15174,-38,704,-4726,23,-85,-41,34
346,-15132,2,726,-4736,23,-89,-38,34
347,-15182,-62,782,-4727,23,-84,-40,36
348,-15164,-2,818,-4730,23,-85,-40,36
349,-15174,48,700,-4736,23,-86,-36,36
350,-15180,-56,798,-4734,23,-87,-43,31
351,-15146,-40,742,-4718,23,-88,-40,32
352,-15160,-8,818,-4729,23,-87,-39,37
353,-15184,-2,776,-4733,23,-89,-39,35
354,-15184,-22,752,-4725,23,-88,-39,35
355,-15134,22,728,-4741,23,-88,-34,36
356,-15112,28,730,-4736,23,-86,-37,37
357,-15120,-12,764,-4735,23,-90,-42,35
358,-15136,-52,740,-4727,23,-90,-39,35
359,-15104,-56,792,-4726,23,-88,-38,34
360,-15116,-16,764,-4728,23,-88,-38,36
361,-15206,-18,720,-4722,23,-85,-39,33
362,-15106,-8,746,-4739,23,-88,-38,36
363,-15184,-16,732,-4734,23,-88,-40,34
364,-15176,-26,842,-4728,23,-89,-39,33
365,-15138,28,816,-4739,23,-85,-39,34
366,-15056,-2,750,-4727,23,-82,-39,35
367,-15184,-50,734,-4730,23,-86,-39,36
368,-15154,34,708,-4729,23,-88,-37,35
369,-15084,-14,726,-4718,23,-86,-39,32
370,-15162,-74,800,-4737,23,-88,-37,35
371,-15136,-16,826,-4727,23,-82,-40,35
372,-15132,-14,862,-4730,23,-89,-37,35
373,-15240,22,722,-4728,23,-89,-38,35
374,-15164,-12,790,-4731,23,-88,-37,35
375,-15126,-14,712,-4737,23,-85,-38,37
376,-15124,18,880,-4737,23,-85,-40,34
377,-15204,12,792,-4730,23,-88,-38,36
378,-15214,36,660,-4738,23,-88,-35,33
379,-15162,-10,722,-4738,23,-87,-40,35
380,-15116,-48,726,-4734,23,-90,-39,34
381,-15132,42,746,-4740,23,-88,-34,36
382,-15160,0,764,-4739,23,-91,-40,33
383,-15150,0,734,-4730,23,-86,-39,35
384,-15144,-88,740,-4721,23,-88,-42,37
385,-15160,2,842,-4731,23,-91,-36,34
386,-15196,-22,704,-4734,23,-87,-41,34
387,-15184,12,768,-4726,23,-89,-39,37
388,-15140,-10,774,-4723,23,-90,-37,35
389,-15092,-36,744,-4733,23,-87,-39,38
390,-15136,-34,698,-4724,23,-90,-36,35
391,-15108,-6,742,-4724,23,-87,-39,34
392,-15148,-58,726,-4721,23,-87,-37,35
393,-15172,66,764,-4729,23,-85,-39,31
394,-15108,20,698,-4734,23,-86,-39,34
395,-15154,-84,766,-4733,23,-89,-41,36
396,-15150,-48,774,-4736,23,-84,-38,37
397,-15124,-18,750,-4735,23,-84,-40,34
398,-15134,34,688,-4727,23,-87,-40,34
399,-15098,22,722,-4719,23,-86,-37,34
400,-15128,-64,760,-4752,23,-88,-37,32
401,-15138,-6,720,-4734,23,-86,-38,34
402,-15196,4,776,-4743,23,-88,-39,34
403,-15156,22,770,-4732,23,-90,-38,34
404,-15142,-40,812,-4730,23,-88,-37,35
405,-15156,-12,812,-4729,23,-81,-37,37
406,-15148,-14,770,-4731,23,-88,-41,34
407,-15158,2,710,-4732,23,-87,-39,35
408,-15156,2,776,-4729,23,-89,-37,32
409,-15144,-2,762,-4737,23,-83,-38,35
410,-15176,-54,780,-4730,23,-87,-41,37
411,-15140,-6,708,-4722,23,-88,-36,34
412,-15118,-36,754,-4723,23,-84,-38,35
413,-15130,-58,702,-4737,23,-85,-38,36
414,-15160,-52,718,-4736,23,-90,-39,36
415,-15156,56,756,-4738,23,-86,-38,38
416,-15174,0,774,-4737,23,-90,-39,35
417,-15186,18,802,-4728,23,-90,-39,36
418,-15164,-10,850,-4735,23,-88,-40,35
419,-15110,-54,828,-4719,23,-89,-37,37
420,-15094,-48,686,-4728,23,-88,-40,34
421,-15130,-64,734,-4730,23,-89,-39,32
422,-15110,-80,762,-4730,23,-86,-39,33
423,-15126,-28,746,-4736,23,-86,-40,31
424,-15138,-44,778,-4724,23,-87,-39,33
425,-15172,-32,770,-4732,23,-88,-39,34
426,-15134,-82,816,-4730,23,-87,-40,36
427,-15126,-20,678,-4735,23,-83,-35,34
428,-15130,-40,694,-4723,23,-87,-38,34
429,-15112,-18,770,-4733,23,-89,-40,32
430,-15186,2,766,-4735,23,-85,-37,35
431,-15168,16,802,-4727,23,-85,-40,34
432,-15122,-14,750,-4727,23,-87,-37,36
433,-15160,-56,772,-4742,23,-86,-38,31
434,-15116,-50,812,-4748,23,-86,-41,35
435,-15142,-4,708,-4735,23,-86,-38,35
436,-15162,42,698,-4727,23,-83,-38,36
437,-15168,66,750,-4746,23,-88,-38,36
438,-15110,-12,694,-4731,23,-89,-36,37
439,-15122,-64,770,-4728,23,-90,-40,35
440,-15212,16,762,-4722,23,-88,-38,30
441,-15232,-48,782,-4728,23,-84,-39,32
442,-15162,-4,618,-4729,23,-86,-42,32
443,-15146,-22,738,-4727,23,-87,-40,31
444,-15124,66,758,-4725,23,-87,-37,34
445,-15132,-14,774,-4729,23,-85,-42,32
446,-15124,-34,700,-4741,23,-85,-40,32
447,-15114,-40,822,-4733,23,-87,-40,36
448,-15194,-8,828,-4739,23,-90,-36,35
449,-15180,-4,766,-4731,23,-89,-39,32
450,-15114,22,644,-4717,23,-87,-40,34
451,-15122,24,844,-4746,23,-88,-35,34
452,-15150,-42,800,-4728,23,-88,-35,32
453,-15156,-16,758,-4725,23,-87,-38,36
454,-15128,18,836,-4728,23,-89,-42,34
455,-15174,-14,698,-4730,23,-87,-41,32
456,-15156,-44,740,-4726,23,-88,-39,36
457,-15168,-38,748,-4714,23,-86,-37,36
458,-15172,-6,742,-4738,23,-91,-39,33
459,-15112,-42,702,-4729,23,-88,-38,31
460,-15186,4,838,-4730,23,-84,-38,33
461,-15202,-38,806,-4730,23,-87,-37,34
462,-15112,46,786,-4729,23,-85,-36,35
463,-15132,-28,744,-4723,23,-88,-43,32
464,-15190,-28,684,-4724,23,-89,-39,35
465,-15174,-52,822,-4718,23,-85,-39,32
466,-15214,-32,818,-4732,23,-87,-39,35
467,-15170,-26,880,-4739,23,-86,-39,37
468,-15124,26,790,-4723,23,-86,-40,35
469,-15142,-46,728,-4734,23,-83,-43,37
470,-15148,-28,804,-4730,23,-85,-39,33
471,-15154,-2,776,-4732,23,-85,-38,35
472,-15134,-68,762,-4720,23,-87,-37,35
473,-15130,-12,774,-4725,23,-89,-40,34
474,-15156,44,786,-4729,23,-91,-40,36
475,-15064,-30,724,-4731,23,-85,-39,34
476,-15162,6,700,-4724,23,-87,-39,36
477,-15168,-28,786,-4726,23,-87,-36,31
478,-15142,14,802,-4735,23,-85,-41,34
479,-15222,-12,752,-4732,23,-84,-40,33
480,-15168,24,718,-4736,23,-89,-38,32
481,-15124,8,764,-4738,23,-84,-40,32
482,-15118,-12,840,-4722,23,-80,-42,34
483,-15162,-58,794,-4725,23,-85,-38,37
484,-15124,4,706,-4734,23,-85,-37,32
485,-15152,42,766,-4729,23,-85,-37,34
486,-15162,0,790,-4723,23,-87,-36,34
487,-15124,14,800,-4721,23,-84,-37,33
488,-15144,24,692,-4728,23,-87,-38,32
489,-15190,-68,764,-4736,23,-88,-38,34
490,-15106,-32,710,-4732,23,-84,-42,35
491,-15108,22,812,-4727,23,-88,-37,32
492,-15184,38,718,-4722,23,-87,-40,37
493,-15132,-2,816,-4724,23,-89,-38,35
494,-15158,-78,802,-4734,23,-85,-39,36
495,-15146,-74,674,-4721,23,-88,-39,35
496,-15144,12,820,-4722,23,-90,-40,36
497,-15114,-32,780,-4729,23,-85,-38,38
498,-15214,48,740,-4731,23,-86,-40,41
499,-15194,34,672,-4728,23,-87,-40,36
500,-15134,2,692,-4729,23,-86,-40,36
501,-15118,-14,678,-4727,23,-85,-41,34
502,-15078,-76,754,-4728,23,-88,-41,34
503,-15176,-56,702,-4728,23,-87,-39,32
504,-15194,-48,850,-4734,23,-88,-39,34
505,-15166,-10,688,-4730,23,-87,-40,35
506,-15170,6,744,-4728,23,-85,-35,36
507,-15186,4,712,-4733,23,-86,-37,32
508,-15086,-8,762,-4719,23,-84,-40,34
509,-15184,-38,768,-4725,23,-88,-36,36
510,-15116,-10,758,-4727,23,-85,-39,34
511,-15200,12,694,-4731,23,-87,-40,35
512,-15110,-60,794,-4729,23,-89,-37,33
513,-15128,-12,662,-4735,23,-85,-40,35
514,-15180,-20,798,-4725,23,-83,-39,34
515,-15104,-30,740,-4722,23,-87,-40,31
516,-15172,-48,760,-4727,23,-87,-38,34
517,-15118,-44,734,-4722,23,-81,-41,35
518,-15134,-22,758,-4719,23,-88,-37,32
519,-15094,24,736,-4724,23,-84,-40,34
520,-15142,-14,766,-4730,23,-84,-38,35
521,-15192,-6,756,-4722,23,-87,-39,34
522,-15200,14,694,-4720,23,-85,-39,37
523,-15134,-54,734,-4725,23,-87,-39,35
524,-15130,-22,702,-4735,23,-83,-40,35
525,-15142,36,674,-4732,23,-90,-40,31
526,-15122,-16,736,-4720,23,-86,-36,31
527,-15132,-22,730,-4714,23,-84,-40,37
528,-15148,-2,826,-4717,23,-85,-42,35
529,-15160,-20,728,-4724,23,-88,-38,35
530,-15116,-22,770,-4724,23,-85,-41,33
531,-15192,-18,776,-4724,23,-86,-38,38
532,-15116,-46,744,-4726,23,-88,-40,31
533,-15174,-52,732,-4725,23,-88,-36,35
534,-15140,4,628,-4732,23,-90,-37,35
535,-15076,20,698,-4728,23,-85,-37,35
536,-15162,-14,722,-4721,23,-86,-37,35
537,-15048,-10,732,-4730,23,-86,-36,34
538,-15162,-34,782,-4728,23,-86,-39,33
539,-15180,-26,796,-4731,23,-86,-38,33
540,-15104,14,778,-4723,23,-84,-36,33
541,-15174,8,732,-4720,23,-86,-41,35
542,-15186,-24,684,-4720,23,-85,-39,36
543,-15134,4,696,-4738,23,-85,-41,37
544,-15116,38,688,-4735,23,-88,-37,33
545,-15130,-8,708,-4728,23,-87,-37,32
546,-15196,-18,640,-4731,23,-88,-42,35
547,-15170,-54,736,-4725,23,-89,-35,35
548,-15178,14,642,-4735,23,-87,-39,39
549,-15116,36,776,-4732,23,-85,-37,33
550,-15102,8,744,-4733,23,-88,-37,35
551,-15200,8,732,-4728,23,-90,-37,34
552,-15166,10,736,-4734,23,-85,-38,33
553,-15126,-8,780,-4722,23,-87,-40,36
554,-15144,22,630,-4727,23,-87,-40,36
555,-15142,-38,764,-4738,23,-87,-38,34
556,-15190,56,734,-4728,23,-83,-39,34
557,-15162,-82,756,-4723,23,-84,-38,39
558,-15150,-52,754,-4722,23,-84,-39,34
559,-15142,-22,692,-4729,23,-92,-39,32
560,-15122,12,672,-4724,23,-85,-39,31
561,-15108,8,900,-4731,23,-91,-39,35
562,-15170,-18,674,-4724,23,-87,-36,33
563,-15108,-6,728,-4730,23,-89,-42,35
564,-15058,-12,752,-4735,23,-84,-37,36
565,-15202,-26,812,-4724,23,-87,-37,36
566,-15200,0,758,-4719,23,-87,-37,34
567,-15190,-22,774,-4728,23,-87,-41,33
568,-15130,-14,822,-4719,23,-86,-41,36
569,-15162,44,700,-4733,23,-88,-40,35
570,-15126,90,742,-4725,23,-85,-37,33
571,-15134,46,738,-4733,23,-84,-40,35
572,-15172,-34,690,-4731,23,-86,-39,34
573,-15152,10,792,-4719,23,-90,-38,32
574,-15140,-28,702,-4733,23,-82,-38,34
575,-15178,-24,674,-4722,23,-86,-37,33
576,-15194,-2,826,-4716,23,-86,-39,34
577,-15124,-36,732,-4725,23,-88,-36,36
578,-15142,-30,712,-4724,23,-84,-39,37
579,-15178,10,752,-4726,23,-84,-39,32
580,-15110,-22,856,-4727,23,-91,-37,29
581,-15160,26,680,-4725,23,-84,-41,37
582,-15122,-12,774,-4726,23,-86,-36,34
583,-15210,-80,764,-4734,23,-86,-39,33
584,-15210,-16,708,-4732,23,-87,-34,36
585,-15214,44,764,-4732,23,-83,-38,34
586,-15250,-72,720,-4730,23,-88,-34,32
587,-15122,-104,738,-4720,23,-89,-43,37
588,-15116,0,792,-4732,23,-86,-40,38
589,-15148,-38,804,-4726,23,-86,-35,35
590,-15174,-18,784,-4731,23,-88,-37,38
591,-15052,26,774,-4728,23,-86,-39,31
592,-15198,-10,686,-4723,23,-86,-39,29
593,-15154,0,712,-4737,23,-85,-37,35
594,-15192,-10,736,-4730,23,-87,-39,31
595,-15140,12,668,-4725,23,-88,-38,35
596,-15220,-4,796,-4726,23,-82,-39,33
597,-15134,28,720,-4728,23,-89,-36,32
598,-15154,50,820,-4727,23,-85,-36,35
599,-15126,-76,704,-4728,23,-86,-35,34
600,-15216,-32,796,-4726,23,-86,-39,36
601,-15144,-44,794,-4722,23,-87,-37,34
602,-15136,-30,708,-4721,23,-88,-41,36
603,-15152,-28,762,-4732,23,-87,-40,34
604,-15154,-20,770,-4729,23,-83,-38,36
605,-15138,12,706,-4722,23,-88,-36,34
606,-15184,-56,834,-4729,23,-84,-39,34
607,-15178,-42,732,-4727,23,-89,-38,33
608,-15142,-66,780,-4734,23,-88,-39,33
609,-15076,2,716,-4724,23,-88,-39,36
610,-15074,26,750,-4726,23,-86,-39,35
611,-15128,40,744,-4730,23,-87,-39,35
612,-15136,48,764,-4736,23,-84,-40,35
613,-15176,2,698,-4728,23,-89,-40,35
614,-15146,-88,730,-4726,23,-85,-38,35
615,-15148,-22,672,-4724,23,-86,-39,32
616,-15192,-6,772,-4721,23,-86,-36,36
617,-15182,28,864,-4716,23,-82,-39,35
618,-15186,-60,738,-4722,23,-87,-40,32
619,-15126,-20,710,-4721,23,-90,-40,36
620,-15198,36,776,-4716,23,-86,-38,36
621,-15120,-28,766,-4726,23,-85,-39,33
622,-15132,-6,726,-4720,23,-81,-42,35
623,-15170,-22,748,-4729,23,-86,-38,32
624,-15130,0,768,-4726,23,-87,-36,37
625,-15164,38,682,-4721,23,-86,-39,33
626,-15124,2,772,-4728,23,-89,-40,33
627,-15140,6,826,-4724,23,-86,-40,35
628,-15164,-6,728,-4705,23,-85,-39,34
629,-15240,14,708,-4720,23,-87,-39,34
630,-15184,2,768,-4729,23,-89,-38,36
631,-15136,-88,754,-4724,23,-85,-39,34
632,-15132,-72,776,-4721,23,-85,-37,35
633,-15150,0,782,-4722,23,-87,-42,35
634,-15124,-22,808,-4739,23,-90,-39,33
635,-15100,24,752,-4723,23,-82,-40,32
636,-15114,-62,782,-4721,23,-89,-36,32
637,-15070,-2,724,-4725,23,-87,-39,36
638,-15164,-4,752,-4718,23,-86,-33,32
639,-15130,-34,692,-4729,23,-86,-42,36
640,-15086,-2,766,-4725,23,-83,-38,34
641,-15178,-22,756,-4722,23,-87,-38,35
642,-15108,-24,776,-4729,23,-85,-36,36
643,-15120,-38,816,-4725,23,-85,-41,35
644,-15118,-6,780,-4718,23,-85,-41,33
645,-15166,16,790,-4721,23,-84,-38,34
646,-15218,-34,640,-4717,23,-85,-37,33
647,-15186,4,852,-4720,23,-85,-41,36
648,-15122,-14,646,-4724,23,-84,-40,35
649,-15088,-12,716,-4729,23,-85,-41,33
650,-15142,48,728,-4719,23,-87,-39,33
651,-15076,16,728,-4731,23,-88,-40,35
652,-15146,8,732,-4728,23,-86,-39,33
653,-15084,-16,728,-4727,23,-86,-38,34
654,-15150,-4,816,-4725,23,-89,-43,32
655,-15166,-10,742,-4719,23,-91,-38,36
656,-15148,32,696,-4718,23,-86,-40,35
657,-15120,-8,846,-4727,23,-90,-38,31
658,-15160,-54,736,-4722,23,-90,-35,36
659,-15222,-44,820,-4715,23,-86,-43,33
660,-15128,-92,800,-4730,23,-90,-41,33
661,-15218,12,804,-4730,23,-84,-37,34
662,-15150,-58,824,-4722,23,-87,-38,37
663,-15140,40,748,-4724,23,-87,-39,34
664,-15108,0,778,-4727,23,-86,-42,31
665,-15190,6,724,-4721,23,-87,-36,36
666,-15184,6,802,-4723,23,-88,-37,37
667,-15174,32,796,-4728,23,-88,-39,33
668,-15158,-40,712,-4727,23,-87,-39,37
669,-15148,4,732,-4725,23,-87,-37,34
670,-15162,-38,750,-4721,23,-86,-37,36
671,-15190,4,782,-4718,23,-87,-42,33
672,-15178,-52,666,-4725,23,-89,-39,34
673,-15152,-2,780,-4726,23,-88,-38,35
674,-15154,-6,692,-4731,23,-84,-35,33
675,-15088,-16,672,-4723,23,-82,-41,35
676,-15058,-66,764,-4730,23,-87,-40,30
677,-15144,4,750,-4724,23,-88,-40,33
678,-15194,-4,742,-4737,23,-85,-36,35
679,-15150,-46,830,-4713,23,-87,-41,32
680,-15176,-16,808,-4718,23,-87,-38,31
681,-15132,-16,786,-4727,23,-86,-40,33
682,-15160,-2,700,-4723,23,-87,-39,34
683,-15142,46,776,-4733,23,-88,-40,34
684,-15128,-28,742,-4729,23,-87,-41,33
685,-15116,-32,728,-4723,23,-86,-41,34
686,-15160,-22,702,-4717,23,-89,-40,38
687,-15194,-76,732,-4725,23,-86,-39,36
688,-15106,-8,770,-4709,23,-89,-42,36
689,-15110,2,730,-4726,23,-85,-36,33
690,-15114,2,738,-4734,23,-88,-36,35
691,-15172,-72,760,-4724,23,-88,-38,36
692,-15140,-6,726,-4728,23,-87,-40,33
693,-15104,20,710,-4724,23,-85,-36,34
694,-15190,18,772,-4741,23,-90,-37,33
695,-15088,36,814,-4726,23,-85,-37,36
696,-15146,-34,738,-4726,23,-85,-37,34
697,-15166,-64,756,-4739,23,-84,-36,36
698,-15068,28,844,-4721,23,-86,-44,31
699,-15130,-30,724,-4734,23,-87,-39,33
700,-15172,-80,746,-4703,23,-86,-41,33
701,-15152,68,716,-4720,23,-88,-39,33
702,-15136,-64,700,-4727,23,-85,-40,35
703,-15124,-28,794,-4718,23,-88,-39,34
704,-15174,-40,760,-4722,23,-87,-37,36
705,-15164,-98,788,-4728,23,-87,-38,33
706,-15156,30,650,-4730,23,-84,-37,37
707,-15202,-34,718,-4730,23,-89,-42,33
708,-15154,6,672,-4727,23,-85,-38,35
709,-15100,-28,774,-4730,23,-86,-38,33
710,-15170,-50,764,-4720,23,-88,-37,33
711,-15162,-54,710,-4724,23,-87,-43,38
712,-15188,-20,702,-4723,23,-85,-37,31
713,-15154,14,750,-4720,23,-88,-40,34
714,-15148,-16,738,-4721,23,-85,-37,37
715,-15150,-44,820,-4718,23,-88,-40,33
716,-15132,16,720,-4726,23,-86,-39,34
717,-15142,4,794,-4725,23,-87,-42,36
718,-15148,-6,738,-4718,23,-88,-39,35
719,-15154,-72,776,-4731,23,-87,-39,33
720,-15168,-14,748,-4728,23,-87,-36,35
721,-15106,2,762,-4730,23,-86,-40,33
722,-15168,-10,698,-4732,23,-84,-38,37
723,-15110,54,858,-4726,23,-85,-39,34
724,-15186,-24,704,-4727,23,-83,-41,34
725,-15148,-14,774,-4727,23,-86,-38,34
726,-15146,-2,706,-4734,23,-87,-37,33
727,-15140,-78,780,-4730,23,-88,-39,35
728,-15112,58,750,-4721,23,-88,-37,35
729,-15108,0,776,-4721,23,-90,-39,34
730,-15138,52,674,-4726,23,-89,-39,35
731,-15162,6,736,-4723,23,-89,-41,36
732,-15166,36,756,-4729,23,-89,-38,34
733,-15122,12,846,-4714,23,-89,-41,34
734,-15160,-8,752,-4728,23,-87,-40,35
735,-15152,-20,660,-4724,23,-88,-38,34
736,-15208,-48,666,-4738,23,-85,-38,35
737,-15168,-48,750,-4720,23,-88,-41,33
738,-15148,-58,764,-4730,23,-86,-36,35
739,-15144,12,774,-4724,23,-90,-38,35
740,-15228,-24,740,-4724,23,-88,-40,34
741,-15150,-10,670,-4718,23,-90,-40,35
742,-15170,-4,780,-4728,23,-86,-40,34
743,-15204,12,762,-4717,23,-86,-39,37
744,-15216,-22,638,-4724,23,-89,-36,33
745,-15212,-62,698,-4735,23,-90,-37,33
746,-15174,-48,692,-4727,23,-85,-37,36
747,-15088,-82,818,-4717,23,-90,-35,36
748,-15200,50,802,-4715,23,-85,-40,35
749,-15128,40,684,-4732,23,-85,-40,35
750,-15184,-56,794,-4729,23,-87,-42,36
751,-15198,-42,704,-4726,23,-89,-42,36
752,-15168,-40,686,-4724,23,-87,-41,38
753,-15186,-64,750,-4718,23,-87,-34,33
754,-15206,10,762,-4727,23,-89,-38,35
755,-15152,-30,732,-4715,23,-86,-38,33
756,-15134,62,688,-4721,23,-86,-36,34
757,-15154,10,824,-4735,23,-88,-39,35
758,-15180,4,762,-4726,23,-88,-41,33
759,-15134,-12,744,-4731,23,-86,-43,35
760,-15170,-22,826,-4724,23,-89,-37,34
761,-15198,-26,670,-4723,23,-83,-37,35
762,-15158,-24,716,-4732,23,-90,-39,34
763,-15170,-28,660,-4724,23,-87,-39,35
764,-15144,-40,732,-4730,23,-87,-36,34
765,-15148,-26,704,-4714,23,-86,-38,33
766,-15120,34,756,-4719,23,-87,-41,32
767,-15172,-18,748,-4729,23,-85,-38,37
768,-15168,8,776,-4733,23,-87,-39,33
769,-15148,-4,794,-4722,23,-91,-40,30
770,-15150,-40,736,-4730,23,-87,-38,35
771,-15186,-10,760,-4724,23,-86,-37,35
772,-15156,26,730,-4725,23,-88,-33,34
773,-15132,-42,806,-4716,23,-86,-37,34
774,-15172,20,760,-4733,23,-84,-38,36
775,-15152,-46,690,-4724,23,-90,-39,32
776,-15214,10,682,-4715,23,-87,-38,36
777,-15204,-8,790,-4725,23,-90,-36,36
778,-15136,-12,770,-4724,23,-87,-40,35
779,-15110,0,776,-4723,23,-87,-39,35
780,-15120,44,774,-4725,23,-88,-41,32
781,-15156,-20,776,-4720,23,-88,-39,34
782,-15204,22,658,-4718,23,-85,-36,34
783,-15210,-18,786,-4719,23,-85,-34,37
784,-15140,-16,710,-4713,23,-86,-39,33
785,-15184,-46,800,-4728,23,-87,-42,37
786,-15156,-26,762,-4727,23,-86,-37,33
787,-15116,-2,748,-4718,23,-85,-37,34
788,-15136,-22,738,-4722,23,-86,-40,37
789,-15174,-36,754,-4717,23,-85,-40,34
790,-15136,-38,670,-4713,23,-84,-38,36
791,-15174,10,772,-4723,23,-89,-39,34
792,-15158,-32,762,-4723,23,-86,-40,34
793,-15168,34,788,-4726,23,-87,-37,33
794,-15176,-66,800,-4732,23,-90,-37,36
795,-15160,8,720,-4719,23,-89,-39,35
796,-15128,-88,810,-4720,23,-85,-38,36
797,-15130,16,762,-4732,23,-87,-42,35
798,-15138,14,824,-4716,23,-87,-39,34
799,-15152,-26,756,-4718,23,-87,-39,36
800,-15108,12,720,-4719,23,-88,-39,35
801,-15216,32,682,-4720,23,-85,-38,35
802,-15142,-20,772,-4721,23,-88,-44,35
803,-15164,-10,736,-4713,23,-87,-40,35
804,-15136,-58,798,-4722,23,-88,-36,34
805,-15150,4,804,-4711,23,-85,-38,35
806,-15118,-58,718,-4723,23,-87,-36,34
807,-15180,18,788,-4729,23,-94,-42,39
808,-15114,-38,812,-4715,23,-88,-41,35
809,-15176,34,836,-4725,23,-87,-37,34
810,-15172,14,702,-4719,23,-90,-36,34
811,-15158,-16,696,-4725,23,-87,-40,32
812,-15120,24,640,-4722,23,-85,-36,36
813,-15094,18,752,-4716,23,-87,-38,34
814,-15158,-4,770,-4726,23,-85,-36,36
815,-15106,-48,754,-4727,23,-85,-38,34
816,-15168,-14,778,-4718,23,-85,-37,33
817,-15192,-14,824,-4730,23,-88,-38,33
818,-15142,-24,736,-4718,23,-87,-34,37
819,-15216,-48,672,-4722,23,-87,-39,36
820,-15112,-32,798,-4710,23,-87,-37,34
821,-15142,4,700,-4716,23,-89,-37,32
822,-15150,10,758,-4718,23,-84,-38,33
823,-15150,-24,752,-4722,23,-88,-41,33
824,-15134,16,740,-4722,23,-87,-35,33
825,-15130,-16,786,-4724,23,-86,-38,36
826,-15120,-50,792,-4727,23,-87,-36,35
827,-15144,22,734,-4728,23,-90,-36,35
828,-15156,22,730,-4728,23,-89,-40,35
829,-15146,-30,614,-4713,23,-88,-38,35
830,-15110,-28,706,-4721,23,-88,-40,31
831,-15104,-38,748,-4714,23,-88,-37,30
832,-15136,-78,734,-4729,23,-85,-40,35
833,-15160,16,828,-4722,23,-89,-39,33
834,-15160,-20,802,-4728,23,-84,-37,35
835,-15160,36,756,-4720,23,-86,-39,36
836,-15134,-24,730,-4718,23,-82,-37,35
837,-15110,-6,730,-4722,23,-90,-44,36
838,-15166,32,742,-4733,23,-88,-37,31
839,-15176,-34,772,-4734,23,-87,-37,29
840,-15128,6,692,-4724,23,-87,-38,35
841,-15138,10,804,-4713,23,-86,-37,32
842,-15134,-14,824,-4721,23,-86,-37,33
843,-15182,-20,810,-4723,23,-89,-40,34
844,-15206,-22,752,-4718,23,-84,-40,29
845,-15162,-60,760,-4719,23,-88,-38,36
846,-15138,-24,710,-4716,23,-85,-37,35
847,-15168,-24,714,-4721,23,-88,-40,32
848,-15100,-22,864,-4717,23,-86,-39,32
849,-15126,-18,802,-4717,23,-90,-39,37
850,-15214,-48,736,-4728,23,-86,-40,33
851,-15136,68,700,-4723,23,-84,-36,34
852,-15078,24,768,-4708,23,-86,-41,35
853,-15166,20,702,-4706,23,-88,-37,35
854,-15112,8,684,-4723,23,-87,-42,34
855,-15116,-14,732,-4717,23,-86,-35,35
856,-15152,-34,838,-4725,23,-88,-40,33
857,-15198,-60,748,-4719,23,-87,-38,31
858,-15200,14,680,-4725,23,-88,-41,33
859,-15168,-36,784,-4720,23,-84,-41,34
860,-15192,-8,614,-4713,23,-90,-35,31
861,-15156,-28,722,-4718,23,-90,-39,38
862,-15142,20,738,-4723,23,-87,-39,35
863,-15168,4,734,-4732,23,-92,-41,32
864,-15148,-6,708,-4720,23,-86,-40,34
865,-15126,8,704,-4725,23,-86,-37,37
866,-15152,-2,688,-4724,23,-87,-39,35
867,-15154,-16,806,-4719,23,-87,-40,33
868,-15140,-32,694,-4721,23,-87,-36,33
869,-15172,26,752,-4720,23,-88,-42,35
870,-15160,-4,866,-4726,23,-87,-42,36
871,-15198,-66,722,-4725,23,-87,-43,35
872,-15138,-72,802,-4729,23,-89,-36,38
873,-15208,12,742,-4719,23,-89,-40,31
874,-15174,-20,710,-4718,23,-87,-37,33
875,-15118,-102,790,-4716,23,-85,-39,35
876,-15198,-68,722,-4729,23,-86,-36,36
877,-15128,14,770,-4726,23,-88,-38,32
878,-15190,-8,734,-4714,23,-88,-41,33
879,-15166,-24,840,-4725,23,-88,-38,35
880,-15176,20,688,-4731,23,-85,-37,35
881,-15222,-24,816,-4723,23,-87,-39,35
882,-15162,-70,674,-4723,23,-87,-37,32
883,-15198,-66,782,-4719,23,-87,-38,36
884,-15166,-34,716,-4725,23,-84,-38,32
885,-15130,-54,730,-4722,23,-84,-39,34
886,-15108,-46,794,-4722,23,-83,-37,35
887,-15156,-46,812,-4715,23,-87,-37,33
888,-15146,16,688,-4707,23,-89,-39,35
889,-15144,14,830,-4723,23,-86,-41,34
890,-15168,36,728,-4717,23,-87,-38,37
891,-15178,-68,754,-4724,23,-84,-36,34
892,-15154,-20,762,-4718,23,-88,-39,32
893,-15198,6,728,-4716,23,-88,-45,36
894,-15220,26,780,-4721,23,-86,-38,32
895,-15146,-24,770,-4714,23,-86,-38,31
896,-15142,-24,762,-4729,23,-88,-40,34
897,-15174,-62,784,-4731,23,-88,-39,32
898,-15126,-10,744,-4725,23,-88,-40,36
899,-15168,-58,726,-4733,23,-87,-40,35
900,-15182,-16,720,-4720,23,-87,-41,33
901,-15118,-6,688,-4706,23,-87,-36,34
902,-15166,-6,736,-4718,23,-87,-38,36
903,-15114,-18,732,-4724,23,-87,-39,33
904,-15220,74,792,-4721,23,-92,-38,36
905,-15192,16,708,-4715,23,-88,-39,34
906,-15180,-22,842,-4724,23,-86,-40,32
907,-15146,10,708,-4713,23,-86,-37,32
908,-15148,2,684,-4713,23,-87,-39,36
909,-15166,26,752,-4714,23,-85,-41,37
910,-15174,38,784,-4718,23,-88,-42,34
911,-15164,-16,644,-4726,23,-87,-40,33
912,-15204,36,768,-4720,23,-88,-37,33
913,-15060,-42,784,-4722,23,-88,-33,34
914,-15140,36,728,-4717,23,-85,-37,35
915,-15104,40,720,-4721,23,-85,-38,33
916,-15200,-8,716,-4728,23,-86,-42,35
917,-15160,-18,728,-4732,23,-88,-37,36
918,-15066,20,756,-4717,23,-84,-42,34
919,-15146,-38,760,-4723,23,-87,-38,35
920,-15190,-56,788,-4725,23,-88,-38,32
921,-15150,68,776,-4715,23,-86,-40,35
922,-15162,-22,792,-4719,23,-87,-36,31
923,-15168,36,732,-4726,23,-86,-36,34
924,-15052,40,706,-4712,23,-86,-38,33
925,-15162,24,732,-4721,23,-83,-34,34
926,-15174,-36,800,-4719,23,-91,-36,33
927,-15170,-46,696,-4717,23,-88,-38,37
928,-15156,14,706,-4729,23,-85,-37,36
929,-15188,-34,736,-4723,23,-84,-41,34
930,-15140,-76,796,-4716,23,-88,-41,35
931,-15100,20,722,-4707,23,-88,-38,33
932,-15190,8,734,-4724,23,-85,-35,35
933,-15196,-16,704,-4723,23,-91,-40,35
934,-15122,-12,742,-4719,23,-86,-34,34
935,-15190,-24,762,-4723,23,-84,-40,37
936,-15144,-30,796,-4730,23,-88,-41,35
937,-15168,-20,776,-4721,23,-86,-40,33
938,-15176,-14,750,-4717,23,-85,-41,38
939,-15122,-20,844,-4715,23,-84,-43,34
940,-15136,38,688,-4717,23,-89,-37,32
941,-15112,-34,748,-4708,23,-87,-40,32
942,-15158,22,772,-4721,23,-89,-37,35
943,-15120,-8,836,-4724,23,-88,-35,35
944,-15146,18,694,-4720,23,-88,-40,37
945,-15152,-24,702,-4710,23,-86,-38,35
946,-15168,2,754,-4713,23,-84,-37,34
947,-15154,-14,794,-4718,23,-88,-39,33
948,-15128,-32,650,-4727,23,-87,-37,30
949,-15198,-72,766,-4714,23,-86,-38,34
950,-15184,32,730,-4726,23,-90,-37,33
951,-15186,-14,730,-4724,23,-86,-42,33
952,-15142,-12,708,-4717,23,-91,-39,34
953,-15212,18,738,-4725,23,-86,-40,34
954,-15162,8,758,-4725,23,-86,-41,33
955,-15144,2,828,-4723,23,-87,-41,35
956,-15140,2,662,-4710,23,-86,-36,34
957,-15148,18,712,-4712,23,-88,-39,34
958,-15142,26,744,-4722,23,-84,-40,35
959,-15142,28,828,-4727,23,-85,-37,35
960,-15212,-8,742,-4720,23,-84,-40,35
961,-15186,8,734,-4718,23,-87,-37,36
962,-15194,32,780,-4713,23,-86,-37,32
963,-15188,-4,752,-4725,23,-88,-35,33
964,-15158,-10,746,-4719,23,-86,-40,34
965,-15180,58,782,-4724,23,-90,-39,34
966,-15136,-12,730,-4716,23,-87,-38,32
967,-15142,-22,738,-4717,23,-89,-36,31
968,-15094,-50,744,-4724,23,-84,-40,32
969,-15126,8,904,-4728,23,-88,-36,34
970,-15156,-16,746,-4718,23,-85,-38,35
971,-15162,36,748,-4720,23,-87,-38,35
972,-15106,-64,770,-4730,23,-86,-38,37
973,-15150,10,720,-4712,23,-87,-38,30
974,-15136,-12,694,-4715,23,-86,-39,35
975,-15206,-4,748,-4721,23,-87,-39,36
976,-15158,-20,696,-4720,23,-87,-37,32
977,-15086,-14,764,-4725,23,-85,-43,33
978,-15178,-50,728,-4710,23,-87,-38,36
979,-15100,-22,776,-4711,23,-86,-37,35
980,-15164,-38,760,-4719,23,-88,-41,34
981,-15160,58,838,-4723,23,-91,-37,34
982,-15166,42,758,-4710,23,-86,-40,32
983,-15176,-48,780,-4715,23,-86,-40,32
984,-15142,14,768,-4716,23,-89,-41,33
985,-15140,-60,686,-4719,23,-87,-41,36
986,-15164,10,760,-4716,23,-91,-36,35
987,-15212,14,642,-4721,23,-83,-39,31
988,-15122,4,748,-4713,23,-88,-40,38
989,-15142,-12,750,-4720,23,-84,-37,33
990,-15112,-80,740,-4718,23,-87,-41,36
991,-15238,-20,800,-4721,23,-85,-40,35
992,-15146,-68,820,-4717,23,-89,-40,34
993,-15110,20,798,-4720,23,-87,-37,35
994,-15134,-42,784,-4723,23,-84,-38,33
995,-15104,-10,704,-4719,23,-85,-37,37
996,-15158,-70,720,-4731,23,-90,-37,33
997,-15162,60,742,-4720,23,-83,-35,37
998,-15122,-8,836,-4722,23,-89,-43,37
