,acc_X,acc_Y,acc_Z,temp,tempC,gyr_X,gyr_Y,gyr_Z
0,-1896,-3,92,-4600,23,-347,-153,141
1,-1896,-2,93,-4600,23,-345,-154,138
2,-1895,-2,94,-4600,23,-344,-156,140
3,-1895,-2,94,-4600,23,-347,-152,139
4,-1896,-1,94,-4601,23,-348,-153,140
5,-1895,-2,94,-4600,23,-347,-152,140
6,-1895,-2,95,-4602,23,-348,-155,141
7,-1894,-2,95,-4603,23,-348,-152,140
8,-1894,-1,95,-4603,23,-349,-153,140
9,-1893,0,95,-4603,23,-350,-154,138
10,-1893,-2,96,-4604,23,-350,-155,139
11,-1892,-2,96,-4603,23,-349,-156,141
12,-1893,-3,97,-4605,23,-349,-155,139
13,-1895,-2,96,-4604,23,-350,-154,139
14,-1895,-3,93,-4604,23,-346,-153,139
15,-1896,-2,93,-4606,23,-349,-150,137
16,-1896,-3,95,-4606,23,-351,-150,137
17,-1895,-3,96,-4604,23,-350,-152,138
18,-1896,-3,94,-4605,23,-351,-149,138
19,-1895,-3,94,-4603,23,-351,-150,139
20,-1896,-3,94,-4602,23,-352,-151,140
21,-1896,-3,94,-4601,23,-353,-152,141
22,-1895,-3,93,-4599,23,-351,-153,139
23,-1895,-2,93,-4600,23,-352,-153,138
24,-1896,-3,94,-4598,23,-351,-153,140
25,-1896,-3,94,-4598,23,-351,-154,139
26,-1895,-2,95,-4599,23,-350,-152,138
27,-1894,-2,95,-4597,23,-350,-150,137
28,-1894,-2,95,-4596,23,-347,-150,138
29,-1895,-3,96,-4595,23,-348,-148,137
30,-1895,-1,95,-4595,23,-349,-150,137
31,-1895,-1,95,-4597,23,-349,-151,138
32,-1896,-1,97,-4596,23,-347,-152,137
33,-1897,-1,95,-4597,23,-347,-154,135
34,-1897,-1,95,-4596,23,-347,-156,135
35,-1897,0,94,-4595,23,-346,-155,137
36,-1896,-1,94,-4596,23,-348,-154,138
37,-1896,-2,95,-4598,23,-349,-157,139
38,-1895,-2,97,-4597,23,-350,-158,142
39,-1894,-2,97,-4596,23,-349,-157,141
40,-1894,-2,97,-4596,23,-347,-155,140
41,-1894,-1,97,-4596,23,-346,-157,138
42,-1894,-1,97,-4596,23,-347,-156,138
43,-1894,-2,97,-4597,23,-350,-157,139
44,-1893,-3,97,-4598,23,-350,-154,141
45,-1895,-3,96,-4599,23,-352,-154,140
46,-1894,-3,94,-4598,23,-352,-156,141
47,-1895,-2,95,-4598,23,-350,-153,141
48,-1895,-1,94,-4598,23,-348,-151,141
49,-1895,-1,95,-4598,23,-347,-156,142
50,-1895,-1,93,-4598,23,-345,-156,140
51,-1895,-2,94,-4597,23,-347,-156,140
52,-1895,-2,94,-4599,23,-348,-156,139
53,-1896,-2,93,-4597,23,-347,-156,137
54,-1895,-2,94,-4596,23,-346,-155,138
55,-1894,-2,94,-4597,23,-346,-154,139
56,-1895,-2,93,-4600,23,-346,-155,139
57,-1895,-2,93,-4600,23,-347,-157,140
58,-1895,-2,92,-4600,23,-346,-156,141
59,-1895,-2,93,-4599,23,-345,-156,143
60,-1895,-2,94,-4601,23,-348,-156,142
61,-1894,-2,96,-4600,23,-351,-153,143
62,-1894,-2,96,-4601,23,-352,-156,143
63,-1894,-2,95,-4601,23,-352,-156,144
64,-1896,-1,96,-4601,23,-350,-159,144
65,-1897,-3,97,-4599,23,-350,-158,144
66,-1895,-3,96,-4601,23,-349,-155,143
67,-1896,-2,94,-4600,23,-350,-155,140
68,-1895,-2,96,-4601,23,-351,-152,139
69,-1895,-3,97,-4600,23,-351,-152,140
70,-1896,-3,97,-4598,23,-351,-153,141
71,-1897,-3,97,-4600,23,-350,-150,141
72,-1897,-4,95,-4600,23,-348,-151,140
73,-1897,-3,93,-4600,23,-349,-151,138
74,-1896,-3,92,-4598,23,-348,-153,139
75,-1894,-2,93,-4598,23,-349,-152,138
76,-1896,-3,92,-4597,23,-348,-150,139
77,-1896,-4,93,-4597,23,-349,-150,138
78,-1896,-4,94,-4597,23,-351,-153,138
79,-1895,-4,96,-4598,23,-352,-154,141
80,-1895,-3,95,-4596,23,-352,-154,139
81,-1895,-3,97,-4596,23,-352,-155,139
82,-1895,-2,96,-4598,23,-351,-156,138
83,-1894,-2,96,-4598,23,-348,-153,139
84,-1894,-1,97,-4600,23,-349,-155,140
85,-1895,-1,98,-4598,23,-348,-157,138
86,-1895,-1,97,-4599,23,-348,-155,140
87,-1895,-1,98,-4598,23,-348,-157,141
88,-1894,-1,96,-4598,23,-349,-158,140
89,-1894,-1,96,-4599,23,-351,-158,140
90,-1894,0,96,-4600,23,-352,-158,141
91,-1894,0,97,-4599,23,-352,-157,141
92,-1895,-1,96,-4599,23,-351,-156,142
93,-1896,-2,96,-4599,23,-346,-155,140
94,-1895,-2,95,-4599,23,-349,-154,139
95,-1896,-1,95,-4598,23,-347,-152,138
96,-1896,-1,94,-4599,23,-346,-153,137
97,-1896,-1,95,-4600,23,-347,-153,135
98,-1896,-2,94,-4600,23,-348,-154,137
99,-1896,-2,96,-4600,23,-348,-154,137
100,-1897,-2,96,-4602,23,-348,-152,138
101,-1896,-1,95,-4603,23,-349,-151,139
102,-1895,-1,93,-4602,23,-348,-150,139
103,-1894,0,94,-4600,23,-350,-152,138
104,-1894,-1,93,-4600,23,-350,-153,137
105,-1894,0,91,-4599,23,-351,-151,140
106,-1895,0,91,-4600,23,-347,-152,141
107,-1894,0,93,-4599,23,-346,-152,142
108,-1894,0,95,-4599,23,-347,-156,141
109,-1893,-1,96,-4599,23,-348,-155,142
110,-1895,-1,97,-4599,23,-346,-154,144
111,-1895,-1,95,-4598,23,-347,-155,143
112,-1896,-2,95,-4597,23,-348,-155,143
113,-1895,-1,97,-4598,23,-348,-155,142
114,-1895,0,94,-4600,23,-348,-155,143
115,-1895,0,95,-4599,23,-349,-154,143
116,-1896,-1,95,-4599,23,-349,-153,142
117,-1897,0,97,-4599,23,-347,-152,142
118,-1896,0,96,-4598,23,-348,-151,143
119,-1896,1,95,-4597,23,-347,-150,142
120,-1896,1,93,-4598,23,-345,-149,140
121,-1896,-2,93,-4599,23,-346,-149,141
122,-1896,-1,91,-4600,23,-344,-150,141
123,-1894,-1,92,-4600,23,-343,-151,138
124,-1895,-1,92,-4600,23,-343,-151,138
125,-1896,-1,91,-4598,23,-345,-150,139
126,-1896,0,92,-4599,23,-348,-151,139
127,-1895,-1,93,-4598,23,-346,-150,139
128,-1895,-1,96,-4599,23,-346,-150,140
129,-1895,-2,96,-4599,23,-348,-152,141
130,-1894,-1,96,-4599,23,-348,-152,140
131,-1894,0,97,-4599,23,-348,-152,139
132,-1893,0,96,-4597,23,-348,-153,139
133,-1893,-1,97,-4599,23,-348,-153,138
134,-1895,-1,96,-4599,23,-350,-153,139
135,-1894,-1,97,-4599,23,-351,-154,142
136,-1894,-1,96,-4600,23,-352,-154,141
137,-1895,-2,95,-4600,23,-350,-152,141
138,-1895,-1,95,-4598,23,-352,-153,141
139,-1895,-1,94,-4597,23,-350,-154,141
140,-1895,-1,94,-4596,23,-349,-155,141
141,-1896,-1,97,-4597,23,-349,-154,140
142,-1896,-2,96,-4598,23,-350,-157,140
143,-1896,-2,97,-4598,23,-349,-156,139
144,-1896,-2,96,-4598,23,-349,-155,138
145,-1894,-3,95,-4598,23,-350,-152,140
146,-1894,-2,94,-4599,23,-350,-152,138
147,-1896,-1,94,-4598,23,-348,-151,139
148,-1894,-1,94,-4599,23,-349,-153,141
149,-1894,-1,95,-4600,23,-350,-153,141
150,-1894,-1,94,-4599,23,-349,-153,139
151,-1894,-1,95,-4599,23,-350,-155,139
152,-1894,0,93,-4597,23,-349,-157,139
153,-1894,0,94,-4597,23,-349,-159,139
154,-1894,-1,96,-4598,23,-348,-159,139
155,-1894,-3,94,-4597,23,-351,-157,138
156,-1894,-2,93,-4597,23,-352,-156,140
157,-1893,-1,93,-4597,23,-352,-151,141
158,-1894,-1,94,-4599,23,-353,-151,144
159,-1894,-1,94,-4599,23,-353,-152,142
160,-1895,-1,94,-4600,23,-353,-153,142
161,-1894,-1,95,-4599,23,-352,-153,142
162,-1895,-1,93,-4597,23,-352,-155,139
163,-1895,-2,92,-4596,23,-351,-155,138
164,-1894,-3,92,-4594,23,-350,-153,138
165,-1895,-2,93,-4595,23,-349,-153,136
166,-1895,-2,93,-4594,23,-349,-152,137
167,-1895,-1,92,-4595,23,-349,-154,137
168,-1895,-2,94,-4597,23,-348,-155,136
169,-1895,-3,94,-4598,23,-348,-154,136
170,-1895,-3,93,-4597,23,-349,-158,138
171,-1894,-3,94,-4597,23,-349,-156,139
172,-1896,-3,94,-4598,23,-350,-154,141
173,-1896,-3,95,-4600,23,-351,-152,140
174,-1896,-2,96,-4598,23,-351,-153,142
175,-1895,-1,94,-4599,23,-350,-152,144
176,-1895,0,95,-4597,23,-349,-151,144
177,-1894,-2,95,-4597,23,-348,-156,144
178,-1893,-1,95,-4598,23,-348,-156,145
179,-1892,-2,94,-4598,23,-348,-155,145
180,-1893,-2,92,-4599,23,-347,-153,143
181,-1894,-2,92,-4598,23,-348,-154,142
182,-1894,-2,90,-4599,23,-349,-152,142
183,-1895,-2,91,-4597,23,-350,-153,140
184,-1894,-3,92,-4597,23,-350,-153,140
185,-1894,-2,93,-4596,23,-350,-154,140
186,-1894,-3,92,-4594,23,-352,-154,140
187,-1894,-3,93,-4595,23,-352,-155,140
188,-1895,-2,92,-4595,23,-350,-154,140
189,-1895,-2,91,-4597,23,-348,-153,140
190,-1895,-1,93,-4595,23,-346,-156,139
191,-1895,-1,94,-4595,23,-350,-157,137
192,-1893,-2,94,-4593,23,-347,-157,136
193,-1893,-1,95,-4594,23,-349,-156,135
194,-1893,-1,94,-4595,23,-350,-154,137
195,-1895,-1,95,-4596,23,-349,-156,140
196,-1895,-2,95,-4594,23,-348,-155,137
197,-1894,-2,96,-4595,23,-350,-154,139
198,-1895,-3,94,-4593,23,-351,-153,138
199,-1895,-3,95,-4595,23,-351,-153,140
200,-1895,-3,95,-4594,23,-348,-151,141
201,-1895,-2,93,-4594,23,-348,-152,140
202,-1895,-2,93,-4594,23,-348,-154,139
203,-1895,-2,95,-4592,23,-350,-154,138
204,-1894,-2,96,-4593,23,-350,-153,139
205,-1894,-3,95,-4592,23,-351,-155,141
206,-1895,-3,94,-4591,23,-351,-155,140
207,-1896,-3,93,-4592,23,-350,-151,140
208,-1896,-3,95,-4593,23,-350,-150,141
209,-1895,-1,94,-4593,23,-351,-153,142
210,-1895,-2,95,-4593,23,-353,-154,140
211,-1894,-3,96,-4594,23,-354,-154,141
212,-1895,-2,95,-4594,23,-355,-152,139
213,-1894,-2,93,-4593,23,-354,-151,139
214,-1894,-1,92,-4595,23,-354,-152,141
215,-1894,-1,94,-4596,23,-353,-153,144
216,-1894,-2,93,-4597,23,-353,-156,144
217,-1894,-2,94,-4595,23,-351,-155,144
218,-1894,-3,94,-4596,23,-351,-154,142
219,-1893,-2,94,-4596,23,-349,-154,140
220,-1894,-1,93,-4594,23,-348,-154,139
221,-1894,-2,94,-4592,23,-347,-152,139
222,-1895,-1,93,-4595,23,-349,-156,140
223,-1894,-3,95,-4595,23,-348,-154,139
224,-1897,-3,94,-4597,23,-348,-152,140
225,-1896,-2,95,-4598,23,-347,-152,141
226,-1896,-1,94,-4597,23,-347,-152,141
227,-1895,-2,94,-4596,23,-348,-152,141
228,-1894,-3,93,-4596,23,-350,-151,140
229,-1893,-3,92,-4596,23,-350,-149,141
230,-1894,-3,91,-4597,23,-350,-150,140
231,-1894,-2,91,-4597,23,-350,-151,140
232,-1895,-2,92,-4599,23,-349,-151,140
233,-1895,-2,92,-4598,23,-350,-149,141
234,-1894,-2,91,-4599,23,-351,-152,140
235,-1895,-1,94,-4599,23,-351,-153,141
236,-1896,0,93,-4599,23,-351,-151,142
237,-1895,0,96,-4597,23,-350,-155,140
238,-1895,0,96,-4597,23,-349,-152,140
239,-1894,0,96,-4599,23,-352,-152,141
240,-1893,0,96,-4599,23,-349,-155,141
241,-1893,-1,95,-4598,23,-348,-153,140
242,-1894,-2,95,-4599,23,-346,-154,139
243,-1894,-2,93,-4598,23,-347,-154,135
244,-1895,-1,95,-4596,23,-348,-154,137
245,-1895,0,94,-4596,23,-349,-155,140
246,-1895,0,96,-4596,23,-348,-158,140
247,-1896,-2,97,-4598,23,-348,-157,142
248,-1895,-3,97,-4596,23,-351,-155,142
249,-1896,-3,96,-4597,23,-349,-157,142
250,-1896,-2,95,-4598,23,-347,-156,141
251,-1895,-3,93,-4597,23,-347,-154,140
252,-1893,-2,92,-4596,23,-349,-152,141
253,-1895,-3,93,-4594,23,-348,-152,141
254,-1896,-2,93,-4593,23,-348,-155,140
255,-1895,-2,93,-4594,23,-347,-154,140
256,-1895,-2,93,-4594,23,-351,-153,142
257,-1895,-3,94,-4595,23,-350,-152,140
258,-1895,-2,94,-4595,23,-349,-153,139
259,-1895,-1,95,-4596,23,-351,-153,137
260,-1894,-1,96,-4594,23,-351,-151,137
261,-1895,-2,94,-4595,23,-351,-150,136
262,-1895,-1,94,-4595,23,-350,-151,139
263,-1894,-1,94,-4595,23,-350,-151,140
264,-1895,-1,95,-4595,23,-350,-150,140
265,-1895,0,95,-4594,23,-351,-152,139
266,-1895,0,94,-4595,23,-352,-153,139
267,-1895,-1,94,-4593,23,-352,-155,143
268,-1896,-1,94,-4592,23,-351,-153,142
269,-1896,0,93,-4594,23,-352,-153,141
270,-1895,-2,95,-4594,23,-351,-155,143
271,-1894,-1,96,-4594,23,-346,-154,144
272,-1895,-1,94,-4596,23,-346,-154,141
273,-1894,0,93,-4597,23,-348,-155,142
274,-1894,-1,94,-4596,23,-348,-156,142
275,-1894,-2,94,-4594,23,-346,-157,139
276,-1896,-2,95,-4592,23,-345,-155,141
277,-1895,-3,93,-4594,23,-347,-155,141
278,-1896,-3,92,-4593,23,-347,-155,141
279,-1895,-2,94,-4592,23,-346,-153,142
280,-1894,-2,93,-4592,23,-345,-152,142
281,-1893,-2,94,-4592,23,-344,-152,143
282,-1893,-3,94,-4594,23,-344,-152,143
283,-1894,-3,94,-4597,23,-347,-154,144
284,-1894,-3,94,-4596,23,-348,-152,144
285,-1894,-2,96,-4595,23,-349,-153,142
286,-1894,-1,96,-4595,23,-350,-152,141
287,-1894,-1,96,-4596,23,-348,-152,142
288,-1895,0,95,-4595,23,-348,-152,144
289,-1894,0,94,-4594,23,-347,-153,143
290,-1894,-1,93,-4594,23,-346,-154,142
291,-1894,0,93,-4595,23,-347,-154,143
292,-1894,-1,92,-4597,23,-349,-152,141
293,-1894,1,93,-4597,23,-349,-155,139
294,-1894,0,92,-4598,23,-349,-154,140
295,-1894,0,94,-4599,23,-348,-154,139
296,-1894,-2,97,-4596,23,-349,-156,138
297,-1894,-2,97,-4596,23,-349,-154,138
298,-1895,-1,96,-4597,23,-349,-152,137
299,-1895,-1,95,-4597,23,-348,-152,138
300,-1896,1,94,-4597,23,-347,-154,139
301,-1894,-1,96,-4598,23,-348,-154,140
302,-1895,-2,96,-4598,23,-348,-154,141
303,-1894,-2,95,-4598,23,-347,-154,138
304,-1894,-3,95,-4598,23,-351,-152,141
305,-1895,-2,95,-4597,23,-347,-151,141
306,-1895,-1,96,-4597,23,-348,-152,139
307,-1894,-2,94,-4597,23,-349,-152,138
308,-1895,-2,94,-4598,23,-349,-152,140
309,-1896,-3,95,-4598,23,-350,-153,141
310,-1896,-2,93,-4598,23,-349,-152,141
311,-1895,-2,93,-4599,23,-345,-150,140
312,-1894,-2,95,-4599,23,-346,-151,142
313,-1894,-2,95,-4598,23,-348,-152,140
314,-1895,-2,97,-4596,23,-349,-155,139
315,-1895,-3,96,-4596,23,-349,-153,138
316,-1896,-2,96,-4597,23,-352,-152,141
317,-1896,-3,94,-4598,23,-352,-151,142
318,-1896,-3,93,-4599,23,-352,-150,143
319,-1896,0,93,-4599,23,-353,-150,142
320,-1896,-1,93,-4598,23,-350,-151,144
321,-1896,-3,92,-4599,23,-351,-152,144
322,-1895,-2,92,-4597,23,-351,-154,142
323,-1895,-2,93,-4597,23,-352,-155,141
324,-1894,-1,92,-4596,23,-353,-154,138
325,-1895,0,90,-4598,23,-353,-155,139
326,-1894,-1,91,-4598,23,-352,-155,138
327,-1895,-1,90,-4597,23,-351,-154,138
328,-1894,-2,90,-4598,23,-353,-155,138
329,-1894,-1,93,-4599,23,-352,-152,138
330,-1893,-1,93,-4600,23,-351,-154,140
331,-1893,0,94,-4598,23,-351,-152,138
332,-1894,1,94,-4597,23,-350,-152,138
333,-1894,0,94,-4597,23,-351,-153,137
334,-1894,-1,93,-4593,23,-350,-155,137
335,-1895,0,95,-4593,23,-351,-154,137
336,-1895,-1,95,-4594,23,-350,-155,140
337,-1895,-1,96,-4594,23,-350,-153,140
338,-1894,-1,95,-4594,23,-349,-151,140
339,-1894,0,97,-4595,23,-351,-152,138
340,-1895,0,96,-4594,23,-351,-150,139
341,-1895,1,95,-4594,23,-352,-152,140
342,-1895,0,94,-4594,23,-351,-153,140
343,-1894,0,94,-4595,23,-351,-153,139
344,-1894,0,95,-4595,23,-351,-152,140
345,-1894,-2,94,-4595,23,-348,-152,140
346,-1894,-1,93,-4596,23,-349,-151,139
347,-1894,-1,93,-4595,23,-352,-150,139
348,-1894,0,95,-4595,23,-351,-151,139
349,-1895,-2,94,-4596,23,-350,-152,138
350,-1895,-2,96,-4597,23,-352,-153,137
351,-1895,-2,96,-4597,23,-353,-153,138
352,-1895,0,97,-4595,23,-351,-151,137
353,-1894,0,96,-4595,23,-351,-151,139
354,-1894,-1,96,-4594,23,-348,-151,138
355,-1896,-1,95,-4594,23,-347,-151,139
356,-1895,-1,95,-4592,23,-346,-149,140
357,-1894,-1,95,-4592,23,-347,-151,137
358,-1895,-1,94,-4591,23,-347,-148,139
359,-1895,-1,93,-4593,23,-348,-149,139
360,-1895,0,93,-4592,23,-350,-151,139
361,-1897,0,92,-4591,23,-351,-151,139
362,-1896,0,91,-4592,23,-349,-151,136
363,-1895,0,91,-4591,23,-349,-154,135
364,-1895,0,92,-4592,23,-350,-153,138
365,-1895,-1,92,-4592,23,-349,-151,138
366,-1894,-1,91,-4592,23,-348,-152,139
367,-1895,-2,94,-4591,23,-349,-154,139
368,-1896,-2,93,-4591,23,-347,-153,140
369,-1897,-2,93,-4592,23,-344,-155,139
370,-1897,-3,96,-4591,23,-345,-157,138
371,-1897,-3,96,-4592,23,-346,-157,138
372,-1895,-2,95,-4592,23,-346,-156,138
373,-1895,-2,95,-4592,23,-350,-154,139
374,-1895,-2,95,-4592,23,-349,-155,139
375,-1894,-2,96,-4591,23,-349,-153,140
376,-1893,-3,95,-4590,23,-347,-153,140
377,-1893,-3,93,-4591,23,-346,-153,140
378,-1893,-3,93,-4592,23,-347,-151,140
379,-1894,-2,94,-4592,23,-351,-153,140
380,-1894,-2,94,-4593,23,-350,-155,140
381,-1896,-2,93,-4592,23,-351,-154,140
382,-1895,-2,95,-4592,23,-351,-154,142
383,-1895,-1,95,-4591,23,-353,-153,141
384,-1895,-2,95,-4593,23,-353,-152,141
385,-1895,-2,96,-4593,23,-352,-152,140
386,-1895,-1,96,-4592,23,-352,-151,140
387,-1895,-1,95,-4593,23,-351,-149,140
388,-1895,0,95,-4592,23,-350,-151,140
389,-1894,0,96,-4594,23,-348,-152,138
390,-1893,0,97,-4595,23,-349,-150,138
391,-1893,0,96,-4596,23,-350,-151,136
392,-1893,-1,95,-4596,23,-350,-153,135
393,-1893,0,93,-4595,23,-352,-155,138
394,-1893,0,92,-4595,23,-352,-155,138
395,-1893,0,93,-4596,23,-351,-153,138
396,-1894,0,93,-4596,23,-350,-154,139
397,-1895,0,94,-4595,23,-350,-153,139
398,-1896,0,96,-4595,23,-352,-155,138
399,-1896,-2,96,-4596,23,-349,-156,136
400,-1897,-3,96,-4595,23,-349,-155,138
401,-1896,-2,96,-4593,23,-347,-156,139
402,-1895,-1,96,-4594,23,-347,-155,140
403,-1894,-2,94,-4596,23,-349,-154,140
404,-1893,-3,93,-4598,23,-346,-153,140
405,-1893,-2,94,-4597,23,-349,-152,140
406,-1895,-4,96,-4597,23,-350,-155,142
407,-1895,-4,96,-4598,23,-351,-156,143
408,-1895,-4,96,-4598,23,-351,-157,142
409,-1896,-3,93,-4597,23,-352,-154,141
410,-1897,-4,95,-4597,23,-350,-154,142
411,-1897,-2,94,-4598,23,-352,-153,138
412,-1897,-2,93,-4601,23,-348,-154,139
413,-1898,-4,94,-4600,23,-348,-158,140
414,-1897,-4,94,-4599,23,-347,-157,141
415,-1895,-3,95,-4597,23,-350,-159,141
416,-1895,-3,93,-4598,23,-352,-159,141
417,-1895,-3,94,-4597,23,-349,-159,139
418,-1895,-4,95,-4596,23,-348,-158,142
419,-1894,-3,94,-4598,23,-347,-154,142
420,-1894,-5,94,-4597,23,-345,-153,142
421,-1894,-5,95,-4597,23,-346,-153,141
422,-1894,-2,94,-4597,23,-346,-153,140
423,-1894,-1,93,-4598,23,-348,-151,142
424,-1894,-1,92,-4599,23,-349,-153,141
425,-1896,-1,93,-4598,23,-350,-152,139
426,-1896,-2,91,-4599,23,-350,-151,140
427,-1897,-2,91,-4600,23,-348,-150,140
428,-1896,-2,91,-4599,23,-346,-151,140
429,-1895,-1,92,-4599,23,-348,-149,141
430,-1895,-2,92,-4599,23,-349,-151,141
431,-1894,-1,92,-4600,23,-348,-152,140
432,-1893,0,91,-4598,23,-348,-153,141
433,-1894,-1,92,-4599,23,-346,-152,140
434,-1893,-1,93,-4598,23,-346,-150,140
435,-1895,-1,94,-4597,23,-347,-150,142
436,-1896,-1,96,-4597,23,-348,-150,143
437,-1896,-2,96,-4595,23,-349,-153,144
438,-1896,-2,97,-4594,23,-350,-154,143
439,-1895,-1,95,-4595,23,-348,-152,140
440,-1895,0,95,-4596,23,-350,-152,140
441,-1894,-1,95,-4596,23,-349,-153,140
442,-1894,-1,96,-4597,23,-350,-154,140
443,-1894,-2,96,-4596,23,-350,-156,140
444,-1894,-1,95,-4594,23,-349,-155,142
445,-1893,-1,95,-4594,23,-349,-155,142
446,-1893,-2,96,-4594,23,-346,-155,141
447,-1894,-2,95,-4596,23,-346,-154,140
448,-1894,-3,96,-4595,23,-347,-154,139
449,-1894,-3,95,-4593,23,-347,-152,138
450,-1893,-3,94,-4596,23,-347,-155,138
451,-1893,-4,95,-4595,23,-350,-155,138
452,-1894,-2,95,-4596,23,-350,-153,141
453,-1894,-4,96,-4596,23,-349,-155,141
454,-1894,-4,96,-4598,23,-350,-154,139
455,-1894,-4,94,-4596,23,-349,-153,140
456,-1894,-3,94,-4595,23,-348,-154,141
457,-1894,-4,94,-4593,23,-346,-154,140
458,-1893,-3,95,-4591,23,-348,-158,141
459,-1894,-2,94,-4593,23,-349,-157,140
460,-1895,-2,93,-4593,23,-346,-157,141
461,-1896,-1,94,-4593,23,-347,-158,141
462,-1896,-1,94,-4595,23,-349,-157,140
463,-1894,0,94,-4597,23,-347,-157,141
464,-1895,0,95,-4597,23,-347,-158,140
465,-1894,-1,95,-4597,23,-347,-157,139
466,-1895,-2,95,-4598,23,-347,-157,138
467,-1895,-3,96,-4597,23,-345,-156,138
468,-1894,-3,97,-4598,23,-345,-155,139
469,-1894,-2,97,-4599,23,-345,-154,138
470,-1894,-2,96,-4598,23,-347,-156,138
471,-1894,-2,97,-4596,23,-348,-155,139
472,-1894,-2,97,-4595,23,-348,-158,140
473,-1894,-3,97,-4595,23,-351,-157,140
474,-1894,-1,96,-4595,23,-352,-155,139
475,-1893,-1,95,-4593,23,-353,-156,138
476,-1893,-2,94,-4592,23,-352,-154,139
477,-1894,-3,94,-4591,23,-351,-155,140
478,-1894,-2,93,-4591,23,-353,-154,138
479,-1895,-1,93,-4591,23,-353,-155,138
480,-1895,-2,92,-4592,23,-352,-153,139
481,-1894,-2,92,-4591,23,-350,-153,140
482,-1894,-2,94,-4592,23,-353,-155,141
483,-1895,-2,93,-4592,23,-352,-156,142
484,-1895,-2,93,-4594,23,-349,-157,139
485,-1896,-1,92,-4593,23,-351,-155,140
486,-1896,-2,94,-4595,23,-350,-155,143
487,-1896,-2,95,-4595,23,-351,-153,144
488,-1897,-3,95,-4595,23,-352,-156,144
489,-1897,-1,95,-4594,23,-351,-152,144
490,-1897,-1,96,-4592,23,-349,-156,142
491,-1897,-3,95,-4592,23,-349,-156,140
492,-1898,-3,96,-4591,23,-349,-154,139
493,-1896,-4,96,-4591,23,-348,-154,138
494,-1896,-3,95,-4592,23,-348,-154,140
495,-1895,-4,96,-4592,23,-347,-155,141
496,-1895,-3,95,-4594,23,-348,-151,141
497,-1894,-4,94,-4595,23,-347,-155,140
498,-1895,-4,94,-4594,23,-346,-154,139
499,-1895,-2,94,-4595,23,-346,-154,140
500,-1895,-2,94,-4596,23,-346,-153,139
501,-1896,-2,93,-4594,23,-344,-152,139
502,-1896,-3,95,-4594,23,-346,-152,140
503,-1895,-3,96,-4594,23,-347,-151,140
504,-1895,-2,97,-4593,23,-345,-151,141
505,-1893,-3,96,-4594,23,-348,-150,142
506,-1893,-3,97,-4594,23,-347,-151,141
507,-1892,-3,97,-4594,23,-348,-151,142
508,-1892,-4,96,-4592,23,-349,-154,143
509,-1892,-4,93,-4592,23,-347,-153,142
510,-1894,-5,92,-4591,23,-349,-154,139
511,-1893,-4,93,-4591,23,-349,-154,138
512,-1893,-4,93,-4592,23,-347,-152,138
513,-1894,-3,92,-4591,23,-349,-151,136
514,-1895,-3,92,-4591,23,-349,-153,137
515,-1895,-3,94,-4592,23,-349,-151,137
516,-1895,-2,95,-4593,23,-350,-152,137
517,-1895,-1,97,-4591,23,-349,-148,139
518,-1894,0,98,-4589,23,-345,-150,137
519,-1893,-1,97,-4588,23,-346,-152,138
520,-1894,-1,95,-4589,23,-346,-152,139
521,-1896,-1,96,-4590,23,-348,-152,137
522,-1896,0,96,-4592,23,-349,-154,139
523,-1895,0,97,-4591,23,-347,-154,138
524,-1895,-1,96,-4591,23,-345,-153,134
525,-1895,-1,95,-4593,23,-347,-152,135
526,-1894,-2,94,-4592,23,-346,-153,135
527,-1894,-1,95,-4592,23,-347,-155,138
528,-1893,-1,93,-4594,23,-348,-153,137
529,-1894,-1,94,-4595,23,-346,-155,137
530,-1894,0,94,-4595,23,-346,-154,138
531,-1894,0,93,-4597,23,-346,-155,138
532,-1894,1,93,-4594,23,-345,-154,139
533,-1896,-1,95,-4595,23,-344,-151,138
534,-1896,-2,96,-4593,23,-345,-152,137
535,-1896,-2,96,-4593,23,-344,-154,137
536,-1897,-1,96,-4593,23,-343,-153,138
537,-1896,0,94,-4592,23,-344,-154,139
538,-1896,0,94,-4593,23,-344,-155,141
539,-1896,0,94,-4591,23,-343,-154,137
540,-1896,-1,92,-4592,23,-346,-155,138
541,-1895,-1,93,-4594,23,-345,-150,139
542,-1894,-1,93,-4593,23,-346,-151,140
543,-1894,0,92,-4591,23,-347,-151,140
544,-1893,0,93,-4591,23,-347,-152,140
545,-1894,-1,92,-4591,23,-346,-150,140
546,-1893,-2,93,-4592,23,-346,-148,139
547,-1893,-2,92,-4592,23,-350,-150,139
548,-1895,-1,93,-4591,23,-350,-152,139
549,-1894,-1,95,-4593,23,-348,-152,141
550,-1894,-2,96,-4592,23,-350,-153,142
551,-1896,-3,96,-4594,23,-350,-151,141
552,-1895,-3,97,-4594,23,-349,-152,141
553,-1894,-3,99,-4596,23,-351,-153,142
554,-1894,-4,96,-4595,23,-349,-152,142
555,-1894,-3,96,-4596,23,-349,-154,141
556,-1894,-3,92,-4595,23,-351,-155,140
557,-1894,-2,92,-4593,23,-350,-156,140
558,-1894,-2,92,-4593,23,-350,-155,140
559,-1895,-2,94,-4592,23,-349,-153,143
560,-1895,-2,91,-4592,23,-349,-153,144
561,-1896,-2,91,-4591,23,-348,-154,143
562,-1894,-2,93,-4592,23,-347,-155,142
563,-1895,-3,93,-4592,23,-346,-154,140
564,-1894,-3,92,-4591,23,-346,-154,140
565,-1895,-2,92,-4591,23,-348,-153,141
566,-1895,-1,92,-4593,23,-347,-153,139
567,-1895,-1,93,-4594,23,-348,-152,138
568,-1895,-1,92,-4594,23,-350,-154,137
569,-1895,-1,92,-4591,23,-353,-153,139
570,-1894,-2,92,-4590,23,-350,-151,140
571,-1895,-3,91,-4590,23,-352,-153,140
572,-1894,-3,91,-4589,23,-353,-153,139
573,-1895,-3,91,-4588,23,-353,-154,140
574,-1895,-4,90,-4588,23,-353,-153,139
575,-1895,-4,91,-4587,23,-353,-154,141
576,-1895,-1,94,-4588,23,-352,-151,140
577,-1895,-1,93,-4589,23,-352,-151,140
578,-1895,-2,91,-4592,23,-351,-152,139
579,-1896,-1,93,-4592,23,-349,-153,140
580,-1896,-1,94,-4591,23,-348,-154,140
581,-1896,-2,96,-4589,23,-346,-155,137
582,-1895,-1,96,-4588,23,-346,-153,139
583,-1896,-2,97,-4588,23,-347,-154,141
584,-1896,-2,96,-4589,23,-348,-154,141
585,-1896,-2,96,-4588,23,-348,-156,142
586,-1896,-2,97,-4588,23,-349,-157,142
587,-1897,-2,97,-4586,23,-348,-157,139
588,-1897,-1,96,-4585,23,-346,-158,138
589,-1897,-3,95,-4586,23,-349,-156,141
590,-1896,-3,96,-4588,23,-351,-156,139
591,-1896,-3,96,-4589,23,-351,-153,139
592,-1896,-1,96,-4588,23,-351,-153,141
593,-1896,-1,95,-4588,23,-351,-154,142
594,-1895,-1,95,-4589,23,-348,-156,140
595,-1895,-2,95,-4590,23,-348,-154,141
596,-1894,-3,94,-4590,23,-348,-155,140
597,-1894,-4,95,-4589,23,-350,-152,137
598,-1894,-3,94,-4592,23,-346,-152,137
599,-1894,-2,93,-4591,23,-348,-150,138
600,-1894,-1,93,-4590,23,-348,-152,136
601,-1895,0,93,-4592,23,-347,-152,137
602,-1893,0,92,-4592,23,-347,-153,138
603,-1893,-3,94,-4592,23,-349,-154,137
604,-1893,-3,94,-4589,23,-349,-157,136
605,-1893,-2,95,-4590,23,-349,-154,136
606,-1893,-2,95,-4590,23,-350,-156,136
607,-1893,-1,95,-4591,23,-350,-154,137
608,-1894,-1,95,-4590,23,-347,-154,135
609,-1894,-2,94,-4589,23,-346,-154,136
610,-1893,-2,93,-4589,23,-347,-155,138
611,-1894,-2,93,-4589,23,-346,-153,138
612,-1894,-2,93,-4588,23,-348,-151,138
613,-1894,-2,92,-4587,23,-349,-151,138
614,-1895,0,92,-4590,23,-350,-152,139
615,-1895,-2,92,-4590,23,-352,-154,139
616,-1895,-1,93,-4589,23,-352,-154,139
617,-1894,-2,94,-4588,23,-349,-155,138
618,-1893,-1,94,-4589,23,-348,-155,140
619,-1893,-1,94,-4592,23,-350,-154,139
620,-1894,-1,95,-4592,23,-350,-155,139
621,-1894,-2,93,-4592,23,-349,-154,139
622,-1893,-3,95,-4592,23,-349,-150,140
623,-1893,-4,95,-4593,23,-349,-151,141
624,-1894,-5,95,-4594,23,-349,-153,141
625,-1892,-5,94,-4594,23,-347,-155,141
626,-1892,-2,96,-4594,23,-348,-157,142
627,-1892,-1,97,-4593,23,-351,-158,140
628,-1893,-2,96,-4593,23,-349,-157,141
629,-1895,0,95,-4591,23,-350,-156,141
630,-1895,0,94,-4590,23,-348,-155,141
631,-1896,0,94,-4591,23,-348,-154,140
632,-1895,-1,95,-4592,23,-347,-155,140
633,-1895,-2,93,-4590,23,-347,-153,142
634,-1894,-2,93,-4589,23,-347,-151,143
635,-1894,-2,92,-4590,23,-349,-152,143
636,-1894,-2,95,-4590,23,-348,-152,142
637,-1894,-1,95,-4589,23,-348,-153,140
638,-1894,-2,94,-4590,23,-348,-153,139
639,-1894,-2,92,-4590,23,-349,-156,139
640,-1892,-2,94,-4590,23,-349,-156,141
641,-1893,-2,92,-4591,23,-349,-156,139
642,-1894,-2,94,-4591,23,-350,-154,138
643,-1894,-2,94,-4591,23,-348,-150,139
644,-1892,-2,94,-4593,23,-349,-150,139
645,-1893,-1,91,-4594,23,-350,-151,139
646,-1893,-2,92,-4594,23,-350,-152,141
647,-1892,-1,93,-4593,23,-349,-153,143
648,-1893,-2,92,-4592,23,-346,-153,143
649,-1893,-1,92,-4591,23,-345,-152,146
650,-1895,-2,92,-4590,23,-345,-154,143
651,-1894,-1,94,-4590,23,-345,-158,141
652,-1893,-1,95,-4591,23,-346,-157,139
653,-1893,-1,96,-4590,23,-345,-157,140
654,-1894,-2,96,-4591,23,-347,-157,141
655,-1893,-2,96,-4591,23,-348,-156,139
656,-1893,-2,95,-4591,23,-347,-154,139
657,-1893,-2,95,-4589,23,-350,-155,140
658,-1893,-3,95,-4590,23,-350,-156,140
659,-1892,-3,95,-4590,23,-349,-155,142
660,-1893,-3,94,-4589,23,-348,-155,142
661,-1893,-4,94,-4590,23,-349,-153,142
662,-1894,-3,93,-4590,23,-348,-154,143
663,-1893,-4,95,-4591,23,-348,-153,143
664,-1893,-4,95,-4591,23,-347,-154,144
665,-1894,-3,94,-4591,23,-347,-153,142
666,-1895,-2,94,-4591,23,-348,-153,140
667,-1894,-2,94,-4591,23,-349,-152,141
668,-1893,-3,95,-4591,23,-350,-152,139
669,-1894,-3,96,-4592,23,-351,-154,138
670,-1895,-2,96,-4592,23,-351,-153,139
671,-1895,-2,96,-4591,23,-351,-153,140
672,-1895,-2,96,-4590,23,-349,-153,141
673,-1894,-2,97,-4590,23,-347,-152,143
674,-1894,-3,98,-4591,23,-347,-151,142
675,-1895,-3,98,-4593,23,-348,-149,140
676,-1896,-3,96,-4591,23,-350,-148,139
677,-1896,-2,96,-4591,23,-349,-150,139
678,-1896,-2,95,-4593,23,-349,-150,141
679,-1895,-3,95,-4590,23,-347,-150,141
680,-1895,-3,96,-4591,23,-349,-151,140
681,-1895,-2,95,-4591,23,-349,-150,139
682,-1894,-2,95,-4589,23,-347,-152,137
683,-1894,-2,95,-4587,23,-348,-153,139
684,-1894,-2,94,-4589,23,-347,-151,138
685,-1894,-2,95,-4589,23,-346,-152,139
686,-1895,-3,93,-4589,23,-346,-153,138
687,-1894,-2,92,-4590,23,-345,-153,138
688,-1895,-2,92,-4591,23,-346,-155,139
689,-1895,-1,93,-4590,23,-347,-154,137
690,-1896,-2,93,-4588,23,-345,-153,138
691,-1894,-1,90,-4588,23,-347,-153,139
692,-1895,-1,92,-4588,23,-347,-150,139
693,-1894,0,93,-4589,23,-348,-151,138
694,-1893,-1,94,-4588,23,-348,-152,139
695,-1893,-2,94,-4589,23,-348,-150,139
696,-1894,-3,93,-4589,23,-347,-153,139
697,-1895,-2,93,-4590,23,-348,-152,140
698,-1895,-3,93,-4591,23,-348,-151,142
699,-1895,-2,93,-4591,23,-346,-153,141
700,-1895,-1,91,-4591,23,-350,-156,140
701,-1894,-3,91,-4591,23,-349,-155,140
702,-1895,-3,90,-4591,23,-347,-154,141
703,-1894,-3,91,-4590,23,-346,-153,141
704,-1894,-3,93,-4590,23,-348,-154,142
705,-1894,-4,94,-4589,23,-349,-154,142
706,-1894,-3,93,-4590,23,-352,-154,141
707,-1893,-2,95,-4590,23,-351,-153,140
708,-1894,0,97,-4588,23,-352,-155,139
709,-1893,0,97,-4589,23,-350,-157,137
710,-1894,-1,95,-4589,23,-350,-156,138
711,-1894,-2,94,-4590,23,-351,-153,138
712,-1893,-2,95,-4591,23,-350,-153,141
713,-1894,-2,95,-4592,23,-350,-153,140
714,-1893,-3,95,-4590,23,-350,-154,140
715,-1894,-3,95,-4592,23,-353,-152,140
716,-1896,-2,96,-4591,23,-355,-152,140
717,-1895,-2,94,-4589,23,-352,-152,142
718,-1893,-2,94,-4588,23,-351,-152,141
719,-1894,-2,93,-4587,23,-352,-151,139
720,-1893,-3,91,-4587,23,-349,-152,139
721,-1893,-2,92,-4588,23,-347,-152,140
722,-1892,-2,92,-4589,23,-347,-152,140
723,-1893,-2,93,-4588,23,-348,-155,140
724,-1894,-2,93,-4590,23,-349,-157,142
725,-1894,-1,92,-4590,23,-350,-155,142
726,-1895,0,90,-4588,23,-352,-157,143
727,-1894,-1,93,-4587,23,-350,-156,144
728,-1896,-2,93,-4588,23,-351,-156,141
729,-1897,-2,93,-4587,23,-352,-155,142
730,-1897,-2,94,-4588,23,-351,-155,142
731,-1896,-2,92,-4588,23,-349,-155,144
732,-1895,-2,92,-4591,23,-350,-153,140
733,-1894,-2,90,-4591,23,-351,-154,141
734,-1894,-2,90,-4591,23,-350,-154,142
735,-1893,-1,89,-4593,23,-350,-155,141
736,-1892,-2,90,-4592,23,-349,-154,141
737,-1892,-2,92,-4592,23,-349,-153,142
738,-1894,-2,94,-4593,23,-348,-155,142
739,-1895,-2,93,-4592,23,-348,-156,142
740,-1895,-2,91,-4593,23,-351,-154,143
741,-1894,-2,92,-4593,23,-352,-154,143
742,-1894,-2,93,-4593,23,-353,-154,141
743,-1894,0,92,-4594,23,-352,-157,143
744,-1894,-1,93,-4592,23,-353,-155,142
745,-1895,-1,94,-4591,23,-349,-155,141
746,-1894,-3,93,-4591,23,-347,-154,140
747,-1893,-3,95,-4591,23,-347,-153,140
748,-1893,-4,95,-4591,23,-348,-152,140
749,-1893,-3,96,-4592,23,-345,-152,141
750,-1893,-3,95,-4592,23,-347,-152,139
751,-1895,-3,95,-4592,23,-349,-151,139
752,-1894,-3,95,-4591,23,-348,-152,141
753,-1893,-2,94,-4587,23,-346,-154,138
754,-1893,-2,93,-4589,23,-347,-155,137
755,-1894,-1,93,-4589,23,-346,-155,141
756,-1894,-1,94,-4590,23,-349,-152,141
757,-1894,-1,96,-4591,23,-351,-155,142
758,-1893,-2,95,-4590,23,-352,-151,143
759,-1893,-3,93,-4593,23,-351,-150,142
760,-1893,-2,95,-4593,23,-351,-151,141
761,-1893,-1,96,-4592,23,-350,-151,140
762,-1895,0,93,-4591,23,-349,-150,136
763,-1895,1,94,-4590,23,-349,-151,138
764,-1894,-1,93,-4590,23,-349,-152,137
765,-1894,-2,94,-4590,23,-348,-155,139
766,-1895,-1,97,-4589,23,-348,-156,139
767,-1894,-2,98,-4590,23,-348,-157,139
768,-1895,-2,98,-4590,23,-347,-157,139
769,-1895,-2,96,-4589,23,-347,-156,140
770,-1895,-3,98,-4590,23,-347,-155,142
771,-1896,-4,97,-4591,23,-346,-156,142
772,-1895,-4,94,-4592,23,-345,-156,144
773,-1895,-3,94,-4591,23,-348,-156,141
774,-1895,-3,94,-4589,23,-351,-155,141
775,-1896,-2,94,-4591,23,-351,-155,140
776,-1895,-2,95,-4592,23,-350,-153,138
777,-1896,-1,93,-4591,23,-351,-151,140
778,-1895,-1,94,-4589,23,-348,-153,141
779,-1895,-2,94,-4591,23,-350,-155,142
780,-1896,-1,94,-4592,23,-349,-155,140
781,-1898,-1,95,-4592,23,-348,-156,138
782,-1898,-1,95,-4591,23,-350,-154,137
783,-1896,0,98,-4591,23,-349,-150,136
784,-1896,0,96,-4590,23,-351,-148,136
785,-1896,-2,97,-4589,23,-349,-150,138
786,-1896,-2,96,-4589,23,-349,-153,139
787,-1895,-3,96,-4590,23,-349,-152,141
788,-1895,-2,96,-4591,23,-348,-152,141
789,-1896,-2,97,-4593,23,-345,-155,140
790,-1896,-2,96,-4591,23,-345,-157,140
791,-1895,-1,98,-4590,23,-346,-156,140
792,-1896,-1,96,-4592,23,-346,-157,138
793,-1896,0,96,-4592,23,-345,-156,139
794,-1896,0,95,-4591,23,-345,-156,140
795,-1896,-2,96,-4591,23,-346,-157,139
796,-1894,-3,96,-4589,23,-347,-157,138
797,-1894,-2,95,-4588,23,-347,-156,140
798,-1894,-2,95,-4588,23,-348,-154,139
799,-1895,-2,94,-4587,23,-350,-154,138
800,-1894,-2,96,-4588,23,-351,-155,139
801,-1894,-2,96,-4588,23,-352,-152,140
802,-1895,-3,97,-4586,23,-353,-151,141
803,-1895,-3,96,-4587,23,-353,-153,140
804,-1894,-2,95,-4589,23,-352,-154,138
805,-1894,-2,97,-4589,23,-352,-155,142
806,-1893,-2,96,-4588,23,-350,-154,140
807,-1893,-1,95,-4588,23,-349,-150,140
808,-1893,-1,95,-4588,23,-348,-151,141
809,-1894,-1,93,-4589,23,-348,-151,139
810,-1893,-1,95,-4590,23,-348,-150,138
811,-1894,-1,94,-4589,23,-349,-151,139
812,-1894,-1,97,-4589,23,-349,-151,138
813,-1895,-2,98,-4589,23,-349,-154,137
814,-1894,-1,98,-4590,23,-348,-155,138
815,-1894,-1,97,-4591,23,-347,-153,138
816,-1893,0,97,-4592,23,-349,-155,139
817,-1894,-2,97,-4592,23,-349,-153,139
818,-1893,-1,97,-4590,23,-351,-155,139
819,-1893,-1,96,-4590,23,-349,-153,138
820,-1894,-2,94,-4591,23,-350,-152,139
821,-1895,-2,95,-4589,23,-348,-152,138
822,-1895,-3,95,-4590,23,-346,-151,141
823,-1895,-2,97,-4589,23,-349,-155,142
824,-1896,-1,97,-4589,23,-349,-154,142
825,-1895,-1,95,-4590,23,-349,-154,140
826,-1894,-1,93,-4590,23,-347,-154,141
827,-1896,-1,95,-4589,23,-346,-152,139
828,-1896,0,95,-4589,23,-348,-151,140
829,-1895,0,95,-4588,23,-348,-149,141
830,-1896,-1,97,-4588,23,-350,-149,142
831,-1896,-2,98,-4588,23,-349,-154,141
832,-1895,-3,97,-4588,23,-347,-155,139
833,-1895,-2,97,-4588,23,-346,-154,141
834,-1896,-2,95,-4588,23,-345,-153,140
835,-1895,-3,94,-4587,23,-343,-151,138
836,-1895,-2,94,-4586,23,-344,-154,138
837,-1895,-2,94,-4589,23,-346,-154,137
838,-1896,-4,93,-4590,23,-346,-156,138
839,-1895,-5,94,-4590,23,-345,-155,140
840,-1894,-5,95,-4588,23,-346,-156,138
841,-1894,-4,95,-4587,23,-346,-156,137
842,-1895,-4,94,-4588,23,-346,-156,138
843,-1895,-3,93,-4587,23,-349,-156,142
844,-1896,-2,91,-4588,23,-351,-156,141
845,-1897,-3,92,-4588,23,-350,-156,139
846,-1896,-2,92,-4590,23,-350,-154,139
847,-1895,-1,94,-4590,23,-350,-154,141
848,-1895,0,96,-4591,23,-349,-154,141
849,-1894,0,97,-4591,23,-350,-155,140
850,-1893,-1,95,-4590,23,-349,-152,139
851,-1893,-1,94,-4589,23,-348,-154,142
852,-1893,-2,94,-4589,23,-348,-154,143
853,-1894,-2,94,-4591,23,-350,-156,142
854,-1893,-2,93,-4591,23,-350,-155,141
855,-1892,-2,93,-4591,23,-350,-153,141
856,-1893,-2,94,-4590,23,-353,-155,141
857,-1894,-1,94,-4591,23,-350,-154,140
858,-1894,-1,95,-4591,23,-349,-155,140
859,-1894,-2,96,-4592,23,-348,-152,139
860,-1894,-2,97,-4592,23,-346,-153,140
861,-1896,-2,96,-4595,23,-346,-154,141
862,-1895,-2,96,-4593,23,-345,-155,142
863,-1895,-2,95,-4592,23,-345,-156,140
864,-1895,-1,95,-4591,23,-345,-158,140
865,-1894,-1,97,-4590,23,-346,-158,140
866,-1894,-2,97,-4590,23,-347,-158,140
867,-1893,-2,95,-4591,23,-346,-158,138
868,-1894,-2,94,-4590,23,-347,-158,140
869,-1894,-1,93,-4589,23,-347,-158,139
870,-1895,-1,92,-4590,23,-348,-158,138
871,-1895,-2,94,-4589,23,-347,-158,138
872,-1894,-1,95,-4590,23,-346,-156,138
873,-1895,-1,93,-4588,23,-348,-158,138
874,-1896,0,93,-4588,23,-349,-158,138
875,-1896,-1,94,-4589,23,-347,-157,139
876,-1895,-2,93,-4587,23,-347,-155,140
877,-1895,-2,94,-4588,23,-350,-155,140
878,-1896,-2,95,-4589,23,-350,-156,137
879,-1896,-1,95,-4588,23,-350,-155,136
880,-1894,-2,94,-4589,23,-349,-153,138
881,-1894,-3,96,-4590,23,-345,-152,137
882,-1894,-3,95,-4590,23,-347,-152,138
883,-1894,-3,95,-4590,23,-347,-153,139
884,-1893,-3,96,-4591,23,-345,-152,138
885,-1895,-3,95,-4594,23,-346,-153,139
886,-1895,-3,95,-4591,23,-347,-151,141
887,-1894,-3,94,-4591,23,-349,-153,141
888,-1895,-4,92,-4590,23,-347,-156,140
889,-1895,-2,95,-4591,23,-346,-156,138
890,-1895,-3,94,-4589,23,-345,-156,140
891,-1894,-3,95,-4589,23,-344,-155,142
892,-1894,-3,95,-4590,23,-345,-152,139
893,-1894,-2,96,-4590,23,-345,-154,140
894,-1893,-3,97,-4590,23,-346,-152,141
895,-1894,-3,96,-4589,23,-347,-150,140
896,-1895,-3,94,-4590,23,-349,-151,139
897,-1895,-3,94,-4589,23,-351,-152,142
898,-1896,-3,93,-4590,23,-350,-154,142
899,-1895,-1,92,-4591,23,-350,-156,143
900,-1895,-1,91,-4591,23,-349,-156,143
901,-1895,-1,92,-4592,23,-350,-152,141
902,-1895,-1,92,-4591,23,-350,-152,141
903,-1897,-2,92,-4592,23,-347,-152,140
904,-1896,-2,93,-4592,23,-346,-155,141
905,-1895,-1,93,-4590,23,-344,-152,140
906,-1894,-2,93,-4589,23,-345,-154,142
907,-1895,-2,92,-4590,23,-345,-154,141
908,-1897,-3,93,-4589,23,-345,-154,142
909,-1897,-2,92,-4587,23,-345,-152,142
910,-1896,-3,91,-4587,23,-348,-153,143
911,-1896,-1,90,-4588,23,-348,-152,143
912,-1895,-1,89,-4590,23,-348,-155,140
913,-1895,-2,90,-4590,23,-345,-156,140
914,-1894,-2,92,-4591,23,-347,-153,141
915,-1895,-2,93,-4591,23,-349,-156,140
916,-1894,-3,93,-4592,23,-349,-155,141
917,-1895,-2,93,-4591,23,-350,-154,141
918,-1895,-2,92,-4592,23,-349,-154,140
919,-1895,-2,92,-4592,23,-346,-156,139
920,-1896,-2,92,-4592,23,-348,-154,141
921,-1896,-1,93,-4592,23,-349,-156,140
922,-1896,-1,94,-4591,23,-349,-156,139
923,-1896,0,94,-4593,23,-351,-158,138
924,-1895,-2,94,-4592,23,-352,-159,139
925,-1895,-2,94,-4592,23,-351,-158,139
926,-1896,-2,92,-4593,23,-354,-157,141
927,-1895,-2,93,-4591,23,-354,-155,141
928,-1894,-2,93,-4591,23,-351,-152,140
929,-1895,-1,93,-4591,23,-349,-153,140
930,-1896,-2,96,-4591,23,-349,-152,141
931,-1896,-1,97,-4591,23,-348,-152,142
932,-1895,-3,96,-4591,23,-349,-151,141
933,-1895,-2,96,-4590,23,-349,-150,139
934,-1896,-2,95,-4592,23,-349,-148,139
935,-1894,-1,95,-4593,23,-348,-149,140
936,-1895,-1,95,-4592,23,-347,-149,139
937,-1896,-1,94,-4592,23,-347,-149,139
938,-1896,-2,94,-4593,23,-346,-151,139
939,-1895,-2,94,-4591,23,-347,-152,140
940,-1896,-2,93,-4591,23,-346,-155,141
941,-1895,-1,93,-4590,23,-345,-152,140
942,-1893,-2,95,-4589,23,-346,-153,140
943,-1893,-3,95,-4590,23,-346,-152,139
944,-1894,-2,94,-4590,23,-346,-152,141
945,-1894,-3,95,-4590,23,-344,-152,142
946,-1895,-3,95,-4589,23,-346,-153,141
947,-1896,-2,94,-4590,23,-348,-153,141
948,-1897,-2,95,-4591,23,-348,-152,141
949,-1897,-1,96,-4589,23,-347,-152,140
950,-1897,-1,96,-4587,23,-347,-153,139
951,-1897,-1,95,-4587,23,-350,-154,139
952,-1896,-3,96,-4585,23,-347,-154,140
953,-1896,-3,95,-4583,23,-348,-154,140
954,-1895,-2,96,-4585,23,-347,-155,140
955,-1896,-1,94,-4587,23,-348,-154,141
956,-1896,-2,95,-4587,23,-349,-155,140
957,-1896,-2,95,-4589,23,-351,-156,140
958,-1896,-1,94,-4591,23,-351,-153,139
959,-1896,-3,95,-4591,23,-351,-153,140
960,-1896,-3,95,-4591,23,-351,-152,141
961,-1896,-2,92,-4592,23,-351,-152,141
962,-1896,-2,92,-4591,23,-352,-153,140
963,-1897,-2,93,-4591,23,-352,-155,139
964,-1897,-2,93,-4591,23,-351,-155,137
965,-1896,-3,93,-4590,23,-350,-157,138
966,-1896,-2,92,-4591,23,-348,-156,139
967,-1897,-2,91,-4591,23,-349,-155,141
968,-1896,-3,91,-4589,23,-351,-157,141
969,-1896,-2,92,-4591,23,-351,-157,140
970,-1895,-2,92,-4591,23,-348,-154,140
971,-1895,-2,93,-4589,23,-349,-154,139
972,-1895,-2,94,-4590,23,-350,-153,142
973,-1895,-2,96,-4588,23,-349,-150,143
974,-1896,-2,96,-4588,23,-350,-151,142
975,-1896,-2,95,-4589,23,-350,-151,139
976,-1896,-2,95,-4587,23,-351,-150,139
977,-1896,-2,96,-4586,23,-350,-151,138
978,-1895,-1,94,-4587,23,-351,-154,138
979,-1896,-1,97,-4588,23,-349,-157,142
980,-1896,0,98,-4589,23,-348,-158,140
981,-1896,-1,97,-4590,23,-348,-157,137
982,-1896,0,96,-4590,23,-347,-157,138
983,-1896,1,94,-4589,23,-347,-159,140
984,-1895,2,93,-4588,23,-348,-158,138
985,-1895,0,93,-4588,23,-347,-154,138
986,-1894,-1,94,-4588,23,-347,-151,138
987,-1894,-1,93,-4589,23,-347,-152,138
988,-1894,0,93,-4590,23,-345,-155,138
989,-1896,-1,93,-4589,23,-344,-156,140
990,-1894,-2,92,-4587,23,-346,-158,141
991,-1895,-2,93,-4586,23,-346,-158,141
992,-1895,-2,93,-4587,23,-347,-157,143
993,-1895,-1,92,-4587,23,-345,-154,144
994,-1894,-2,92,-4588,23,-347,-155,143
995,-1894,-2,94,-4589,23,-348,-154,142
996,-1894,-3,93,-4589,23,-350,-155,142
997,-1895,-3,93,-4590,23,-348,-155,144
998,-1896,-2,94,-4589,23,-347,-157,142
