,acc_X,acc_Y,acc_Z,temp,tempC,gyr_X,gyr_Y,gyr_Z
0,-15130,-2,756,-4780,22,-87,-39,36
1,-15132,20,728,-4778,22,-87,-39,35
2,-15148,24,754,-4780,22,-87,-39,34
3,-15144,-2,726,-4781,22,-88,-40,33
4,-15148,-16,688,-4782,22,-86,-38,34
5,-15128,-32,700,-4779,22,-87,-39,34
6,-15164,-22,768,-4778,22,-87,-38,34
7,-15154,-18,790,-4776,22,-87,-38,34
8,-15158,-8,756,-4778,22,-85,-39,35
9,-15142,-22,724,-4778,22,-84,-39,36
10,-15156,-56,734,-4781,22,-87,-37,35
11,-15178,-58,726,-4781,22,-88,-38,36
12,-15182,-14,742,-4781,22,-88,-39,37
13,-15166,2,728,-4782,22,-87,-38,34
14,-15146,-8,714,-4780,22,-88,-37,34
15,-15144,-20,738,-4777,22,-86,-38,33
16,-15176,-42,786,-4781,22,-85,-39,34
17,-15172,-36,754,-4781,22,-87,-39,34
18,-15140,-34,784,-4776,22,-87,-40,35
19,-15164,0,754,-4777,22,-87,-40,34
20,-15158,-4,814,-4770,22,-86,-38,33
21,-15150,-16,758,-4771,22,-86,-38,34
22,-15168,2,712,-4771,22,-87,-38,36
23,-15158,-12,722,-4777,22,-86,-39,36
24,-15156,-30,752,-4775,22,-85,-40,33
25,-15152,-8,810,-4777,22,-86,-40,35
26,-15138,-4,758,-4778,22,-86,-40,35
27,-15144,-14,750,-4777,22,-86,-39,34
28,-15160,-26,742,-4777,22,-87,-37,35
29,-15158,-64,788,-4773,22,-86,-39,35
30,-15152,-48,800,-4774,22,-87,-38,34
31,-15138,-56,764,-4775,22,-86,-38,36
32,-15150,-34,752,-4772,22,-87,-38,34
33,-15172,-20,730,-4769,22,-87,-39,34
34,-15168,0,764,-4777,22,-87,-39,35
35,-15166,-18,736,-4772,22,-88,-39,33
36,-15184,-26,744,-4768,22,-87,-39,34
37,-15136,-40,784,-4768,22,-87,-39,32
38,-15160,-32,804,-4772,22,-88,-38,33
39,-15142,-16,788,-4776,22,-87,-39,34
40,-15138,-20,750,-4770,22,-87,-39,33
41,-15124,-32,726,-4767,22,-86,-39,34
42,-15130,6,752,-4767,22,-85,-38,34
43,-15180,-24,772,-4762,22,-86,-39,33
44,-15140,-36,752,-4763,22,-86,-39,35
45,-15160,-16,794,-4765,22,-85,-36,34
46,-15148,-12,746,-4766,22,-85,-37,35
47,-15182,-16,732,-4767,22,-86,-37,35
48,-15138,-10,748,-4771,22,-87,-39,33
49,-15194,-22,754,-4772,22,-87,-39,35
50,-15194,-6,738,-4771,22,-88,-37,33
51,-15184,-32,752,-4769,22,-87,-37,35
52,-15160,-20,754,-4768,22,-86,-37,35
53,-15162,8,754,-4772,22,-86,-37,36
54,-15166,4,724,-4764,22,-85,-38,34
55,-15180,-8,696,-4766,22,-86,-39,33
56,-15162,-38,758,-4766,22,-86,-40,33
57,-15206,-22,728,-4762,22,-87,-38,35
58,-15172,-46,766,-4761,22,-86,-39,35
59,-15172,-28,764,-4765,22,-87,-40,36
60,-15136,0,746,-4762,22,-85,-39,34
61,-15142,-34,718,-4768,22,-88,-38,35
62,-15124,-30,764,-4770,22,-88,-38,35
63,-15144,36,766,-4768,22,-88,-37,34
64,-15148,6,748,-4763,22,-87,-38,34
65,-15144,24,716,-4760,22,-87,-39,35
66,-15168,10,742,-4763,22,-88,-37,35
67,-15146,-30,734,-4765,22,-88,-38,35
68,-15132,6,706,-4765,22,-87,-37,34
69,-15140,6,726,-4762,22,-86,-39,35
70,-15130,-18,744,-4762,22,-87,-39,35
71,-15148,-12,756,-4763,22,-87,-39,36
72,-15120,16,762,-4760,22,-86,-39,34
73,-15146,-16,788,-4756,23,-89,-39,35
74,-15142,-30,756,-4758,23,-86,-39,35
75,-15132,-52,736,-4762,22,-87,-36,35
76,-15146,-34,746,-4756,23,-87,-37,35
77,-15132,-4,752,-4758,23,-87,-37,36
78,-15148,8,752,-4759,23,-87,-38,33
79,-15164,-34,804,-4763,22,-86,-40,35
80,-15172,-14,764,-4761,22,-86,-38,35
81,-15170,6,742,-4768,22,-87,-38,34
82,-15170,-6,726,-4761,22,-88,-40,34
83,-15160,-8,766,-4760,22,-87,-38,35
84,-15136,-12,766,-4760,22,-87,-39,34
85,-15128,-26,780,-4760,22,-87,-40,34
86,-15136,-4,732,-4759,23,-86,-39,35
87,-15170,-2,734,-4758,23,-87,-39,34
88,-15140,-4,750,-4757,23,-86,-38,34
89,-15168,-10,742,-4758,23,-85,-39,34
90,-15128,2,708,-4758,23,-87,-36,33
91,-15182,-30,696,-4758,23,-87,-38,35
92,-15174,-20,720,-4754,23,-88,-38,35
93,-15166,-22,702,-4757,23,-86,-38,34
94,-15140,-24,710,-4756,23,-88,-38,34
95,-15154,-16,772,-4755,23,-86,-39,36
96,-15156,-24,764,-4750,23,-87,-39,35
97,-15152,-26,744,-4752,23,-86,-38,35
98,-15172,-22,706,-4757,23,-85,-39,33
99,-15162,-12,754,-4756,23,-88,-39,36
100,-15176,-24,752,-4758,23,-86,-39,34
101,-15132,-42,752,-4761,22,-86,-40,34
102,-15144,-2,724,-4757,23,-87,-39,34
103,-15152,-14,736,-4756,23,-87,-40,35
104,-15160,22,686,-4748,23,-88,-39,35
105,-15168,2,736,-4744,23,-86,-37,35
106,-15146,-16,746,-4745,23,-87,-37,34
107,-15144,-14,738,-4745,23,-87,-37,36
108,-15144,6,732,-4747,23,-86,-38,34
109,-15142,-42,788,-4750,23,-85,-38,34
110,-15156,-38,782,-4755,23,-87,-40,34
111,-15166,-2,786,-4758,23,-86,-39,34
112,-15130,14,752,-4754,23,-87,-37,35
113,-15174,-22,752,-4751,23,-87,-39,35
114,-15160,-26,758,-4750,23,-87,-38,35
115,-15156,-22,744,-4750,23,-86,-38,35
116,-15136,-38,762,-4751,23,-87,-37,36
117,-15142,-30,758,-4749,23,-86,-41,34
118,-15148,-54,710,-4748,23,-87,-38,35
119,-15156,-28,716,-4754,23,-87,-38,34
120,-15182,-14,768,-4755,23,-88,-39,34
121,-15136,-10,776,-4758,23,-87,-39,35
122,-15160,0,738,-4754,23,-85,-39,34
123,-15148,-2,746,-4753,23,-86,-41,33
124,-15150,-18,764,-4750,23,-87,-41,33
125,-15132,-22,760,-4750,23,-88,-39,33
126,-15152,-56,758,-4752,23,-87,-40,35
127,-15164,-24,714,-4746,23,-88,-39,34
128,-15152,-14,766,-4748,23,-89,-38,33
129,-15152,-14,732,-4749,23,-88,-37,33
130,-15150,-12,768,-4749,23,-87,-38,35
131,-15150,-32,742,-4748,23,-87,-38,34
132,-15152,-32,754,-4748,23,-86,-37,36
133,-15150,-20,776,-4748,23,-86,-39,33
134,-15128,-10,756,-4748,23,-87,-39,35
135,-15152,-10,754,-4750,23,-86,-39,33
136,-15164,20,712,-4749,23,-86,-39,35
137,-15134,14,732,-4747,23,-86,-39,34
138,-15118,-40,736,-4747,23,-88,-38,33
139,-15160,-46,732,-4749,23,-86,-38,35
140,-15162,-44,798,-4751,23,-86,-38,35
141,-15166,-22,800,-4746,23,-87,-38,35
142,-15170,-46,784,-4744,23,-86,-39,33
143,-15170,-26,766,-4747,23,-87,-38,35
144,-15154,-38,730,-4750,23,-87,-39,35
145,-15152,8,818,-4745,23,-87,-39,35
146,-15146,-4,776,-4749,23,-88,-39,34
147,-15174,-16,766,-4751,23,-87,-37,33
148,-15184,-22,726,-4749,23,-87,-38,35
149,-15168,-34,744,-4745,23,-87,-40,34
150,-15152,-32,762,-4748,23,-86,-38,34
151,-15160,4,744,-4751,23,-88,-40,35
152,-15120,2,712,-4751,23,-88,-39,36
153,-15164,-6,754,-4743,23,-88,-38,34
154,-15184,-6,750,-4741,23,-86,-37,33
155,-15152,-18,740,-4745,23,-88,-39,34
156,-15158,-28,756,-4741,23,-85,-39,36
157,-15170,-10,766,-4742,23,-87,-38,36
158,-15160,-8,746,-4743,23,-87,-38,35
159,-15160,-6,764,-4743,23,-88,-38,34
160,-15142,-12,756,-4742,23,-87,-38,36
161,-15142,10,744,-4746,23,-88,-38,36
162,-15156,14,728,-4743,23,-87,-37,35
163,-15158,8,768,-4737,23,-86,-38,35
164,-15174,14,788,-4735,23,-86,-37,35
165,-15168,4,792,-4742,23,-89,-38,34
166,-15176,-6,758,-4742,23,-88,-39,33
167,-15142,-8,742,-4742,23,-88,-37,35
168,-15174,-32,750,-4740,23,-86,-35,37
169,-15166,-2,756,-4739,23,-87,-37,35
170,-15132,4,766,-4737,23,-86,-38,34
171,-15132,0,798,-4737,23,-87,-38,34
172,-15164,4,806,-4739,23,-88,-38,35
173,-15118,2,802,-4740,23,-88,-39,34
174,-15152,0,762,-4731,23,-87,-40,35
175,-15134,10,778,-4741,23,-87,-40,36
176,-15152,-24,736,-4745,23,-87,-40,35
177,-15174,-18,746,-4741,23,-87,-38,33
178,-15172,-36,726,-4738,23,-87,-38,33
179,-15162,-18,776,-4739,23,-87,-37,35
180,-15146,-12,792,-4737,23,-87,-39,36
181,-15160,12,740,-4734,23,-86,-38,35
182,-15120,0,734,-4738,23,-86,-38,34
183,-15156,-34,782,-4740,23,-87,-37,34
184,-15144,-18,786,-4743,23,-86,-37,33
185,-15154,-18,706,-4740,23,-87,-39,33
186,-15148,-40,718,-4737,23,-88,-38,34
187,-15130,-28,748,-4733,23,-88,-38,34
188,-15142,-20,752,-4734,23,-88,-37,33
189,-15156,-14,736,-4741,23,-86,-37,34
190,-15136,-4,734,-4737,23,-86,-40,34
191,-15150,-8,762,-4734,23,-86,-40,34
192,-15160,-8,730,-4737,23,-88,-39,34
193,-15148,-22,746,-4734,23,-87,-38,36
194,-15152,-50,736,-4737,23,-88,-38,33
195,-15168,-16,746,-4739,23,-87,-39,35
196,-15144,-28,728,-4736,23,-87,-39,34
197,-15168,-26,782,-4734,23,-86,-41,33
198,-15136,-26,804,-4733,23,-87,-39,34
199,-15128,-34,762,-4734,23,-87,-39,33
200,-15166,-40,726,-4739,23,-87,-38,35
201,-15168,2,720,-4738,23,-89,-39,33
202,-15130,-14,732,-4737,23,-88,-40,33
203,-15124,-26,740,-4738,23,-88,-39,34
204,-15168,-4,770,-4734,23,-88,-39,35
205,-15176,-22,744,-4733,23,-87,-40,35
206,-15168,-2,760,-4735,23,-88,-40,34
207,-15204,-6,756,-4741,23,-90,-40,33
208,-15176,6,732,-4737,23,-88,-40,33
209,-15166,-24,710,-4740,23,-88,-41,33
210,-15158,-34,740,-4737,23,-87,-39,34
211,-15152,-42,710,-4731,23,-86,-39,33
212,-15162,20,784,-4735,23,-86,-37,35
213,-15136,16,806,-4734,23,-88,-39,34
214,-15166,-10,754,-4732,23,-87,-38,34
215,-15148,8,732,-4734,23,-87,-39,33
216,-15148,-18,738,-4732,23,-85,-39,35
217,-15170,-30,774,-4730,23,-86,-37,35
218,-15152,-34,712,-4733,23,-89,-39,36
219,-15174,-28,738,-4735,23,-88,-39,38
220,-15174,-28,732,-4733,23,-87,-40,36
221,-15158,-12,726,-4734,23,-88,-39,36
222,-15162,-24,734,-4732,23,-87,-38,33
223,-15186,-24,782,-4732,23,-88,-37,34
224,-15200,-12,762,-4733,23,-89,-38,34
225,-15164,8,750,-4732,23,-87,-38,35
226,-15182,-6,734,-4737,23,-86,-39,35
227,-15158,-2,744,-4733,23,-85,-38,33
228,-15168,-14,732,-4733,23,-86,-38,33
229,-15188,-6,716,-4735,23,-86,-38,34
230,-15162,-10,710,-4734,23,-88,-38,35
231,-15144,-8,730,-4734,23,-88,-39,36
232,-15148,-20,748,-4733,23,-88,-39,35
233,-15156,-18,786,-4731,23,-88,-40,34
234,-15168,-6,782,-4731,23,-87,-40,32
235,-15154,-16,764,-4734,23,-87,-39,34
236,-15132,-12,764,-4734,23,-87,-38,36
237,-15142,30,778,-4734,23,-86,-39,33
238,-15160,32,796,-4731,23,-85,-39,34
239,-15146,-28,740,-4734,23,-86,-39,34
240,-15136,-32,792,-4735,23,-88,-40,34
241,-15152,-14,752,-4733,23,-88,-41,33
242,-15160,-28,718,-4735,23,-88,-39,36
243,-15176,-4,712,-4730,23,-88,-37,35
244,-15180,8,740,-4730,23,-87,-38,35
245,-15162,2,772,-4730,23,-88,-39,36
246,-15140,4,766,-4731,23,-85,-38,35
247,-15138,-4,740,-4731,23,-87,-38,35
248,-15166,-8,732,-4731,23,-84,-40,33
249,-15170,6,726,-4729,23,-86,-40,34
250,-15168,-34,754,-4732,23,-87,-38,34
251,-15160,-28,756,-4734,23,-87,-40,35
252,-15134,-4,726,-4731,23,-86,-38,34
253,-15134,-8,706,-4730,23,-86,-39,35
254,-15154,14,696,-4729,23,-86,-37,33
255,-15160,16,748,-4733,23,-87,-38,33
256,-15158,-38,788,-4734,23,-87,-38,34
257,-15164,0,776,-4732,23,-87,-38,35
258,-15176,-12,720,-4730,23,-87,-38,35
259,-15192,-2,716,-4729,23,-88,-37,34
260,-15174,-34,718,-4727,23,-87,-40,34
261,-15144,-8,758,-4732,23,-87,-39,34
262,-15166,-26,720,-4734,23,-87,-39,34
263,-15142,-34,686,-4725,23,-88,-39,32
264,-15154,-44,752,-4726,23,-88,-40,34
265,-15110,-2,748,-4732,23,-87,-39,34
266,-15128,6,712,-4728,23,-85,-38,35
267,-15140,-26,746,-4727,23,-86,-39,34
268,-15152,-4,780,-4729,23,-87,-39,35
269,-15144,6,774,-4731,23,-86,-37,35
270,-15138,8,742,-4735,23,-87,-38,34
271,-15144,-2,752,-4726,23,-87,-36,35
272,-15162,-16,738,-4729,23,-87,-37,33
273,-15174,-28,728,-4731,23,-87,-39,35
274,-15160,-30,774,-4725,23,-86,-38,35
275,-15134,-28,730,-4725,23,-86,-37,35
276,-15148,-10,724,-4725,23,-86,-39,35
277,-15134,-12,716,-4730,23,-90,-39,35
278,-15140,-18,726,-4727,23,-88,-39,35
279,-15164,-46,736,-4727,23,-88,-37,35
280,-15140,-54,724,-4730,23,-86,-39,34
281,-15156,-38,694,-4730,23,-86,-38,34
282,-15154,-16,710,-4729,23,-87,-40,34
283,-15152,-4,736,-4730,23,-88,-40,35
284,-15154,-6,766,-4728,23,-88,-37,35
285,-15188,-2,780,-4733,23,-87,-39,33
286,-15168,16,754,-4726,23,-86,-37,35
287,-15160,4,696,-4728,23,-87,-39,35
288,-15146,-20,714,-4727,23,-87,-40,34
289,-15138,-6,740,-4726,23,-87,-40,35
290,-15162,12,766,-4725,23,-86,-40,35
291,-15182,-24,768,-4730,23,-87,-38,33
292,-15146,-8,730,-4734,23,-87,-37,34
293,-15146,-24,752,-4731,23,-86,-37,36
294,-15178,-12,752,-4729,23,-87,-35,35
295,-15168,-6,692,-4730,23,-87,-36,34
296,-15156,-4,760,-4734,23,-89,-38,33
297,-15166,-12,786,-4730,23,-86,-38,34
298,-15194,-30,762,-4723,23,-84,-37,33
299,-15182,-46,744,-4728,23,-86,-39,33
300,-15174,-22,724,-4731,23,-88,-37,33
301,-15174,-4,744,-4724,23,-86,-37,33
302,-15166,-18,768,-4722,23,-87,-37,33
303,-15162,-16,742,-4726,23,-87,-38,35
304,-15140,4,758,-4722,23,-87,-38,35
305,-15152,-40,766,-4721,23,-88,-39,35
306,-15130,-34,770,-4727,23,-87,-41,34
307,-15128,-32,740,-4728,23,-87,-39,35
308,-15162,-16,772,-4723,23,-88,-35,35
309,-15140,-12,758,-4725,23,-86,-36,35
310,-15168,2,766,-4724,23,-87,-37,35
311,-15146,-4,750,-4724,23,-87,-37,33
312,-15138,-12,704,-4722,23,-86,-38,33
313,-15148,6,714,-4723,23,-86,-37,35
314,-15170,-30,712,-4726,23,-88,-39,34
315,-15162,-22,752,-4729,23,-88,-38,35
316,-15112,-20,762,-4722,23,-89,-39,33
317,-15098,-16,774,-4721,23,-88,-39,35
318,-15138,-24,772,-4725,23,-86,-40,34
319,-15164,-2,710,-4724,23,-87,-39,33
320,-15142,8,706,-4720,23,-88,-40,34
321,-15150,-28,752,-4719,23,-87,-39,33
322,-15130,-30,748,-4719,23,-87,-39,34
323,-15174,-20,712,-4724,23,-87,-38,34
324,-15166,-10,730,-4723,23,-89,-37,34
325,-15140,-24,694,-4720,23,-89,-37,36
326,-15152,24,710,-4720,23,-88,-38,34
327,-15128,24,732,-4722,23,-89,-39,35
328,-15146,20,806,-4723,23,-88,-39,35
329,-15140,-14,774,-4725,23,-87,-39,35
330,-15146,-18,788,-4724,23,-87,-41,34
331,-15160,-38,762,-4724,23,-88,-41,34
332,-15148,-16,802,-4725,23,-88,-38,34
333,-15150,8,800,-4723,23,-88,-39,35
334,-15166,-36,776,-4722,23,-86,-39,35
335,-15184,-22,788,-4726,23,-86,-37,35
336,-15158,-44,772,-4726,23,-88,-38,34
337,-15154,-22,764,-4726,23,-88,-36,36
338,-15126,-30,730,-4723,23,-88,-37,33
339,-15140,0,792,-4725,23,-86,-38,34
340,-15150,-32,786,-4728,23,-86,-38,33
341,-15176,-22,700,-4726,23,-87,-39,34
342,-15146,-8,744,-4725,23,-89,-39,34
343,-15150,-36,740,-4716,23,-88,-36,34
344,-15122,-40,738,-4718,23,-87,-37,34
345,-15138,-34,728,-4721,23,-87,-37,35
346,-15112,-24,708,-4727,23,-87,-38,34
347,-15160,2,764,-4722,23,-87,-39,33
348,-15156,-32,754,-4719,23,-87,-38,35
349,-15166,2,688,-4720,23,-87,-37,35
350,-15154,48,696,-4728,23,-88,-38,36
351,-15158,34,752,-4718,23,-88,-39,34
352,-15138,2,758,-4725,23,-86,-37,35
353,-15176,2,732,-4717,23,-86,-38,33
354,-15158,10,744,-4721,23,-87,-39,34
355,-15178,2,744,-4725,23,-85,-41,34
356,-15180,10,758,-4719,23,-87,-39,35
357,-15148,-10,726,-4718,23,-87,-39,35
358,-15156,16,754,-4723,23,-86,-39,35
359,-15138,-4,754,-4719,23,-87,-39,35
360,-15146,-2,740,-4719,23,-89,-38,35
361,-15162,-28,728,-4715,23,-87,-38,35
362,-15148,-48,794,-4717,23,-87,-37,34
363,-15156,-8,770,-4717,23,-86,-37,35
364,-15168,2,744,-4719,23,-86,-38,33
365,-15164,-4,768,-4718,23,-86,-40,34
366,-15176,8,714,-4717,23,-86,-39,35
367,-15160,-12,718,-4712,23,-87,-37,34
368,-15130,4,754,-4713,23,-87,-37,35
369,-15150,-20,784,-4716,23,-85,-38,34
370,-15132,4,746,-4717,23,-85,-38,35
371,-15170,-16,766,-4726,23,-87,-37,34
372,-15184,-34,750,-4717,23,-88,-36,34
373,-15164,-60,772,-4721,23,-88,-36,33
374,-15152,-34,728,-4720,23,-87,-39,35
375,-15156,-18,738,-4719,23,-85,-39,36
376,-15128,-34,706,-4718,23,-87,-39,35
377,-15164,-16,750,-4718,23,-86,-38,36
378,-15160,-2,756,-4712,23,-88,-38,35
379,-15146,-16,782,-4718,23,-88,-39,35
380,-15170,-20,814,-4717,23,-87,-38,35
381,-15180,-28,786,-4713,23,-86,-39,36
382,-15162,16,786,-4716,23,-85,-39,36
383,-15138,-14,822,-4716,23,-86,-39,35
384,-15140,-28,752,-4716,23,-88,-40,36
385,-15136,-34,778,-4717,23,-88,-40,34
386,-15136,-18,754,-4721,23,-88,-39,33
387,-15130,16,760,-4716,23,-87,-39,35
388,-15130,-18,760,-4714,23,-86,-38,33
389,-15146,-12,708,-4716,23,-86,-38,34
390,-15160,-34,698,-4716,23,-86,-40,35
391,-15156,-18,714,-4719,23,-87,-40,35
392,-15152,-30,786,-4715,23,-88,-39,35
393,-15154,-10,756,-4717,23,-88,-39,33
394,-15150,-6,744,-4718,23,-87,-39,34
395,-15148,-38,712,-4719,23,-87,-38,33
396,-15150,-40,742,-4720,23,-86,-38,34
397,-15158,-20,766,-4716,23,-87,-37,33
398,-15126,-14,794,-4714,23,-89,-37,34
399,-15132,-22,776,-4716,23,-86,-40,34
400,-15154,-8,730,-4718,23,-86,-38,33
401,-15154,-14,740,-4715,23,-87,-38,33
402,-15136,-8,730,-4718,23,-87,-39,31
403,-15146,-10,740,-4715,23,-84,-40,34
404,-15142,-30,724,-4716,23,-83,-39,33
405,-15164,-16,712,-4716,23,-86,-39,34
406,-15184,-16,680,-4715,23,-86,-40,34
407,-15184,-12,738,-4716,23,-88,-38,33
408,-15164,-28,760,-4716,23,-87,-38,34
409,-15142,2,742,-4715,23,-88,-38,36
410,-15138,-2,726,-4712,23,-88,-39,36
411,-15154,-34,800,-4713,23,-87,-39,34
412,-15154,-12,764,-4713,23,-87,-38,32
413,-15152,-20,790,-4714,23,-88,-39,34
414,-15164,-38,762,-4718,23,-88,-38,35
415,-15156,-22,788,-4718,23,-86,-39,34
416,-15132,-6,760,-4718,23,-86,-41,34
417,-15146,-26,744,-4719,23,-88,-38,34
418,-15148,-24,734,-4716,23,-89,-39,35
419,-15168,-38,694,-4716,23,-87,-39,34
420,-15156,-34,756,-4720,23,-88,-39,34
421,-15152,2,778,-4720,23,-89,-38,35
422,-15142,-22,786,-4716,23,-88,-39,36
423,-15122,-12,788,-4712,23,-89,-41,35
424,-15152,-2,780,-4715,23,-88,-39,34
425,-15168,-6,782,-4715,23,-86,-39,35
426,-15154,4,696,-4717,23,-87,-39,34
427,-15166,2,706,-4716,23,-86,-39,36
428,-15186,-6,740,-4717,23,-87,-39,34
429,-15168,-10,716,-4716,23,-87,-40,35
430,-15136,-2,732,-4720,23,-87,-39,34
431,-15160,12,732,-4720,23,-88,-39,33
432,-15168,2,774,-4720,23,-88,-39,34
433,-15190,-20,740,-4714,23,-86,-39,35
434,-15168,-30,754,-4719,23,-86,-38,33
435,-15142,-16,714,-4714,23,-87,-38,34
436,-15154,-66,720,-4714,23,-88,-40,35
437,-15124,-38,734,-4711,23,-87,-39,34
438,-15122,-46,680,-4715,23,-86,-39,35
439,-15132,-20,744,-4714,23,-87,-39,34
440,-15156,-10,740,-4709,23,-88,-37,34
441,-15160,0,762,-4715,23,-88,-38,34
442,-15156,-12,766,-4715,23,-88,-40,34
443,-15152,2,782,-4712,23,-86,-39,34
444,-15158,8,750,-4711,23,-86,-40,35
445,-15176,0,766,-4715,23,-87,-39,34
446,-15198,-28,740,-4716,23,-87,-38,35
447,-15134,0,720,-4712,23,-86,-38,35
448,-15140,34,778,-4709,23,-85,-39,34
449,-15174,-22,720,-4709,23,-86,-40,34
450,-15170,4,736,-4713,23,-88,-38,34
451,-15178,4,726,-4713,23,-87,-38,33
452,-15192,-36,716,-4713,23,-85,-39,34
453,-15198,-26,696,-4709,23,-86,-40,35
454,-15154,-18,724,-4712,23,-85,-39,34
455,-15148,8,728,-4711,23,-88,-38,35
456,-15182,-36,778,-4713,23,-86,-37,35
457,-15144,4,796,-4709,23,-87,-40,35
458,-15166,-14,754,-4715,23,-87,-40,36
459,-15162,-16,798,-4713,23,-85,-39,36
460,-15166,2,740,-4711,23,-85,-38,33
461,-15148,22,772,-4711,23,-87,-40,36
462,-15166,-6,744,-4711,23,-88,-40,36
463,-15170,-34,752,-4713,23,-89,-39,35
464,-15168,-16,710,-4719,23,-87,-37,33
465,-15124,-10,758,-4714,23,-87,-38,32
466,-15154,-16,732,-4714,23,-87,-39,32
467,-15128,2,756,-4710,23,-87,-40,33
468,-15144,-10,750,-4710,23,-88,-39,34
469,-15154,-6,706,-4715,23,-88,-40,33
470,-15166,-26,688,-4712,23,-88,-40,33
471,-15158,-28,718,-4714,23,-87,-39,33
472,-15134,20,756,-4713,23,-87,-39,35
473,-15116,2,770,-4710,23,-88,-40,36
474,-15146,10,742,-4712,23,-88,-39,34
475,-15130,-6,752,-4712,23,-86,-39,35
476,-15148,-2,742,-4714,23,-87,-39,34
477,-15154,-20,772,-4710,23,-86,-38,34
478,-15130,-22,712,-4715,23,-86,-39,34
479,-15168,-10,788,-4713,23,-87,-38,34
480,-15164,6,762,-4711,23,-86,-40,36
481,-15170,-2,754,-4711,23,-87,-38,34
482,-15166,-4,746,-4711,23,-87,-39,34
483,-15170,-20,770,-4706,23,-87,-38,34
484,-15148,-16,796,-4710,23,-87,-39,34
485,-15128,8,800,-4716,23,-88,-39,35
486,-15154,0,778,-4711,23,-86,-38,32
487,-15150,-12,768,-4708,23,-88,-39,35
488,-15150,-12,786,-4702,23,-85,-40,36
489,-15190,-18,730,-4706,23,-88,-38,35
490,-15132,-6,738,-4709,23,-86,-38,35
491,-15136,6,740,-4712,23,-87,-38,34
492,-15168,-12,744,-4715,23,-87,-37,35
493,-15162,-12,774,-4703,23,-87,-37,35
494,-15140,22,708,-4704,23,-90,-39,34
495,-15156,14,732,-4712,23,-88,-38,35
496,-15160,2,754,-4712,23,-88,-39,33
497,-15142,0,734,-4708,23,-87,-41,33
498,-15154,-14,730,-4709,23,-86,-38,36
499,-15150,14,806,-4707,23,-86,-39,36
500,-15130,14,784,-4704,23,-87,-37,35
501,-15134,-14,776,-4704,23,-88,-36,36
502,-15154,16,720,-4703,23,-88,-36,36
503,-15140,2,708,-4704,23,-88,-42,35
504,-15136,-42,746,-4704,23,-87,-39,34
505,-15154,-18,738,-4705,23,-88,-40,33
506,-15138,-12,766,-4704,23,-87,-38,34
507,-15166,-30,798,-4708,23,-88,-39,35
508,-15166,-2,770,-4708,23,-87,-38,36
509,-15138,0,736,-4701,23,-86,-37,35
510,-15176,-14,742,-4704,23,-87,-37,34
511,-15166,-48,718,-4704,23,-90,-39,34
512,-15138,-36,752,-4701,23,-87,-40,32
513,-15182,-36,798,-4703,23,-87,-40,34
514,-15192,-42,812,-4709,23,-87,-39,34
515,-15152,-38,788,-4706,23,-87,-41,36
516,-15154,-38,756,-4702,23,-86,-39,35
517,-15188,-10,752,-4710,23,-86,-38,35
518,-15158,-12,784,-4707,23,-85,-40,34
519,-15164,-12,798,-4706,23,-85,-40,36
520,-15154,-16,782,-4710,23,-85,-38,35
521,-15156,24,776,-4708,23,-86,-38,33
522,-15160,-6,746,-4712,23,-87,-38,35
523,-15134,0,742,-4706,23,-87,-40,35
524,-15156,6,740,-4713,23,-88,-40,36
525,-15158,-14,752,-4714,23,-88,-40,36
526,-15144,-14,754,-4712,23,-87,-41,36
527,-15180,-28,760,-4714,23,-86,-40,36
528,-15170,-6,770,-4708,23,-88,-40,36
529,-15166,-16,798,-4710,23,-87,-40,34
530,-15154,-26,770,-4706,23,-87,-40,35
531,-15174,14,738,-4703,23,-85,-38,35
532,-15162,-12,762,-4704,23,-87,-39,35
533,-15146,-14,794,-4705,23,-87,-39,34
534,-15164,-20,722,-4706,23,-87,-39,35
535,-15148,0,718,-4706,23,-86,-40,34
536,-15156,-8,780,-4703,23,-87,-40,33
537,-15170,-26,762,-4708,23,-87,-39,34
538,-15168,-16,788,-4711,23,-87,-38,35
539,-15152,-34,804,-4711,23,-86,-38,34
540,-15146,-4,778,-4708,23,-87,-39,35
541,-15148,-4,714,-4711,23,-87,-40,35
542,-15182,-36,710,-4715,23,-86,-40,35
543,-15162,-26,730,-4709,23,-86,-38,34
544,-15140,-18,714,-4710,23,-87,-40,35
545,-15142,10,688,-4713,23,-87,-40,37
546,-15160,0,710,-4712,23,-87,-39,36
547,-15134,-4,760,-4708,23,-88,-39,34
548,-15162,-2,752,-4709,23,-88,-37,36
549,-15142,-14,770,-4710,23,-86,-38,34
550,-15144,-30,790,-4709,23,-88,-41,34
551,-15118,-22,784,-4712,23,-87,-41,35
552,-15174,2,754,-4710,23,-85,-38,34
553,-15138,2,778,-4710,23,-86,-38,33
554,-15114,-20,724,-4707,23,-86,-39,34
555,-15126,-14,712,-4700,23,-86,-41,36
556,-15156,0,704,-4704,23,-86,-40,36
557,-15150,-6,752,-4703,23,-85,-40,36
558,-15176,-22,728,-4703,23,-87,-38,34
559,-15164,-2,726,-4707,23,-88,-38,35
560,-15150,2,718,-4710,23,-88,-38,34
561,-15154,30,744,-4705,23,-88,-38,34
562,-15120,6,746,-4704,23,-86,-38,33
563,-15172,0,730,-4706,23,-87,-39,36
564,-15156,20,778,-4711,23,-86,-39,36
565,-15158,32,764,-4708,23,-87,-38,35
566,-15174,-12,736,-4708,23,-86,-38,34
567,-15156,-24,730,-4708,23,-86,-39,36
568,-15168,-44,762,-4707,23,-88,-39,35
569,-15180,-78,808,-4706,23,-87,-39,36
570,-15132,-12,788,-4705,23,-87,-37,35
571,-15166,-4,746,-4710,23,-90,-37,36
572,-15160,-52,766,-4707,23,-87,-40,34
573,-15186,-22,790,-4701,23,-89,-40,36
574,-15140,-38,756,-4713,23,-86,-39,35
575,-15140,-34,752,-4700,23,-88,-39,34
576,-15152,-34,730,-4701,23,-86,-39,34
577,-15162,-48,794,-4706,23,-87,-40,35
578,-15138,-50,762,-4703,23,-87,-40,35
579,-15158,-30,754,-4706,23,-89,-40,32
580,-15142,-34,778,-4708,23,-88,-38,35
581,-15152,-18,744,-4706,23,-87,-37,35
582,-15162,-22,770,-4704,23,-87,-36,33
583,-15140,-34,752,-4706,23,-87,-37,35
584,-15150,-20,754,-4705,23,-87,-38,35
585,-15162,-28,760,-4704,23,-87,-39,34
586,-15136,-26,746,-4697,23,-88,-39,35
587,-15094,-38,752,-4704,23,-88,-40,35
588,-15126,-42,746,-4702,23,-89,-39,35
589,-15176,-6,784,-4713,23,-87,-38,35
590,-15178,-24,780,-4708,23,-87,-38,36
591,-15156,-18,758,-4704,23,-88,-38,35
592,-15172,-4,764,-4706,23,-88,-39,35
593,-15160,10,722,-4705,23,-86,-39,34
594,-15162,-6,726,-4705,23,-87,-39,34
595,-15136,-12,708,-4701,23,-88,-38,35
596,-15152,-2,688,-4702,23,-89,-38,35
597,-15160,10,704,-4706,23,-87,-38,35
598,-15130,6,712,-4703,23,-88,-38,34
599,-15160,-6,706,-4704,23,-87,-38,36
600,-15138,-22,718,-4700,23,-85,-40,35
601,-15162,-42,738,-4706,23,-87,-38,35
602,-15162,-44,780,-4707,23,-85,-38,34
603,-15120,-22,802,-4696,23,-89,-37,35
604,-15166,10,780,-4697,23,-89,-38,33
605,-15154,-14,776,-4697,23,-89,-39,33
606,-15146,-24,784,-4700,23,-89,-38,35
607,-15152,-12,762,-4703,23,-88,-38,34
608,-15134,-8,746,-4701,23,-89,-37,34
609,-15118,-28,762,-4707,23,-88,-38,34
610,-15150,-36,734,-4708,23,-88,-39,35
611,-15156,4,724,-4709,23,-89,-41,36
612,-15144,-16,748,-4705,23,-88,-38,34
613,-15108,0,774,-4703,23,-87,-39,36
614,-15156,-2,780,-4700,23,-88,-37,36
615,-15126,-2,730,-4700,23,-86,-39,35
616,-15138,10,738,-4704,23,-88,-40,35
617,-15164,-12,786,-4701,23,-86,-38,34
618,-15126,-28,760,-4700,23,-87,-37,36
619,-15152,-20,780,-4698,23,-87,-37,35
620,-15150,-42,788,-4702,23,-86,-37,34
621,-15120,-38,726,-4709,23,-88,-38,34
622,-15156,-52,756,-4702,23,-88,-38,34
623,-15166,-10,812,-4704,23,-87,-39,34
624,-15170,-4,780,-4700,23,-89,-39,35
625,-15146,-4,772,-4701,23,-86,-39,34
626,-15156,-10,788,-4699,23,-87,-38,34
627,-15160,-14,784,-4703,23,-86,-37,33
628,-15144,-20,782,-4702,23,-87,-39,34
629,-15128,-26,754,-4697,23,-86,-37,35
630,-15154,-24,728,-4706,23,-87,-37,35
631,-15156,-6,772,-4708,23,-86,-38,35
632,-15158,10,814,-4705,23,-88,-38,33
633,-15154,10,752,-4706,23,-88,-37,35
634,-15132,18,760,-4705,23,-87,-36,33
635,-15176,-12,796,-4706,23,-86,-38,31
636,-15170,-24,770,-4709,23,-88,-37,35
637,-15144,0,734,-4705,23,-89,-38,34
638,-15126,4,728,-4705,23,-87,-38,35
639,-15132,-8,774,-4699,23,-86,-38,35
640,-15140,-14,788,-4701,23,-86,-38,34
641,-15172,-40,702,-4702,23,-87,-38,35
642,-15140,-32,766,-4703,23,-87,-37,35
643,-15152,-54,778,-4699,23,-87,-36,34
644,-15176,-26,766,-4701,23,-88,-37,34
645,-15178,-20,768,-4704,23,-89,-38,35
646,-15132,-22,750,-4701,23,-87,-39,33
647,-15166,-6,758,-4699,23,-86,-39,33
648,-15140,2,772,-4701,23,-87,-37,35
649,-15148,-4,746,-4695,23,-86,-40,34
650,-15132,-6,752,-4701,23,-87,-39,35
651,-15174,-40,766,-4703,23,-87,-38,35
652,-15172,-40,768,-4699,23,-85,-38,35
653,-15180,-30,732,-4701,23,-87,-38,34
654,-15168,0,762,-4693,23,-87,-37,34
655,-15160,-26,710,-4698,23,-88,-36,32
656,-15174,-30,698,-4702,23,-87,-39,33
657,-15166,-18,746,-4703,23,-87,-38,34
658,-15192,-28,776,-4700,23,-88,-39,34
659,-15192,-24,774,-4702,23,-88,-38,33
660,-15152,2,740,-4705,23,-87,-39,32
661,-15168,-4,726,-4706,23,-88,-38,34
662,-15176,-44,712,-4701,23,-88,-38,34
663,-15140,-34,712,-4709,23,-88,-39,34
664,-15160,-20,726,-4706,23,-88,-41,34
665,-15162,-32,748,-4707,23,-88,-38,35
666,-15154,-6,754,-4702,23,-87,-37,33
667,-15144,-44,738,-4703,23,-88,-39,34
668,-15154,-20,760,-4703,23,-87,-40,35
669,-15158,-34,736,-4703,23,-86,-38,34
670,-15146,-4,762,-4696,23,-88,-36,34
671,-15156,-22,736,-4700,23,-88,-36,35
672,-15176,-36,720,-4703,23,-87,-37,35
673,-15172,-2,696,-4704,23,-87,-39,35
674,-15186,-8,720,-4703,23,-87,-37,35
675,-15190,16,740,-4703,23,-88,-39,35
676,-15162,26,750,-4696,23,-86,-39,34
677,-15142,-12,780,-4699,23,-86,-37,35
678,-15158,-14,754,-4696,23,-84,-38,35
679,-15164,-28,752,-4697,23,-87,-36,34
680,-15132,-32,762,-4695,23,-87,-39,34
681,-15140,0,750,-4695,23,-89,-37,34
682,-15152,-28,746,-4692,23,-88,-37,34
683,-15182,-6,764,-4700,23,-86,-39,34
684,-15176,-18,746,-4694,23,-87,-38,36
685,-15132,-24,730,-4698,23,-87,-38,35
686,-15116,-52,760,-4696,23,-86,-38,33
687,-15128,-14,714,-4702,23,-86,-38,34
688,-15134,-8,744,-4694,23,-87,-39,34
689,-15150,10,740,-4700,23,-89,-38,34
690,-15134,-4,712,-4702,23,-89,-40,35
691,-15164,24,688,-4697,23,-90,-38,35
692,-15188,-16,714,-4693,23,-89,-38,33
693,-15182,-46,732,-4691,23,-89,-40,33
694,-15170,-26,720,-4693,23,-87,-40,34
695,-15142,4,750,-4694,23,-86,-39,34
696,-15160,14,698,-4696,23,-87,-39,33
697,-15176,-24,708,-4697,23,-89,-40,34
698,-15160,-2,740,-4697,23,-88,-37,35
699,-15154,26,742,-4703,23,-87,-38,34
700,-15136,22,750,-4701,23,-88,-39,34
701,-15152,2,738,-4701,23,-89,-39,33
702,-15132,-2,722,-4695,23,-89,-39,33
703,-15144,-4,722,-4696,23,-87,-38,33
704,-15148,-34,688,-4694,23,-87,-40,34
705,-15178,-28,750,-4701,23,-86,-39,33
706,-15162,-20,754,-4696,23,-87,-38,35
707,-15148,-28,744,-4699,23,-88,-38,35
708,-15178,-10,718,-4700,23,-87,-40,35
709,-15152,-20,724,-4697,23,-86,-39,34
710,-15130,-46,754,-4696,23,-87,-40,32
711,-15146,12,772,-4698,23,-86,-39,34
712,-15158,4,756,-4700,23,-87,-39,34
713,-15150,-14,788,-4701,23,-89,-38,34
714,-15144,-18,780,-4700,23,-88,-39,34
715,-15148,-20,760,-4700,23,-88,-40,34
716,-15134,-32,762,-4700,23,-89,-41,32
717,-15174,-6,764,-4700,23,-89,-40,32
718,-15142,-4,784,-4701,23,-87,-37,33
719,-15136,-20,792,-4700,23,-88,-37,34
720,-15136,-20,772,-4702,23,-87,-37,35
721,-15124,-18,776,-4707,23,-88,-39,35
722,-15118,-24,734,-4703,23,-88,-38,36
723,-15126,-36,802,-4697,23,-88,-39,37
724,-15134,16,768,-4696,23,-89,-37,34
725,-15138,-20,774,-4699,23,-88,-38,33
726,-15160,-38,720,-4705,23,-89,-38,34
727,-15156,-18,748,-4700,23,-89,-37,34
728,-15158,-14,706,-4700,23,-90,-40,34
729,-15170,-22,708,-4698,23,-88,-39,34
730,-15182,-6,768,-4690,23,-88,-38,36
731,-15172,-10,752,-4700,23,-88,-38,35
732,-15146,-6,748,-4698,23,-88,-38,35
733,-15128,-16,734,-4702,23,-88,-38,34
734,-15166,4,750,-4697,23,-85,-37,34
735,-15152,-12,744,-4701,23,-86,-38,34
736,-15142,-18,804,-4702,23,-88,-41,35
737,-15132,-46,752,-4698,23,-88,-39,36
738,-15148,-54,706,-4699,23,-87,-39,36
739,-15154,-46,742,-4697,23,-88,-40,34
740,-15148,-20,792,-4701,23,-86,-38,34
741,-15154,-46,764,-4701,23,-88,-37,35
742,-15146,-18,724,-4700,23,-87,-37,35
743,-15160,0,758,-4700,23,-87,-38,35
744,-15150,-18,740,-4698,23,-88,-38,34
745,-15158,-6,736,-4694,23,-88,-38,34
746,-15142,-14,728,-4697,23,-87,-40,35
747,-15148,-4,718,-4697,23,-87,-40,35
748,-15122,-24,764,-4699,23,-86,-39,36
749,-15162,-20,760,-4699,23,-86,-41,34
750,-15146,4,726,-4697,23,-87,-39,35
751,-15146,-18,718,-4698,23,-86,-39,33
752,-15136,-38,720,-4697,23,-87,-39,32
753,-15146,-10,780,-4696,23,-88,-37,34
754,-15168,-10,766,-4697,23,-86,-36,35
755,-15148,-4,712,-4696,23,-86,-37,34
756,-15128,0,746,-4698,23,-86,-39,34
757,-15136,-2,770,-4697,23,-87,-38,33
758,-15170,-16,742,-4696,23,-87,-39,35
759,-15158,-8,758,-4700,23,-87,-40,34
760,-15166,-20,758,-4696,23,-87,-39,35
761,-15164,-10,730,-4692,23,-87,-38,34
762,-15138,-30,760,-4692,23,-87,-37,35
763,-15166,-36,778,-4697,23,-88,-39,34
764,-15142,-32,812,-4697,23,-87,-40,34
765,-15146,-22,792,-4698,23,-88,-38,33
766,-15144,-28,782,-4700,23,-89,-39,35
767,-15156,-12,724,-4698,23,-88,-38,36
768,-15164,0,720,-4701,23,-89,-38,36
769,-15182,-22,718,-4697,23,-88,-38,34
770,-15158,-34,734,-4693,23,-88,-38,35
771,-15162,-18,716,-4697,23,-88,-38,36
772,-15164,-2,748,-4697,23,-88,-39,35
773,-15166,-14,734,-4696,23,-88,-36,35
774,-15166,-26,730,-4701,23,-88,-40,35
775,-15170,-18,752,-4697,23,-87,-40,35
776,-15190,-22,772,-4699,23,-84,-39,35
777,-15162,-26,824,-4699,23,-86,-41,36
778,-15178,-42,800,-4699,23,-90,-39,34
779,-15144,-16,770,-4696,23,-89,-38,35
780,-15146,-12,724,-4699,23,-89,-37,36
781,-15144,-14,752,-4694,23,-88,-36,36
782,-15152,-6,718,-4696,23,-88,-40,35
783,-15166,24,750,-4699,23,-87,-39,36
784,-15154,8,760,-4695,23,-87,-40,35
785,-15148,-28,756,-4695,23,-87,-38,33
786,-15160,-28,728,-4694,23,-87,-38,34
787,-15150,-18,766,-4698,23,-87,-39,34
788,-15182,-18,758,-4694,23,-87,-39,34
789,-15144,-14,750,-4694,23,-87,-39,33
790,-15148,-26,758,-4691,23,-87,-39,35
791,-15124,-36,732,-4692,23,-87,-37,33
792,-15104,-16,742,-4693,23,-87,-40,35
793,-15134,-18,770,-4697,23,-88,-39,34
794,-15112,24,768,-4698,23,-88,-39,35
795,-15150,-10,784,-4700,23,-86,-38,35
796,-15160,-4,754,-4696,23,-85,-39,35
797,-15142,-14,752,-4695,23,-87,-38,36
798,-15148,-8,748,-4699,23,-88,-38,35
799,-15172,0,726,-4696,23,-86,-37,35
800,-15160,-22,744,-4697,23,-87,-38,36
801,-15172,18,748,-4691,23,-87,-38,36
802,-15188,-8,772,-4693,23,-88,-38,36
803,-15158,6,754,-4694,23,-87,-38,36
804,-15162,-16,730,-4695,23,-86,-37,35
805,-15146,-10,754,-4694,23,-86,-40,34
806,-15144,-24,724,-4691,23,-87,-39,36
807,-15160,-40,778,-4695,23,-86,-38,34
808,-15126,-28,750,-4691,23,-86,-40,34
809,-15180,-16,758,-4696,23,-86,-37,33
810,-15168,-16,772,-4697,23,-86,-39,34
811,-15164,-48,752,-4699,23,-87,-38,34
812,-15158,-8,732,-4698,23,-87,-39,33
813,-15154,-2,748,-4690,23,-87,-39,34
814,-15158,-18,740,-4693,23,-87,-40,32
815,-15172,-46,752,-4692,23,-86,-39,32
816,-15170,-8,804,-4693,23,-87,-39,34
817,-15138,2,748,-4693,23,-88,-38,33
818,-15164,6,726,-4691,23,-88,-41,34
819,-15168,-14,734,-4697,23,-87,-39,34
820,-15144,-38,706,-4694,23,-86,-38,35
821,-15180,-10,772,-4687,23,-88,-37,35
822,-15154,-26,806,-4694,23,-88,-37,35
823,-15192,-38,758,-4690,23,-87,-38,35
824,-15178,-20,790,-4687,23,-87,-36,34
825,-15160,-32,792,-4693,23,-88,-39,34
826,-15154,-48,790,-4695,23,-88,-39,34
827,-15166,-26,750,-4696,23,-86,-36,34
828,-15158,-10,770,-4696,23,-87,-38,34
829,-15142,-28,700,-4693,23,-87,-39,33
830,-15164,-34,726,-4690,23,-86,-39,34
831,-15174,0,676,-4695,23,-86,-39,34
832,-15146,-2,692,-4694,23,-88,-40,34
833,-15170,-12,732,-4694,23,-87,-38,33
834,-15128,-18,734,-4689,23,-87,-38,34
835,-15128,-36,722,-4688,23,-87,-38,35
836,-15152,-44,710,-4692,23,-88,-37,33
837,-15162,-16,734,-4693,23,-87,-39,35
838,-15162,-32,784,-4692,23,-86,-40,35
839,-15156,-24,760,-4695,23,-87,-40,35
840,-15140,-30,742,-4694,23,-88,-40,35
841,-15148,-22,772,-4692,23,-87,-38,33
842,-15178,-22,772,-4686,23,-86,-40,34
843,-15134,-28,762,-4687,23,-87,-39,33
844,-15122,-26,742,-4685,23,-86,-38,34
845,-15144,-26,742,-4692,23,-86,-40,33
846,-15174,-38,704,-4685,23,-86,-40,33
847,-15192,-4,772,-4688,23,-86,-41,34
848,-15172,-38,814,-4695,23,-87,-40,34
849,-15150,-18,780,-4693,23,-88,-37,34
850,-15150,-6,718,-4693,23,-87,-38,34
851,-15174,-18,788,-4693,23,-86,-39,34
852,-15154,6,768,-4690,23,-88,-38,36
853,-15170,-38,772,-4686,23,-87,-38,35
854,-15136,-42,734,-4692,23,-88,-40,34
855,-15128,-20,702,-4692,23,-89,-38,36
856,-15144,2,742,-4688,23,-89,-38,34
857,-15160,-40,786,-4683,23,-87,-39,34
858,-15150,-14,758,-4692,23,-87,-41,34
859,-15140,4,728,-4691,23,-87,-37,35
860,-15158,-14,732,-4697,23,-87,-37,35
861,-15114,-36,716,-4695,23,-89,-38,35
862,-15104,6,744,-4690,23,-86,-39,34
863,-15180,30,746,-4693,23,-87,-39,34
864,-15170,8,728,-4688,23,-88,-40,33
865,-15156,-12,770,-4690,23,-88,-38,33
866,-15144,-14,764,-4687,23,-87,-38,35
867,-15122,-18,718,-4692,23,-87,-39,34
868,-15178,8,774,-4692,23,-88,-37,34
869,-15152,-20,768,-4694,23,-87,-39,35
870,-15174,-14,784,-4691,23,-86,-40,36
871,-15160,-16,812,-4688,23,-88,-40,35
872,-15160,14,780,-4694,23,-87,-39,34
873,-15164,-4,778,-4696,23,-88,-38,35
874,-15172,-12,748,-4692,23,-87,-38,34
875,-15160,-4,732,-4691,23,-87,-39,35
876,-15154,26,764,-4689,23,-87,-37,35
877,-15144,-6,762,-4691,23,-87,-38,36
878,-15138,8,802,-4691,23,-87,-38,33
879,-15158,-18,752,-4688,23,-88,-37,34
880,-15148,-24,726,-4685,23,-88,-37,35
881,-15122,-26,774,-4690,23,-87,-36,35
882,-15154,-22,714,-4694,23,-86,-38,34
883,-15150,0,742,-4695,23,-86,-38,34
884,-15140,-36,702,-4692,23,-86,-39,34
885,-15146,-8,716,-4691,23,-87,-39,33
886,-15130,-32,718,-4694,23,-87,-37,34
887,-15164,-56,730,-4687,23,-86,-39,35
888,-15134,-26,786,-4687,23,-87,-38,34
889,-15128,-8,746,-4689,23,-86,-38,34
890,-15136,-12,746,-4694,23,-86,-39,35
891,-15138,-26,750,-4692,23,-86,-38,34
892,-15142,-6,756,-4691,23,-88,-38,35
893,-15144,-4,738,-4690,23,-88,-39,36
894,-15156,-22,746,-4687,23,-88,-37,35
895,-15170,-14,730,-4689,23,-88,-35,36
896,-15168,22,776,-4688,23,-87,-38,36
897,-15178,8,732,-4690,23,-88,-40,34
898,-15160,-2,732,-4691,23,-89,-40,35
899,-15148,-20,736,-4691,23,-87,-40,35
900,-15170,0,728,-4690,23,-87,-38,34
901,-15168,-8,740,-4690,23,-88,-40,34
902,-15156,6,758,-4689,23,-88,-37,33
903,-15174,0,752,-4687,23,-88,-37,35
904,-15208,-8,760,-4689,23,-88,-40,34
905,-15158,-22,770,-4690,23,-88,-40,33
906,-15158,-20,740,-4686,23,-87,-38,34
907,-15174,-24,742,-4689,23,-87,-37,34
908,-15142,-40,790,-4691,23,-88,-39,34
909,-15162,-20,774,-4688,23,-88,-38,34
910,-15134,-2,762,-4691,23,-87,-40,34
911,-15152,20,734,-4687,23,-89,-39,34
912,-15144,-2,736,-4686,23,-88,-38,35
913,-15116,-18,762,-4691,23,-88,-37,36
914,-15148,-8,742,-4693,23,-87,-38,35
915,-15144,-14,780,-4691,23,-88,-37,35
916,-15172,12,724,-4690,23,-86,-39,35
917,-15128,10,712,-4689,23,-87,-38,36
918,-15178,20,686,-4691,23,-86,-38,35
919,-15154,-14,734,-4688,23,-86,-38,35
920,-15158,8,720,-4687,23,-88,-40,36
921,-15168,2,748,-4682,23,-89,-40,37
922,-15158,-4,720,-4685,23,-87,-38,36
923,-15144,-14,732,-4681,23,-88,-37,35
924,-15122,-26,764,-4686,23,-88,-38,34
925,-15168,-6,778,-4690,23,-89,-39,35
926,-15128,-16,788,-4685,23,-88,-37,33
927,-15148,-12,790,-4690,23,-89,-38,35
928,-15166,-30,754,-4695,23,-90,-39,34
929,-15144,-20,748,-4684,23,-87,-39,35
930,-15148,14,746,-4687,23,-88,-37,36
931,-15146,-4,750,-4687,23,-86,-37,37
932,-15128,-12,734,-4687,23,-87,-37,37
933,-15140,-28,724,-4690,23,-87,-40,36
934,-15146,-16,750,-4690,23,-87,-38,35
935,-15152,-22,788,-4691,23,-88,-38,34
936,-15148,-18,766,-4694,23,-88,-37,34
937,-15142,-20,718,-4691,23,-87,-38,34
938,-15132,-4,758,-4691,23,-87,-39,33
939,-15146,-12,752,-4691,23,-87,-38,34
940,-15138,-16,746,-4688,23,-85,-38,33
941,-15140,6,760,-4683,23,-87,-38,33
942,-15156,-34,734,-4683,23,-86,-39,35
943,-15160,-16,712,-4684,23,-86,-39,34
944,-15180,-8,694,-4687,23,-87,-39,34
945,-15138,-46,712,-4687,23,-88,-39,33
946,-15140,-36,800,-4682,23,-89,-37,34
947,-15130,-36,710,-4690,23,-88,-37,34
948,-15136,8,702,-4688,23,-88,-36,34
949,-15152,-10,714,-4686,23,-89,-37,34
950,-15158,-16,702,-4683,23,-87,-39,35
951,-15158,-28,694,-4687,23,-87,-40,35
952,-15166,-20,764,-4694,23,-87,-40,34
953,-15150,-36,712,-4691,23,-88,-39,36
954,-15140,-28,790,-4690,23,-87,-40,37
955,-15148,-14,762,-4684,23,-87,-39,34
956,-15152,-32,746,-4681,23,-85,-38,35
957,-15146,-32,730,-4684,23,-87,-38,36
958,-15128,-18,758,-4688,23,-87,-37,36
959,-15140,-32,760,-4691,23,-87,-37,35
960,-15156,16,728,-4687,23,-87,-37,34
961,-15130,-8,766,-4687,23,-86,-37,35
962,-15142,-12,732,-4686,23,-87,-38,34
963,-15140,-6,740,-4694,23,-86,-39,34
964,-15156,18,810,-4692,23,-86,-39,33
965,-15150,-2,782,-4686,23,-89,-37,35
966,-15170,-16,754,-4682,23,-87,-36,34
967,-15172,-18,744,-4686,23,-86,-39,35
968,-15178,-16,750,-4687,23,-87,-40,34
969,-15168,-18,758,-4686,23,-85,-38,33
970,-15144,0,790,-4691,23,-86,-39,33
971,-15150,-26,756,-4687,23,-88,-39,34
972,-15140,-32,756,-4686,23,-86,-40,35
973,-15124,-22,780,-4684,23,-86,-40,34
974,-15164,-24,738,-4680,23,-86,-40,36
975,-15128,-6,784,-4685,23,-86,-38,33
976,-15142,10,812,-4682,23,-86,-39,34
977,-15152,-10,754,-4689,23,-88,-40,33
978,-15172,-14,722,-4688,23,-87,-39,35
979,-15154,-8,690,-4686,23,-87,-38,36
980,-15162,-20,766,-4686,23,-87,-40,34
981,-15156,12,772,-4685,23,-86,-40,36
982,-15174,-4,728,-4684,23,-88,-39,36
983,-15146,-8,708,-4681,23,-89,-38,36
984,-15156,-8,726,-4681,23,-89,-39,35
985,-15122,-14,774,-4679,23,-88,-40,35
986,-15150,-14,738,-4683,23,-88,-39,33
987,-15172,-16,748,-4683,23,-87,-40,34
988,-15150,12,760,-4684,23,-87,-38,36
989,-15132,12,758,-4689,23,-89,-38,35
990,-15166,8,754,-4686,23,-89,-37,35
991,-15146,-18,766,-4687,23,-87,-38,33
992,-15162,-16,780,-4690,23,-87,-38,33
993,-15152,-18,738,-4684,23,-87,-37,35
994,-15146,-14,766,-4686,23,-87,-37,35
995,-15140,-6,726,-4687,23,-87,-38,34
