,acc_X,acc_Y,acc_Z,temp,tempC,gyr_X,gyr_Y,gyr_Z
0,-3788,-3,190,-4801,22,-173,-77,69
1,-3784,-2,192,-4802,22,-173,-76,68
2,-3787,-5,190,-4803,22,-173,-75,68
3,-3788,-5,184,-4802,22,-174,-76,68
4,-3789,-5,183,-4802,22,-174,-76,70
5,-3790,-5,181,-4802,22,-173,-77,69
6,-3791,-5,184,-4802,22,-174,-76,69
7,-3790,-6,184,-4801,22,-175,-75,69
8,-3790,-5,179,-4799,22,-174,-77,69
9,-3790,-4,183,-4800,22,-174,-77,68
10,-3791,-4,184,-4801,22,-175,-77,67
11,-3790,-3,186,-4800,22,-175,-77,67
12,-3792,-2,189,-4799,22,-175,-77,68
13,-3790,-2,188,-4800,22,-175,-77,68
14,-3791,-3,189,-4799,22,-174,-79,68
15,-3790,-2,188,-4798,22,-174,-78,68
16,-3787,-5,185,-4797,22,-174,-77,69
17,-3789,-5,182,-4796,22,-174,-77,69
18,-3788,-6,182,-4797,22,-172,-77,69
19,-3791,-6,182,-4799,22,-173,-77,68
20,-3789,-6,182,-4800,22,-172,-77,69
21,-3790,-3,183,-4799,22,-172,-76,68
22,-3789,-4,183,-4800,22,-173,-76,68
23,-3790,-3,179,-4802,22,-173,-77,68
24,-3790,-3,180,-4803,22,-174,-78,68
25,-3791,-3,186,-4802,22,-174,-76,69
26,-3790,-1,189,-4802,22,-175,-77,69
27,-3789,0,186,-4801,22,-174,-77,69
28,-3788,-3,188,-4799,22,-173,-77,69
29,-3789,-3,187,-4800,22,-174,-78,69
30,-3786,-4,188,-4800,22,-174,-77,69
31,-3789,-4,186,-4801,22,-174,-77,67
32,-3788,-6,186,-4801,22,-175,-76,67
33,-3790,-4,184,-4800,22,-175,-75,67
34,-3790,-6,188,-4799,22,-174,-76,69
35,-3789,-4,183,-4800,22,-175,-76,69
36,-3790,-4,180,-4800,22,-174,-76,68
37,-3789,-3,181,-4798,22,-174,-76,68
38,-3788,0,185,-4798,22,-175,-78,68
39,-3787,-5,186,-4797,22,-175,-79,69
40,-3787,-4,182,-4798,22,-175,-78,70
41,-3789,-3,181,-4798,22,-174,-78,70
42,-3790,-2,179,-4800,22,-175,-78,70
43,-3791,-3,182,-4800,22,-176,-77,68
44,-3791,-5,184,-4800,22,-176,-76,69
45,-3792,-6,186,-4800,22,-175,-76,68
46,-3790,-4,183,-4801,22,-174,-77,68
47,-3790,-2,184,-4801,22,-173,-77,68
48,-3788,-2,183,-4802,22,-174,-76,67
49,-3788,-1,182,-4799,22,-174,-77,67
50,-3789,-2,181,-4799,22,-173,-78,67
51,-3789,-4,179,-4800,22,-173,-78,67
52,-3789,-3,178,-4800,22,-173,-79,68
53,-3789,-2,182,-4799,22,-173,-78,67
54,-3788,-4,185,-4800,22,-172,-77,68
55,-3783,-1,184,-4799,22,-172,-77,69
56,-3784,-3,181,-4801,22,-172,-78,69
57,-3784,-3,182,-4804,22,-172,-78,69
58,-3784,-4,179,-4806,22,-173,-78,69
59,-3784,-2,183,-4804,22,-172,-78,69
60,-3785,-4,184,-4804,22,-171,-76,68
61,-3785,-4,185,-4803,22,-172,-76,68
62,-3787,-5,182,-4803,22,-172,-76,68
63,-3789,-3,181,-4803,22,-173,-77,68
64,-3787,-1,180,-4803,22,-174,-78,68
65,-3788,2,181,-4803,22,-173,-78,68
66,-3788,2,184,-4803,22,-174,-78,68
67,-3788,0,185,-4804,22,-175,-78,67
68,-3789,-3,186,-4803,22,-175,-79,67
69,-3787,-2,186,-4804,22,-175,-80,68
70,-3785,-1,187,-4804,22,-174,-79,67
71,-3785,1,185,-4803,22,-173,-78,66
72,-3786,3,186,-4805,22,-174,-78,67
73,-3787,1,185,-4805,22,-174,-77,67
74,-3787,-1,183,-4805,22,-173,-76,68
75,-3784,-2,184,-4805,22,-173,-77,68
76,-3785,-1,185,-4805,22,-173,-79,70
77,-3790,0,184,-4805,22,-174,-78,72
78,-3790,-1,184,-4805,22,-174,-78,71
79,-3790,-1,184,-4803,22,-174,-79,71
80,-3790,-2,189,-4802,22,-174,-79,70
81,-3791,-1,188,-4800,22,-174,-78,70
82,-3789,-1,186,-4801,22,-174,-77,70
83,-3788,-3,185,-4802,22,-174,-76,69
84,-3790,-2,185,-4803,22,-174,-75,69
85,-3791,-3,183,-4804,22,-173,-76,70
86,-3793,1,184,-4803,22,-173,-75,69
87,-3793,1,187,-4803,22,-174,-76,68
88,-3793,-2,185,-4804,22,-174,-77,69
89,-3788,-2,186,-4803,22,-174,-76,69
90,-3791,-2,185,-4801,22,-174,-76,68
91,-3790,-4,186,-4802,22,-173,-75,68
92,-3788,-3,183,-4803,22,-174,-74,67
93,-3790,-3,185,-4804,22,-174,-74,68
94,-3790,-5,185,-4802,22,-174,-75,69
95,-3791,-2,185,-4802,22,-173,-75,69
96,-3790,-1,182,-4802,22,-173,-74,70
97,-3790,-1,183,-4801,22,-172,-74,70
98,-3788,0,183,-4799,22,-172,-74,70
99,-3788,-3,183,-4799,22,-174,-76,69
100,-3789,-4,184,-4801,22,-173,-76,70
101,-3787,-6,189,-4801,22,-174,-77,70
102,-3786,-2,185,-4801,22,-173,-77,69
103,-3787,-1,181,-4800,22,-173,-78,69
104,-3787,-5,184,-4800,22,-172,-78,69
105,-3787,-3,182,-4801,22,-173,-78,68
106,-3786,0,187,-4800,22,-175,-78,68
107,-3784,0,184,-4802,22,-175,-78,68
108,-3785,-1,183,-4800,22,-174,-78,68
109,-3788,-1,181,-4799,22,-174,-77,68
110,-3787,-3,183,-4798,22,-174,-79,68
111,-3789,-4,181,-4799,22,-174,-79,68
112,-3787,-2,181,-4799,22,-175,-77,69
113,-3784,-5,179,-4799,22,-174,-76,69
114,-3786,-3,181,-4799,22,-174,-76,69
115,-3788,-5,183,-4798,22,-176,-76,69
116,-3787,-3,184,-4799,22,-176,-77,69
117,-3787,-2,185,-4797,22,-174,-77,70
118,-3787,-2,187,-4800,22,-174,-77,69
119,-3786,-3,189,-4798,22,-173,-76,69
120,-3786,-2,191,-4797,22,-173,-76,68
121,-3786,-3,192,-4799,22,-174,-75,69
122,-3785,-3,193,-4798,22,-173,-76,68
123,-3787,-4,194,-4796,22,-174,-77,68
124,-3788,-4,191,-4798,22,-173,-78,69
125,-3789,-5,187,-4798,22,-173,-79,69
126,-3787,-4,187,-4800,22,-173,-78,69
127,-3786,-1,186,-4800,22,-173,-78,69
128,-3785,-1,181,-4801,22,-172,-78,68
129,-3788,-2,182,-4801,22,-173,-78,68
130,-3788,-2,182,-4801,22,-173,-77,67
131,-3788,-1,183,-4802,22,-173,-77,68
132,-3788,0,183,-4801,22,-174,-77,68
133,-3788,1,184,-4801,22,-174,-78,69
134,-3788,0,185,-4799,22,-173,-79,68
135,-3787,-3,188,-4799,22,-174,-78,67
136,-3786,-3,188,-4799,22,-174,-77,68
137,-3785,-3,185,-4798,22,-173,-76,69
138,-3786,-2,185,-4799,22,-174,-76,68
139,-3788,0,188,-4798,22,-174,-77,69
140,-3789,-2,185,-4798,22,-174,-77,70
141,-3786,-3,188,-4799,22,-174,-78,69
142,-3787,-1,186,-4800,22,-173,-78,69
143,-3789,-3,185,-4799,22,-174,-76,69
144,-3789,-6,187,-4799,22,-175,-76,67
145,-3787,-6,188,-4801,22,-174,-77,68
146,-3789,-5,187,-4800,22,-174,-76,68
147,-3788,-6,184,-4799,22,-174,-77,68
148,-3790,-5,187,-4799,22,-174,-78,69
149,-3790,-4,186,-4800,22,-174,-78,68
150,-3789,-5,193,-4800,22,-174,-77,68
151,-3788,-6,190,-4799,22,-174,-76,68
152,-3788,-6,189,-4798,22,-174,-76,68
153,-3789,-4,190,-4799,22,-174,-75,68
154,-3788,-4,190,-4798,22,-174,-76,69
155,-3789,-4,189,-4799,22,-174,-76,69
156,-3788,-2,192,-4797,22,-174,-77,70
157,-3787,-2,190,-4797,22,-173,-76,68
158,-3789,-2,189,-4797,22,-174,-77,70
159,-3791,-2,187,-4796,22,-174,-78,70
160,-3789,-2,184,-4795,22,-172,-77,70
161,-3788,-2,186,-4796,22,-172,-78,70
162,-3790,-3,186,-4799,22,-172,-77,70
163,-3789,-4,181,-4798,22,-174,-76,70
164,-3789,-3,181,-4798,22,-174,-76,70
165,-3790,-2,185,-4799,22,-173,-76,70
166,-3789,-2,186,-4797,22,-173,-77,70
167,-3787,0,190,-4798,22,-174,-76,69
168,-3787,-1,189,-4798,22,-174,-76,68
169,-3788,0,189,-4797,22,-173,-77,68
170,-3787,0,183,-4797,22,-173,-76,68
171,-3785,0,182,-4797,22,-172,-76,68
172,-3787,-1,183,-4796,22,-172,-76,68
173,-3788,-3,184,-4797,22,-172,-76,69
174,-3788,-1,183,-4797,22,-171,-76,69
175,-3788,0,181,-4797,22,-172,-77,69
176,-3786,-3,183,-4795,22,-173,-77,68
177,-3788,-4,187,-4797,22,-173,-76,69
178,-3788,-3,184,-4797,22,-173,-77,68
179,-3788,-3,185,-4798,22,-173,-77,69
180,-3788,-4,185,-4797,22,-173,-77,68
181,-3788,-4,186,-4797,22,-174,-77,68
182,-3788,-4,182,-4796,22,-174,-76,68
183,-3787,-4,184,-4797,22,-173,-76,68
184,-3784,-4,186,-4798,22,-173,-77,67
185,-3785,-2,184,-4797,22,-173,-77,68
186,-3785,-2,181,-4797,22,-173,-78,69
187,-3786,-5,183,-4799,22,-174,-77,69
188,-3787,-5,187,-4797,22,-174,-77,69
189,-3789,-6,188,-4796,22,-174,-77,69
190,-3790,-6,192,-4797,22,-174,-76,69
191,-3787,-5,190,-4797,22,-174,-75,70
192,-3787,-5,189,-4797,22,-174,-76,69
193,-3788,-5,188,-4796,22,-172,-77,69
194,-3786,-3,188,-4796,22,-172,-78,70
195,-3784,-2,187,-4797,22,-172,-78,70
196,-3788,-2,183,-4798,22,-172,-77,69
197,-3788,-1,184,-4798,22,-173,-77,68
198,-3788,0,180,-4797,22,-173,-76,68
199,-3789,-1,182,-4797,22,-174,-76,67
200,-3788,0,182,-4796,22,-174,-75,69
201,-3790,-1,181,-4795,22,-174,-75,70
202,-3786,1,182,-4795,22,-174,-76,69
203,-3788,1,187,-4795,22,-174,-75,69
204,-3790,1,190,-4796,22,-174,-76,69
205,-3793,0,188,-4796,22,-173,-75,69
206,-3792,-1,188,-4793,22,-174,-75,68
207,-3790,-3,191,-4794,22,-174,-76,69
208,-3792,-4,185,-4795,22,-174,-77,69
209,-3791,-6,184,-4794,22,-175,-76,69
210,-3789,-2,186,-4797,22,-175,-76,69
211,-3791,-1,188,-4797,22,-173,-76,68
212,-3788,-3,187,-4798,22,-173,-76,67
213,-3788,-3,186,-4796,22,-173,-76,67
214,-3791,-2,186,-4794,22,-173,-75,68
215,-3791,-1,186,-4795,22,-174,-75,69
216,-3791,-3,187,-4797,22,-173,-76,68
217,-3790,-4,187,-4796,22,-173,-75,68
218,-3790,-4,185,-4797,22,-173,-75,68
219,-3792,-5,183,-4795,22,-173,-74,69
220,-3791,-4,183,-4796,22,-173,-75,70
221,-3789,-5,186,-4795,22,-174,-76,70
222,-3789,-6,184,-4795,22,-174,-77,71
223,-3789,-5,186,-4796,22,-174,-77,71
224,-3789,-4,188,-4796,22,-174,-78,70
225,-3786,-4,186,-4796,22,-174,-78,71
226,-3787,-4,186,-4797,22,-174,-78,70
227,-3786,-4,189,-4799,22,-174,-78,70
228,-3788,-2,186,-4800,22,-174,-78,70
229,-3788,-3,188,-4798,22,-173,-77,69
230,-3787,-4,188,-4798,22,-173,-77,68
231,-3790,-3,188,-4799,22,-172,-77,68
232,-3791,-2,189,-4797,22,-172,-76,68
233,-3788,-3,185,-4795,22,-173,-76,69
234,-3788,-5,187,-4796,22,-173,-76,69
235,-3789,-5,188,-4796,22,-173,-75,68
236,-3790,-3,189,-4795,22,-175,-76,69
237,-3790,-4,185,-4796,22,-175,-75,69
238,-3789,-4,184,-4796,22,-175,-75,70
239,-3791,-3,180,-4797,22,-174,-77,69
240,-3789,-5,180,-4798,22,-174,-76,69
241,-3790,-4,180,-4798,22,-173,-77,68
242,-3786,-5,181,-4797,22,-174,-77,68
243,-3786,-3,182,-4796,22,-173,-77,70
244,-3786,-4,184,-4796,22,-173,-77,69
245,-3786,-5,184,-4796,22,-174,-77,69
246,-3787,-6,185,-4794,22,-175,-78,68
247,-3789,-5,185,-4794,22,-174,-78,69
248,-3788,-4,185,-4795,22,-173,-78,68
249,-3788,-3,189,-4796,22,-174,-78,68
250,-3789,-1,188,-4796,22,-174,-77,69
251,-3790,-2,188,-4793,22,-174,-77,69
252,-3790,-5,190,-4792,22,-173,-77,68
253,-3790,-6,189,-4792,22,-174,-77,68
254,-3790,-5,191,-4795,22,-173,-78,69
255,-3790,-5,185,-4795,22,-173,-79,69
256,-3790,-4,185,-4795,22,-173,-77,69
257,-3793,-3,186,-4795,22,-173,-76,69
258,-3794,-1,184,-4794,22,-174,-76,70
259,-3794,-1,186,-4795,22,-173,-76,69
260,-3794,-3,186,-4796,22,-172,-77,69
261,-3793,-3,187,-4795,22,-173,-76,69
262,-3794,-3,189,-4794,22,-175,-77,68
263,-3791,-4,187,-4795,22,-174,-77,68
264,-3791,-2,186,-4796,22,-175,-77,68
265,-3788,-2,186,-4796,22,-174,-77,69
266,-3786,-1,185,-4796,22,-174,-77,68
267,-3787,-3,183,-4793,22,-173,-77,69
268,-3785,-1,186,-4793,22,-174,-78,69
269,-3783,-2,188,-4793,22,-173,-78,69
270,-3785,-3,189,-4791,22,-172,-77,68
271,-3786,-4,188,-4793,22,-173,-77,69
272,-3787,-3,187,-4792,22,-173,-77,69
273,-3787,-2,188,-4794,22,-173,-75,70
274,-3788,-2,187,-4791,22,-173,-75,69
275,-3790,-1,190,-4791,22,-173,-76,70
276,-3790,-2,189,-4792,22,-174,-76,70
277,-3790,-1,190,-4793,22,-175,-77,69
278,-3790,-1,190,-4793,22,-175,-76,68
279,-3790,-2,188,-4793,22,-174,-77,68
280,-3789,0,186,-4792,22,-176,-77,68
281,-3791,-1,184,-4792,22,-177,-77,70
282,-3791,-3,186,-4792,22,-175,-78,69
283,-3792,-2,187,-4793,22,-175,-78,69
284,-3790,-3,185,-4794,22,-174,-78,70
285,-3792,-5,185,-4795,22,-173,-78,69
286,-3791,-4,189,-4793,22,-173,-78,70
287,-3788,-4,187,-4792,22,-173,-79,69
288,-3789,-3,185,-4794,22,-173,-78,68
289,-3789,-3,185,-4794,22,-174,-78,69
290,-3789,-3,183,-4794,22,-175,-78,69
291,-3789,-3,184,-4793,22,-175,-78,68
292,-3790,-4,183,-4792,22,-174,-77,68
293,-3790,-6,179,-4793,22,-174,-78,69
294,-3790,-3,182,-4792,22,-175,-78,69
295,-3789,-4,183,-4791,22,-175,-80,70
296,-3787,-6,187,-4793,22,-174,-79,70
297,-3786,-8,188,-4794,22,-175,-79,69
298,-3786,-8,184,-4794,22,-174,-78,68
299,-3786,-7,185,-4795,22,-174,-78,68
300,-3787,-9,185,-4793,22,-174,-78,68
301,-3783,-6,182,-4794,22,-174,-78,69
302,-3784,-6,184,-4795,22,-174,-79,68
303,-3786,-4,182,-4795,22,-174,-79,68
304,-3786,-3,181,-4792,22,-174,-79,69
305,-3789,-3,177,-4792,22,-174,-77,69
306,-3789,-2,180,-4792,22,-174,-78,69
307,-3791,-1,183,-4792,22,-173,-78,69
308,-3792,1,183,-4791,22,-175,-77,69
309,-3791,0,182,-4790,22,-174,-77,69
310,-3790,0,187,-4791,22,-175,-77,70
311,-3791,-2,187,-4791,22,-174,-77,70
312,-3788,-1,185,-4793,22,-174,-78,70
313,-3786,0,188,-4793,22,-173,-78,70
314,-3785,-2,191,-4793,22,-173,-77,70
315,-3786,-3,188,-4793,22,-174,-77,69
316,-3785,-3,188,-4793,22,-173,-77,68
317,-3785,-2,187,-4793,22,-174,-78,68
318,-3785,-3,187,-4794,22,-174,-78,68
319,-3786,-2,190,-4794,22,-174,-77,68
320,-3786,-5,191,-4794,22,-174,-77,68
321,-3789,-5,192,-4794,22,-173,-77,69
322,-3789,-5,190,-4792,22,-174,-79,69
323,-3789,-4,189,-4793,22,-174,-77,69
324,-3791,-4,189,-4793,22,-174,-77,68
325,-3786,-4,189,-4793,22,-173,-76,68
326,-3784,-5,190,-4794,22,-174,-76,69
327,-3784,-7,190,-4793,22,-175,-76,68
328,-3785,-6,185,-4792,22,-174,-76,68
329,-3785,-5,183,-4794,22,-173,-76,67
330,-3786,-3,185,-4792,22,-173,-77,68
331,-3791,-1,186,-4790,22,-173,-76,68
332,-3790,-1,184,-4791,22,-173,-76,67
333,-3790,-2,183,-4791,22,-174,-78,68
334,-3789,-2,181,-4793,22,-174,-78,67
335,-3789,-3,180,-4793,22,-175,-78,68
336,-3789,-1,182,-4794,22,-174,-76,69
337,-3786,-1,185,-4793,22,-175,-76,68
338,-3785,-2,182,-4793,22,-175,-76,68
339,-3788,-3,185,-4793,22,-174,-77,69
340,-3785,-5,187,-4793,22,-174,-78,69
341,-3785,-5,188,-4794,22,-174,-77,68
342,-3787,-4,187,-4795,22,-174,-76,69
343,-3787,-5,189,-4793,22,-173,-76,69
344,-3787,-3,188,-4792,22,-173,-77,68
345,-3789,-1,184,-4793,22,-174,-78,68
346,-3790,-1,188,-4793,22,-174,-77,67
347,-3787,0,185,-4794,22,-174,-78,68
348,-3787,-1,185,-4793,22,-174,-78,68
349,-3789,-2,188,-4794,22,-174,-78,69
350,-3787,-1,188,-4795,22,-173,-78,69
351,-3787,2,187,-4793,22,-172,-78,70
352,-3786,-1,184,-4794,22,-173,-77,69
353,-3786,-3,186,-4794,22,-173,-77,69
354,-3789,-5,188,-4793,22,-174,-77,70
355,-3789,-6,185,-4794,22,-173,-76,69
356,-3788,-6,185,-4793,22,-173,-78,69
357,-3788,-5,182,-4794,22,-172,-78,69
358,-3788,-5,182,-4794,22,-172,-78,69
359,-3788,-6,184,-4794,22,-172,-77,69
360,-3790,-5,184,-4793,22,-172,-78,69
361,-3790,-4,185,-4795,22,-172,-78,68
362,-3789,-4,187,-4795,22,-174,-77,69
363,-3788,-4,188,-4795,22,-174,-77,69
364,-3790,-1,187,-4795,22,-174,-77,68
365,-3789,-1,185,-4795,22,-174,-77,69
366,-3788,-3,186,-4795,22,-174,-78,69
367,-3788,-3,187,-4794,22,-174,-77,69
368,-3788,-5,185,-4794,22,-175,-78,69
369,-3788,-5,187,-4794,22,-175,-77,71
370,-3790,-5,186,-4794,22,-175,-76,70
371,-3788,-3,189,-4794,22,-175,-76,69
372,-3788,-3,186,-4793,22,-175,-75,70
373,-3788,-3,185,-4792,22,-175,-76,70
374,-3785,-5,182,-4791,22,-175,-76,69
375,-3784,-6,182,-4791,22,-175,-78,69
376,-3783,-3,181,-4792,22,-173,-77,69
377,-3786,-5,180,-4793,22,-173,-77,70
378,-3786,-4,183,-4793,22,-172,-77,69
379,-3787,-8,181,-4794,22,-173,-77,68
380,-3787,-9,180,-4793,22,-173,-78,67
381,-3788,-8,179,-4792,22,-173,-77,67
382,-3788,-8,177,-4791,22,-173,-76,67
383,-3788,-8,177,-4792,22,-173,-76,66
384,-3788,-9,176,-4794,22,-174,-76,67
385,-3790,-7,181,-4796,22,-173,-77,68
386,-3789,-5,182,-4795,22,-174,-78,67
387,-3788,-5,181,-4795,22,-174,-78,68
388,-3788,-6,182,-4795,22,-174,-78,69
389,-3788,-4,181,-4794,22,-174,-79,69
390,-3786,-5,183,-4793,22,-174,-78,70
391,-3786,-5,181,-4793,22,-174,-78,69
392,-3788,-5,183,-4794,22,-174,-78,68
393,-3787,-6,185,-4795,22,-174,-78,67
394,-3786,-5,187,-4792,22,-173,-77,68
395,-3785,-3,188,-4793,22,-174,-75,69
396,-3786,1,188,-4794,22,-175,-76,68
397,-3787,0,191,-4793,22,-175,-76,68
398,-3788,-3,187,-4794,22,-175,-77,70
399,-3790,-2,186,-4794,22,-175,-77,70
400,-3788,-2,185,-4797,22,-175,-77,70
401,-3787,-4,189,-4795,22,-175,-77,70
402,-3787,-4,187,-4794,22,-175,-79,71
403,-3787,-3,190,-4794,22,-174,-79,71
404,-3787,-5,186,-4794,22,-174,-77,70
405,-3789,-4,185,-4792,22,-174,-77,70
406,-3791,-7,184,-4792,22,-174,-77,70
407,-3792,-10,185,-4792,22,-173,-78,69
408,-3792,-9,189,-4794,22,-174,-77,69
409,-3792,-7,186,-4793,22,-174,-77,70
410,-3790,-5,189,-4794,22,-175,-78,69
411,-3790,-5,187,-4795,22,-175,-77,69
412,-3788,-4,186,-4795,22,-176,-76,69
413,-3788,-6,185,-4794,22,-175,-77,70
414,-3787,-6,184,-4795,22,-175,-75,69
415,-3788,-6,182,-4793,22,-175,-75,69
416,-3788,-7,182,-4793,22,-174,-75,69
417,-3787,-3,183,-4791,22,-173,-74,69
418,-3787,-4,186,-4791,22,-173,-74,69
419,-3787,-3,185,-4790,22,-172,-75,69
420,-3784,-4,189,-4789,22,-173,-76,68
421,-3785,-3,188,-4791,22,-175,-77,69
422,-3786,-4,185,-4791,22,-175,-77,68
423,-3787,-2,185,-4792,22,-175,-76,69
424,-3788,-4,187,-4794,22,-174,-77,70
425,-3789,-4,186,-4793,22,-174,-77,71
426,-3793,-3,184,-4794,22,-174,-78,70
427,-3790,-4,185,-4794,22,-174,-78,70
428,-3792,-6,185,-4795,22,-174,-77,69
429,-3793,-5,186,-4796,22,-174,-77,70
430,-3794,-8,184,-4796,22,-173,-77,70
431,-3793,-6,187,-4794,22,-173,-77,68
432,-3792,-4,188,-4794,22,-172,-76,68
433,-3794,-4,185,-4793,22,-173,-76,69
434,-3794,-5,182,-4793,22,-174,-77,69
435,-3792,-5,179,-4793,22,-173,-77,70
436,-3791,-3,179,-4793,22,-173,-78,69
437,-3792,-6,176,-4793,22,-173,-79,69
438,-3789,-4,176,-4792,22,-173,-77,69
439,-3790,-4,179,-4792,22,-174,-76,69
440,-3790,-2,184,-4792,22,-175,-76,69
441,-3790,0,182,-4794,22,-174,-75,70
442,-3788,-1,181,-4794,22,-174,-76,70
443,-3791,-2,182,-4794,22,-175,-78,69
444,-3792,-2,181,-4796,22,-174,-78,69
445,-3789,-4,180,-4797,22,-174,-78,69
446,-3788,-4,179,-4795,22,-174,-76,69
447,-3790,-2,182,-4796,22,-175,-76,69
448,-3788,-2,183,-4794,22,-173,-77,70
449,-3787,-5,182,-4792,22,-174,-76,70
450,-3788,-6,188,-4793,22,-175,-76,70
451,-3790,-4,189,-4794,22,-174,-76,70
452,-3790,-4,191,-4791,22,-174,-77,69
453,-3790,-6,187,-4790,22,-173,-78,69
454,-3793,-5,187,-4791,22,-174,-78,68
455,-3791,-5,186,-4790,22,-175,-78,68
456,-3791,-4,187,-4792,22,-175,-78,67
457,-3791,-5,188,-4791,22,-175,-78,67
458,-3789,-5,189,-4793,22,-173,-77,67
459,-3789,-7,191,-4791,22,-173,-78,67
460,-3789,-7,192,-4789,22,-172,-77,68
461,-3790,-6,191,-4791,22,-173,-77,68
462,-3790,-5,191,-4790,22,-173,-77,68
463,-3790,-5,192,-4790,22,-174,-76,69
464,-3789,-2,190,-4791,22,-174,-77,69
465,-3789,-1,186,-4791,22,-175,-75,69
466,-3790,1,185,-4792,22,-174,-76,69
467,-3790,-1,183,-4793,22,-173,-76,69
468,-3789,-2,185,-4792,22,-173,-76,70
469,-3790,-2,186,-4791,22,-175,-76,68
470,-3792,-1,182,-4792,22,-174,-76,69
471,-3790,-1,186,-4792,22,-174,-77,68
472,-3791,0,189,-4792,22,-173,-77,69
473,-3791,-2,191,-4792,22,-174,-76,68
474,-3792,-2,187,-4791,22,-174,-77,68
475,-3790,-3,187,-4792,22,-174,-78,69
476,-3791,-4,186,-4793,22,-172,-78,69
477,-3788,-3,183,-4792,22,-173,-77,69
478,-3786,-4,182,-4791,22,-173,-77,68
479,-3787,-5,185,-4787,22,-173,-78,69
480,-3788,-4,189,-4786,22,-174,-78,70
481,-3789,-4,190,-4789,22,-173,-78,69
482,-3788,-2,189,-4787,22,-174,-79,68
483,-3788,-2,188,-4786,22,-173,-79,69
484,-3787,-4,188,-4788,22,-173,-79,69
485,-3788,-4,189,-4789,22,-174,-78,69
486,-3787,-4,192,-4789,22,-173,-78,68
487,-3786,-3,191,-4789,22,-173,-78,68
488,-3785,-4,191,-4788,22,-173,-78,68
489,-3785,-3,189,-4787,22,-174,-77,68
490,-3787,-5,187,-4787,22,-175,-78,68
491,-3786,-5,188,-4788,22,-175,-78,67
492,-3787,-6,188,-4789,22,-176,-77,69
493,-3788,-4,190,-4790,22,-175,-75,69
494,-3787,-4,187,-4789,22,-174,-73,68
495,-3787,-3,187,-4790,22,-174,-74,68
496,-3788,-3,185,-4790,22,-175,-74,68
497,-3788,-1,187,-4790,22,-174,-75,68
498,-3789,-2,188,-4790,22,-174,-76,68
499,-3789,-3,189,-4789,22,-173,-77,68
500,-3788,-5,187,-4789,22,-173,-77,68
501,-3789,-4,187,-4789,22,-174,-77,68
502,-3789,-5,185,-4789,22,-175,-77,68
503,-3788,-4,184,-4789,22,-174,-77,68
504,-3787,-5,186,-4789,22,-175,-76,68
505,-3789,-6,186,-4789,22,-175,-77,68
506,-3788,-4,188,-4790,22,-175,-77,68
507,-3789,-4,186,-4790,22,-175,-76,67
508,-3788,-3,185,-4790,22,-174,-76,67
509,-3789,-5,186,-4790,22,-174,-77,69
510,-3790,-5,185,-4790,22,-172,-77,68
511,-3789,-5,187,-4790,22,-173,-78,69
512,-3789,-8,189,-4791,22,-173,-77,68
513,-3789,-7,188,-4792,22,-173,-76,69
514,-3790,-7,187,-4792,22,-173,-77,70
515,-3790,-6,190,-4793,22,-173,-76,70
516,-3791,-6,187,-4793,22,-173,-75,69
517,-3791,-4,184,-4792,22,-173,-75,69
518,-3791,-6,183,-4791,22,-174,-74,70
519,-3790,-7,184,-4791,22,-174,-75,68
520,-3789,-5,185,-4791,22,-174,-75,68
521,-3788,-5,185,-4792,22,-173,-76,68
522,-3790,-2,185,-4791,22,-173,-76,67
523,-3788,-2,183,-4790,22,-174,-77,67
524,-3789,-4,182,-4789,22,-174,-77,66
525,-3788,-4,186,-4787,22,-175,-77,68
526,-3789,-4,189,-4788,22,-173,-77,68
527,-3789,-5,184,-4790,22,-172,-76,69
528,-3790,-5,183,-4792,22,-173,-76,70
529,-3789,-7,185,-4791,22,-173,-75,70
530,-3791,-6,186,-4790,22,-173,-77,70
531,-3792,-3,188,-4790,22,-174,-76,70
532,-3792,-5,181,-4791,22,-174,-77,69
533,-3790,-5,181,-4792,22,-174,-77,68
534,-3789,-4,180,-4791,22,-173,-76,69
535,-3791,-4,183,-4791,22,-174,-76,68
536,-3787,-3,185,-4791,22,-174,-77,68
537,-3788,-5,185,-4790,22,-173,-77,69
538,-3788,-1,185,-4787,22,-173,-77,69
539,-3787,-2,183,-4788,22,-172,-77,69
540,-3789,-1,184,-4788,22,-173,-78,69
541,-3791,-3,186,-4789,22,-173,-75,69
542,-3790,-3,186,-4789,22,-173,-75,69
543,-3788,-2,185,-4792,22,-174,-76,69
544,-3787,0,184,-4791,22,-174,-76,69
545,-3786,2,184,-4790,22,-174,-75,70
546,-3789,1,185,-4790,22,-173,-75,69
547,-3789,1,187,-4790,22,-172,-77,69
548,-3790,-4,183,-4788,22,-172,-77,68
549,-3788,-6,183,-4787,22,-173,-78,69
550,-3786,-5,180,-4788,22,-173,-77,68
551,-3786,-3,182,-4788,22,-173,-78,68
552,-3787,-2,183,-4787,22,-173,-77,68
553,-3790,-3,183,-4788,22,-175,-77,68
554,-3790,-2,184,-4788,22,-174,-77,68
555,-3791,-2,185,-4789,22,-173,-77,68
556,-3789,-2,183,-4792,22,-174,-77,68
557,-3787,-1,188,-4792,22,-176,-77,68
558,-3788,-1,185,-4792,22,-175,-76,69
559,-3789,-1,185,-4791,22,-176,-75,68
560,-3788,-3,188,-4792,22,-175,-74,69
561,-3788,-3,188,-4794,22,-174,-74,69
562,-3788,-4,191,-4794,22,-175,-74,70
563,-3786,-6,192,-4792,22,-175,-75,69
564,-3788,-5,189,-4791,22,-173,-77,69
565,-3787,-5,188,-4793,22,-173,-76,69
566,-3789,-4,188,-4792,22,-172,-76,68
567,-3786,-3,189,-4792,22,-173,-75,68
568,-3787,-3,191,-4791,22,-173,-77,68
569,-3788,-4,189,-4790,22,-173,-76,69
570,-3787,-2,193,-4789,22,-172,-76,68
571,-3787,-2,191,-4789,22,-173,-75,69
572,-3790,-2,190,-4790,22,-173,-75,69
573,-3790,-5,188,-4791,22,-173,-75,69
574,-3787,-3,184,-4792,22,-173,-76,69
575,-3785,-5,182,-4792,22,-173,-76,70
576,-3786,-8,184,-4793,22,-173,-75,70
577,-3787,-7,183,-4791,22,-175,-76,70
578,-3786,-9,187,-4792,22,-175,-76,70
579,-3787,-8,189,-4795,22,-175,-77,69
580,-3789,-8,187,-4792,22,-175,-76,69
581,-3786,-8,189,-4792,22,-174,-77,69
582,-3786,-6,189,-4791,22,-173,-76,69
583,-3787,-5,189,-4790,22,-173,-76,69
584,-3788,-6,185,-4790,22,-172,-76,68
585,-3790,-8,186,-4789,22,-172,-77,68
586,-3789,-7,187,-4792,22,-172,-77,68
587,-3786,-5,185,-4790,22,-172,-77,69
588,-3786,-3,184,-4792,22,-173,-77,68
589,-3787,-3,181,-4793,22,-172,-77,68
590,-3788,-2,180,-4791,22,-172,-77,69
591,-3788,0,180,-4791,22,-172,-76,69
592,-3785,-3,180,-4791,22,-173,-77,69
593,-3787,-5,183,-4791,22,-172,-79,68
594,-3790,-5,185,-4790,22,-173,-78,69
595,-3790,-5,186,-4787,22,-174,-76,69
596,-3792,-6,187,-4789,22,-174,-77,70
597,-3793,-5,185,-4787,22,-174,-78,70
598,-3791,-4,188,-4788,22,-174,-76,69
599,-3790,-5,191,-4788,22,-173,-76,70
600,-3790,-4,191,-4789,22,-174,-76,69
601,-3792,-4,190,-4788,22,-173,-79,70
602,-3790,-4,186,-4791,22,-173,-79,70
603,-3789,-4,186,-4790,22,-173,-78,70
604,-3789,-5,183,-4790,22,-173,-77,70
605,-3791,-4,184,-4792,22,-172,-78,70
606,-3792,-5,186,-4793,22,-171,-78,70
607,-3788,-5,188,-4793,22,-172,-78,70
608,-3788,-4,189,-4791,22,-172,-77,70
609,-3787,-7,193,-4791,22,-171,-76,70
610,-3787,-7,191,-4791,22,-172,-76,69
611,-3785,-5,192,-4790,22,-173,-77,68
612,-3783,-4,193,-4791,22,-173,-76,68
613,-3785,-6,191,-4791,22,-174,-76,68
614,-3787,-4,191,-4791,22,-174,-75,68
615,-3787,-5,188,-4791,22,-173,-76,68
616,-3788,-4,191,-4789,22,-174,-76,68
617,-3789,-4,194,-4791,22,-173,-77,70
618,-3791,-4,193,-4791,22,-174,-78,70
619,-3791,-2,191,-4788,22,-173,-78,69
620,-3791,-1,192,-4788,22,-174,-78,68
621,-3790,-2,189,-4785,22,-174,-76,68
622,-3791,-1,192,-4784,22,-173,-76,68
623,-3790,-2,188,-4785,22,-172,-76,68
624,-3791,-2,185,-4787,22,-173,-77,69
625,-3789,-3,180,-4790,22,-172,-77,69
626,-3789,-1,180,-4789,22,-172,-77,69
627,-3791,-2,186,-4790,22,-172,-78,69
628,-3791,-2,185,-4790,22,-172,-77,69
629,-3790,-3,184,-4792,22,-172,-77,70
630,-3788,-5,185,-4792,22,-173,-78,70
631,-3788,-5,182,-4791,22,-172,-78,70
632,-3788,-6,180,-4790,22,-173,-78,70
633,-3789,-6,184,-4788,22,-172,-77,69
634,-3788,-6,183,-4790,22,-173,-76,70
635,-3788,-3,183,-4791,22,-172,-76,71
636,-3789,-2,183,-4789,22,-173,-76,71
637,-3788,-3,183,-4790,22,-173,-75,69
638,-3788,-5,188,-4790,22,-173,-76,70
639,-3788,-6,188,-4790,22,-173,-75,70
640,-3788,-4,186,-4789,22,-173,-77,70
641,-3787,-3,183,-4788,22,-174,-77,71
642,-3787,-2,183,-4788,22,-174,-77,70
643,-3788,-3,184,-4787,22,-173,-77,70
644,-3785,-3,186,-4789,22,-173,-77,70
645,-3788,-4,184,-4787,22,-172,-78,70
646,-3789,-3,186,-4788,22,-171,-76,70
647,-3787,-4,186,-4787,22,-173,-76,69
648,-3788,-1,190,-4787,22,-173,-76,69
649,-3790,0,187,-4786,22,-174,-76,68
650,-3791,-1,183,-4786,22,-175,-76,68
651,-3790,1,183,-4786,22,-174,-76,69
652,-3789,-1,186,-4787,22,-173,-76,69
653,-3790,-3,186,-4787,22,-173,-77,70
654,-3793,-4,184,-4786,22,-173,-78,70
655,-3792,-4,178,-4786,22,-173,-78,70
656,-3791,-4,183,-4787,22,-173,-77,70
657,-3790,-2,186,-4787,22,-173,-77,69
658,-3791,-2,188,-4788,22,-174,-76,70
659,-3791,-4,189,-4788,22,-174,-76,70
660,-3788,-4,188,-4787,22,-175,-76,70
661,-3785,-2,185,-4788,22,-175,-76,70
662,-3786,0,185,-4789,22,-175,-77,69
663,-3788,0,182,-4789,22,-175,-77,69
664,-3787,-2,185,-4789,22,-174,-77,69
665,-3788,-2,191,-4787,22,-173,-78,70
666,-3789,-5,193,-4788,22,-173,-77,70
667,-3786,-3,187,-4786,22,-171,-77,70
668,-3785,-7,186,-4786,22,-172,-76,69
669,-3787,-4,182,-4787,22,-173,-75,68
670,-3790,-4,182,-4786,22,-173,-77,68
671,-3791,-3,182,-4786,22,-174,-77,67
672,-3790,-2,183,-4786,22,-174,-76,67
673,-3792,-3,187,-4786,22,-175,-76,67
674,-3791,-2,190,-4786,22,-173,-77,67
675,-3790,-2,188,-4787,22,-174,-76,67
676,-3790,-4,188,-4787,22,-174,-77,67
677,-3790,-4,188,-4787,22,-172,-77,69
678,-3787,-6,187,-4786,22,-173,-77,69
679,-3786,-5,186,-4786,22,-172,-77,68
680,-3786,-4,189,-4787,22,-173,-78,69
681,-3787,-4,189,-4788,22,-173,-79,68
682,-3791,-5,188,-4789,22,-172,-78,69
683,-3788,-6,189,-4789,22,-173,-78,69
684,-3790,-6,190,-4789,22,-174,-78,69
685,-3789,-5,190,-4788,22,-174,-78,68
686,-3789,-3,190,-4787,22,-175,-78,67
687,-3788,-5,191,-4786,22,-173,-77,68
688,-3789,-3,188,-4787,22,-173,-78,67
689,-3790,-5,181,-4786,22,-173,-77,67
690,-3789,-5,178,-4786,22,-174,-76,67
691,-3790,-5,182,-4786,22,-174,-75,67
692,-3789,-5,181,-4785,22,-175,-75,67
693,-3790,-4,182,-4786,22,-175,-76,67
694,-3790,-2,182,-4785,22,-175,-76,67
695,-3790,-4,181,-4786,22,-175,-76,68
696,-3790,-4,187,-4786,22,-174,-76,68
697,-3789,0,190,-4786,22,-174,-77,68
698,-3791,-1,185,-4786,22,-175,-75,67
699,-3792,1,186,-4786,22,-175,-76,68
700,-3791,-2,183,-4786,22,-174,-76,68
701,-3791,-3,182,-4787,22,-172,-76,69
702,-3790,-2,185,-4788,22,-174,-77,69
703,-3791,-3,187,-4787,22,-174,-77,68
704,-3790,-4,191,-4789,22,-174,-77,69
705,-3789,-4,189,-4787,22,-173,-78,69
706,-3790,-3,191,-4788,22,-174,-78,69
707,-3790,-4,191,-4789,22,-174,-78,69
708,-3787,-3,191,-4789,22,-174,-76,69
709,-3786,-2,193,-4789,22,-174,-76,70
710,-3785,-4,187,-4789,22,-173,-76,69
711,-3785,-3,185,-4790,22,-173,-77,69
712,-3785,-5,186,-4789,22,-174,-79,69
713,-3785,-5,187,-4790,22,-174,-78,68
714,-3783,-7,188,-4790,22,-174,-78,68
715,-3783,-5,183,-4790,22,-173,-78,69
716,-3783,-6,184,-4788,22,-173,-77,70
717,-3785,-3,186,-4786,22,-173,-76,69
718,-3787,-1,183,-4786,22,-172,-77,69
719,-3786,0,186,-4786,22,-173,-77,70
720,-3784,-2,185,-4786,22,-173,-78,70
721,-3785,-1,186,-4786,22,-174,-77,69
722,-3787,-4,187,-4783,22,-173,-78,69
723,-3786,-3,186,-4784,22,-173,-78,69
724,-3786,-4,183,-4785,22,-173,-77,69
725,-3787,-3,185,-4785,22,-173,-77,69
726,-3789,-3,185,-4785,22,-174,-77,69
727,-3790,-4,186,-4785,22,-174,-76,70
728,-3789,-3,187,-4787,22,-174,-76,70
729,-3790,-5,189,-4788,22,-173,-76,68
730,-3790,-6,185,-4788,22,-172,-75,69
731,-3790,-3,188,-4788,22,-173,-76,69
732,-3789,-3,187,-4788,22,-174,-76,69
733,-3786,-3,184,-4787,22,-173,-76,69
734,-3787,-2,180,-4788,22,-174,-77,68
735,-3787,-3,178,-4787,22,-174,-77,69
736,-3787,-4,177,-4788,22,-174,-77,68
737,-3790,-4,181,-4788,22,-173,-76,69
738,-3789,-3,184,-4788,22,-173,-77,70
739,-3788,-3,185,-4786,22,-173,-77,69
740,-3785,-5,187,-4786,22,-173,-77,69
741,-3786,-5,187,-4786,22,-172,-78,70
742,-3787,-7,189,-4786,22,-174,-79,69
743,-3787,-5,189,-4783,22,-174,-79,69
744,-3787,-3,191,-4783,22,-174,-78,69
745,-3789,-2,189,-4784,22,-174,-77,69
746,-3789,-3,193,-4785,22,-173,-77,69
747,-3788,-1,188,-4784,22,-173,-77,70
748,-3786,-3,190,-4785,22,-173,-77,70
749,-3788,-1,189,-4787,22,-174,-76,69
750,-3787,-3,190,-4787,22,-175,-77,68
751,-3786,-3,189,-4787,22,-175,-77,68
752,-3786,-3,189,-4785,22,-174,-76,67
753,-3787,-3,187,-4785,22,-176,-76,67
754,-3786,-2,185,-4785,22,-175,-76,67
755,-3783,-2,187,-4785,22,-174,-77,69
756,-3783,-4,184,-4785,22,-174,-77,69
757,-3784,-4,184,-4785,22,-174,-76,70
758,-3786,-3,185,-4783,22,-174,-78,70
759,-3786,-3,186,-4784,22,-174,-78,70
760,-3787,-3,186,-4784,22,-174,-79,70
761,-3789,-3,187,-4785,22,-173,-77,69
762,-3787,-1,187,-4784,22,-174,-75,70
763,-3787,-2,181,-4783,22,-174,-76,70
764,-3786,-5,184,-4783,22,-174,-76,69
765,-3788,-7,185,-4782,22,-174,-75,69
766,-3785,-10,186,-4781,22,-173,-75,69
767,-3783,-8,187,-4781,22,-173,-75,69
768,-3788,-8,187,-4782,22,-173,-76,69
769,-3789,-8,187,-4782,22,-172,-75,68
770,-3789,-8,189,-4784,22,-171,-75,68
771,-3790,-7,192,-4784,22,-171,-76,69
772,-3789,-6,191,-4784,22,-172,-76,68
773,-3788,-4,185,-4785,22,-172,-76,67
774,-3788,-2,184,-4783,22,-172,-76,67
775,-3788,0,182,-4783,22,-173,-77,68
776,-3787,1,181,-4782,22,-174,-76,69
777,-3786,1,181,-4782,22,-174,-76,68
778,-3785,-1,181,-4783,22,-175,-75,68
779,-3785,-2,179,-4782,22,-174,-75,68
780,-3785,-3,183,-4783,22,-174,-76,69
781,-3787,-5,188,-4783,22,-174,-76,69
782,-3786,-6,187,-4784,22,-173,-77,68
783,-3788,-6,186,-4783,22,-173,-77,69
784,-3787,-4,185,-4782,22,-174,-77,68
785,-3786,-6,186,-4782,22,-174,-78,68
786,-3787,-4,186,-4783,22,-174,-77,67
787,-3788,-6,186,-4781,22,-174,-77,68
788,-3789,-7,185,-4782,22,-175,-77,68
789,-3789,-6,187,-4782,22,-174,-76,68
790,-3790,-6,186,-4782,22,-175,-76,68
791,-3791,-4,188,-4784,22,-173,-77,68
792,-3793,-3,186,-4783,22,-173,-78,68
793,-3791,-2,189,-4783,22,-173,-76,68
794,-3791,-2,188,-4784,22,-173,-77,68
795,-3791,-3,188,-4785,22,-173,-76,67
796,-3791,-2,186,-4784,22,-173,-76,68
797,-3792,-2,184,-4784,22,-173,-77,68
798,-3793,-3,183,-4785,22,-172,-77,68
799,-3793,-4,185,-4783,22,-172,-77,68
800,-3792,-4,179,-4783,22,-173,-79,69
801,-3789,-4,181,-4784,22,-173,-79,69
802,-3789,-4,179,-4785,22,-173,-80,70
803,-3790,-3,176,-4783,22,-172,-79,69
804,-3788,-4,178,-4783,22,-172,-79,68
805,-3790,-4,182,-4784,22,-173,-78,69
806,-3792,-4,183,-4785,22,-172,-77,70
807,-3793,-6,182,-4786,22,-174,-78,69
808,-3793,-5,181,-4787,22,-173,-77,70
809,-3789,-6,184,-4786,22,-174,-78,69
810,-3787,-7,188,-4784,22,-174,-77,69
811,-3784,-8,187,-4784,22,-174,-77,70
812,-3785,-6,189,-4783,22,-174,-77,70
813,-3786,-8,192,-4785,22,-174,-77,69
814,-3790,-7,192,-4784,22,-173,-76,69
815,-3790,-8,191,-4784,22,-173,-76,69
816,-3791,-5,190,-4784,22,-174,-75,70
817,-3790,-2,193,-4784,22,-174,-76,70
818,-3789,-2,192,-4783,22,-174,-76,71
819,-3787,-2,189,-4784,22,-175,-75,70
820,-3789,-2,191,-4784,22,-176,-75,70
821,-3790,-3,192,-4784,22,-175,-75,69
822,-3789,-1,194,-4784,22,-175,-75,70
823,-3790,0,192,-4784,22,-175,-76,69
824,-3788,0,191,-4782,22,-174,-76,69
825,-3792,-2,190,-4782,22,-174,-75,70
826,-3791,-1,189,-4782,22,-173,-75,69
827,-3789,-4,187,-4784,22,-174,-75,69
828,-3788,-5,185,-4784,22,-174,-76,69
829,-3789,-5,186,-4783,22,-174,-75,69
830,-3788,-5,189,-4783,22,-174,-76,71
831,-3789,-5,189,-4782,22,-173,-75,70
832,-3789,-4,188,-4780,22,-173,-77,69
833,-3789,-3,189,-4781,22,-174,-77,69
834,-3793,-5,191,-4779,22,-175,-78,69
835,-3793,-4,186,-4781,22,-174,-78,68
836,-3791,-5,188,-4782,22,-174,-77,68
837,-3791,-3,188,-4782,22,-174,-77,69
838,-3791,-1,187,-4783,22,-174,-76,70
839,-3793,-4,189,-4785,22,-174,-77,70
840,-3794,-5,191,-4784,22,-175,-77,68
841,-3793,-6,188,-4783,22,-175,-77,68
842,-3789,-5,189,-4782,22,-174,-78,69
843,-3789,-5,189,-4783,22,-174,-77,69
844,-3788,-3,188,-4783,22,-173,-78,70
845,-3787,-3,189,-4782,22,-173,-78,69
846,-3786,0,188,-4782,22,-174,-77,69
847,-3785,1,188,-4784,22,-174,-77,69
848,-3785,1,189,-4783,22,-174,-77,68
849,-3786,0,190,-4783,22,-174,-77,69
850,-3786,0,185,-4784,22,-174,-77,70
851,-3787,-1,189,-4783,22,-175,-77,69
852,-3786,-1,188,-4784,22,-175,-78,69
853,-3787,-2,191,-4783,22,-175,-77,69
854,-3787,0,190,-4781,22,-175,-78,69
855,-3788,0,188,-4784,22,-174,-78,69
856,-3790,0,184,-4783,22,-174,-79,69
857,-3791,-2,185,-4782,22,-174,-79,68
858,-3792,1,182,-4785,22,-174,-79,68
859,-3789,-1,180,-4785,22,-174,-79,69
860,-3790,-2,183,-4785,22,-174,-79,70
861,-3789,-5,185,-4787,22,-173,-78,71
862,-3786,-5,187,-4787,22,-173,-77,70
863,-3789,-8,189,-4784,22,-173,-77,69
864,-3790,-7,188,-4785,22,-174,-75,70
865,-3790,-6,186,-4784,22,-173,-74,70
866,-3790,-5,187,-4784,22,-173,-75,69
867,-3791,-5,186,-4783,22,-173,-74,69
868,-3792,-5,188,-4783,22,-174,-75,70
869,-3790,-5,189,-4782,22,-174,-76,70
870,-3791,-4,188,-4783,22,-174,-76,70
871,-3789,-3,190,-4782,22,-174,-76,70
872,-3787,-3,187,-4781,22,-175,-76,69
873,-3787,-3,184,-4782,22,-175,-76,69
874,-3786,-4,186,-4782,22,-173,-78,69
875,-3786,-4,186,-4781,22,-173,-77,69
876,-3785,-1,186,-4781,22,-173,-77,68
877,-3790,1,186,-4781,22,-173,-77,69
878,-3789,3,185,-4779,22,-173,-77,68
879,-3788,1,185,-4779,22,-173,-76,67
880,-3789,0,186,-4779,22,-173,-77,67
881,-3788,-1,188,-4780,22,-173,-76,68
882,-3789,-4,185,-4780,22,-173,-75,68
883,-3789,-3,185,-4780,22,-174,-76,68
884,-3787,-4,188,-4779,22,-173,-77,69
885,-3786,-1,188,-4780,22,-173,-77,68
886,-3788,-3,188,-4779,22,-174,-77,68
887,-3789,-3,186,-4779,22,-173,-77,68
888,-3788,-4,183,-4779,22,-173,-79,68
889,-3787,-3,182,-4780,22,-172,-79,69
890,-3784,-4,185,-4781,22,-173,-78,68
891,-3783,-6,186,-4782,22,-173,-80,68
892,-3783,-6,185,-4783,22,-173,-79,69
893,-3785,-3,184,-4784,22,-174,-80,68
894,-3787,-1,185,-4782,22,-175,-79,69
895,-3788,-3,184,-4781,22,-174,-80,68
896,-3789,-4,186,-4781,22,-175,-79,69
897,-3789,-3,182,-4780,22,-174,-78,69
898,-3790,-3,179,-4780,22,-174,-77,68
899,-3788,-2,180,-4781,22,-175,-78,69
900,-3788,-2,181,-4782,22,-176,-78,67
901,-3788,-5,185,-4783,22,-175,-77,68
902,-3789,-7,184,-4782,22,-175,-76,68
903,-3790,-7,189,-4781,22,-175,-75,69
904,-3790,-6,188,-4782,22,-174,-75,69
905,-3792,-6,190,-4782,22,-173,-75,69
906,-3791,-6,192,-4783,22,-174,-76,69
907,-3793,-7,194,-4781,22,-174,-78,69
908,-3792,-6,190,-4781,22,-173,-77,69
909,-3791,-4,186,-4780,22,-173,-77,69
910,-3791,-2,186,-4781,22,-174,-77,68
911,-3791,-1,189,-4781,22,-174,-77,68
912,-3792,-1,188,-4781,22,-173,-76,69
913,-3791,-2,188,-4782,22,-173,-76,69
914,-3787,-2,188,-4781,22,-173,-76,68
915,-3788,-5,187,-4781,22,-173,-77,67
916,-3788,-4,186,-4780,22,-173,-80,67
917,-3788,-4,187,-4780,22,-173,-79,68
918,-3788,-4,189,-4782,22,-174,-78,69
919,-3789,-6,188,-4783,22,-174,-78,69
920,-3789,-7,189,-4784,22,-172,-78,68
921,-3789,-7,187,-4783,22,-173,-77,68
922,-3788,-9,183,-4782,22,-173,-77,68
923,-3787,-8,182,-4782,22,-173,-77,68
924,-3788,-7,182,-4781,22,-173,-78,68
925,-3789,-5,183,-4781,22,-173,-77,69
926,-3787,-5,187,-4780,22,-174,-77,69
927,-3785,-4,185,-4779,22,-175,-77,69
928,-3786,-3,185,-4779,22,-174,-77,70
929,-3787,-3,183,-4780,22,-175,-76,69
930,-3788,-3,181,-4780,22,-174,-76,68
931,-3786,-4,186,-4780,22,-174,-76,69
932,-3789,-4,183,-4780,22,-173,-76,69
933,-3792,-5,183,-4778,22,-174,-77,69
934,-3791,-4,186,-4779,22,-175,-78,69
935,-3789,-3,186,-4778,22,-174,-77,69
936,-3788,-3,188,-4780,22,-174,-78,69
937,-3789,-5,185,-4781,22,-174,-76,69
938,-3791,-6,186,-4781,22,-174,-75,69
939,-3791,-4,187,-4781,22,-173,-76,69
940,-3787,-2,183,-4781,22,-173,-76,71
941,-3787,-2,185,-4781,22,-173,-77,71
942,-3788,0,185,-4780,22,-173,-77,70
943,-3785,2,186,-4779,22,-172,-77,70
944,-3786,-2,185,-4780,22,-173,-77,70
945,-3785,-3,184,-4781,22,-174,-76,70
946,-3787,-3,186,-4781,22,-173,-74,72
947,-3786,-4,187,-4781,22,-173,-75,70
948,-3787,-5,187,-4781,22,-173,-75,71
949,-3788,-3,188,-4783,22,-173,-76,70
950,-3790,-2,186,-4784,22,-173,-78,70
951,-3788,-4,182,-4783,22,-173,-78,70
952,-3790,-4,180,-4783,22,-174,-78,70
953,-3792,-6,181,-4783,22,-173,-78,70
954,-3790,-5,181,-4782,22,-174,-78,69
955,-3788,-6,184,-4782,22,-174,-77,68
956,-3787,-4,185,-4781,22,-174,-77,67
957,-3785,-3,185,-4783,22,-172,-76,68
958,-3786,-2,183,-4782,22,-173,-76,68
959,-3785,-2,185,-4782,22,-173,-76,68
960,-3784,-2,185,-4783,22,-172,-74,67
961,-3784,-2,187,-4782,22,-172,-74,68
962,-3786,-3,187,-4781,22,-173,-76,68
963,-3790,-1,186,-4781,22,-173,-76,69
964,-3789,0,185,-4782,22,-172,-75,70
965,-3788,0,187,-4782,22,-173,-76,70
966,-3786,-1,187,-4782,22,-172,-76,69
967,-3785,-5,185,-4781,22,-173,-77,70
968,-3785,-6,183,-4782,22,-172,-78,69
969,-3787,-8,185,-4782,22,-172,-78,69
970,-3788,-8,186,-4782,22,-173,-78,68
971,-3787,-8,184,-4782,22,-173,-78,67
972,-3785,-7,187,-4782,22,-172,-77,67
973,-3788,-4,187,-4782,22,-172,-78,67
974,-3788,-4,187,-4781,22,-172,-77,67
975,-3788,-4,189,-4782,22,-173,-76,68
976,-3788,-4,187,-4781,22,-173,-76,67
977,-3785,-5,186,-4781,22,-172,-76,68
978,-3786,-3,185,-4780,22,-172,-76,68
979,-3784,-1,187,-4781,22,-173,-76,68
980,-3783,-2,187,-4780,22,-174,-75,68
981,-3786,-3,190,-4780,22,-174,-75,68
982,-3788,-1,186,-4781,22,-173,-75,68
983,-3789,-2,185,-4781,22,-173,-74,68
984,-3789,-3,187,-4781,22,-174,-76,68
985,-3789,-3,185,-4779,22,-173,-75,69
986,-3789,-4,188,-4780,22,-172,-77,69
987,-3791,-5,188,-4780,22,-173,-76,69
988,-3791,-5,184,-4780,22,-173,-77,69
989,-3790,-5,186,-4781,22,-172,-76,69
990,-3791,-5,188,-4780,22,-172,-77,68
991,-3789,-4,189,-4780,22,-173,-76,68
992,-3790,-3,191,-4780,22,-172,-76,67
993,-3791,-2,189,-4781,22,-173,-76,66
994,-3791,-1,186,-4782,22,-172,-75,68
995,-3791,0,184,-4782,22,-172,-76,68
996,-3791,-2,184,-4781,22,-172,-76,68
997,-3789,-4,181,-4781,22,-172,-76,69
998,-3786,-3,181,-4779,22,-172,-75,70
