,acc_X,acc_Y,acc_Z,temp,tempC,gyr_X,gyr_Y,gyr_Z
0,-1897,-3,109,-4733,23,-83,-41,36
1,-1888,4,82,-4743,23,-87,-39,29
2,-1899,1,102,-4736,23,-84,-40,35
3,-1896,1,107,-4744,23,-87,-38,32
4,-1889,-10,105,-4734,23,-87,-43,31
5,-1893,-5,103,-4747,23,-85,-34,32
6,-1890,-1,111,-4738,23,-84,-41,35
7,-1907,-8,90,-4748,23,-86,-37,34
8,-1881,-1,95,-4745,23,-90,-40,37
9,-1892,-6,83,-4736,23,-87,-40,32
10,-1896,2,82,-4747,23,-90,-35,34
11,-1885,0,79,-4738,23,-87,-45,36
12,-1891,-1,87,-4743,23,-84,-38,38
13,-1903,-1,105,-4740,23,-88,-34,36
14,-1903,-9,105,-4746,23,-90,-40,34
15,-1900,10,94,-4729,23,-85,-41,32
16,-1885,-9,89,-4735,23,-90,-40,36
17,-1897,-2,90,-4729,23,-86,-41,32
18,-1895,3,94,-4749,23,-88,-37,33
19,-1897,-7,91,-4746,23,-87,-40,33
20,-1889,-2,96,-4741,23,-87,-40,32
21,-1895,4,92,-4741,23,-87,-38,32
22,-1894,-7,93,-4740,23,-84,-38,32
23,-1901,-1,81,-4738,23,-85,-37,33
24,-1895,-3,92,-4756,23,-87,-40,38
25,-1899,-3,105,-4743,23,-86,-38,33
26,-1897,-4,100,-4744,23,-88,-39,32
27,-1887,-3,74,-4743,23,-83,-39,33
28,-1895,-15,104,-4737,23,-92,-39,34
29,-1900,-4,113,-4729,23,-88,-36,33
30,-1884,-9,86,-4740,23,-90,-37,36
31,-1901,-5,74,-4748,23,-85,-41,32
32,-1891,4,86,-4735,23,-85,-39,35
33,-1890,-2,98,-4746,23,-86,-35,37
34,-1894,-10,92,-4748,23,-88,-39,34
35,-1890,-7,94,-4742,23,-86,-41,38
36,-1890,2,87,-4751,23,-86,-36,32
37,-1893,-1,96,-4726,23,-86,-43,36
38,-1892,-5,80,-4740,23,-88,-42,33
39,-1896,-4,82,-4742,23,-88,-36,33
40,-1887,-7,89,-4738,23,-86,-39,32
41,-1900,-1,72,-4730,23,-85,-36,35
42,-1891,-4,86,-4735,23,-87,-39,32
43,-1901,-9,79,-4736,23,-87,-36,37
44,-1900,-1,73,-4732,23,-84,-38,36
45,-1884,-1,96,-4738,23,-87,-39,31
46,-1902,-6,95,-4740,23,-89,-41,36
47,-1891,2,85,-4739,23,-84,-45,35
48,-1901,-5,89,-4749,23,-86,-40,32
49,-1902,-2,88,-4740,23,-82,-39,33
50,-1895,-10,95,-4740,23,-82,-40,37
51,-1888,3,92,-4742,23,-90,-38,30
52,-1897,-3,108,-4740,23,-91,-39,41
53,-1892,-5,99,-4741,23,-89,-32,33
54,-1906,-7,87,-4751,23,-81,-39,34
55,-1894,-12,107,-4736,23,-85,-39,34
56,-1897,-1,81,-4743,23,-85,-45,39
57,-1894,0,118,-4751,23,-90,-41,34
58,-1898,-6,88,-4740,23,-85,-36,36
59,-1887,-3,92,-4749,23,-86,-36,34
60,-1893,-3,90,-4741,23,-86,-34,32
61,-1888,1,88,-4745,23,-86,-40,37
62,-1907,2,94,-4750,23,-84,-38,33
63,-1894,1,104,-4756,23,-85,-38,36
64,-1889,1,87,-4751,23,-85,-38,34
65,-1889,10,86,-4747,23,-87,-40,33
66,-1888,0,85,-4746,23,-85,-39,34
67,-1898,-1,104,-4749,23,-89,-40,31
68,-1892,0,91,-4742,23,-81,-39,34
69,-1898,1,101,-4740,23,-87,-39,32
70,-1893,9,100,-4738,23,-86,-42,34
71,-1894,-7,103,-4736,23,-90,-41,34
72,-1900,3,93,-4731,23,-86,-38,36
73,-1890,2,102,-4746,23,-88,-41,34
74,-1882,3,85,-4754,23,-86,-36,33
75,-1902,2,91,-4763,22,-81,-34,36
76,-1893,-6,94,-4737,23,-86,-33,34
77,-1895,-1,87,-4750,23,-89,-31,32
78,-1907,3,89,-4739,23,-88,-42,36
79,-1898,-13,83,-4740,23,-87,-33,37
80,-1902,12,106,-4746,23,-90,-40,33
81,-1895,-3,98,-4741,23,-90,-36,36
82,-1891,-5,88,-4733,23,-88,-38,32
83,-1891,-5,92,-4745,23,-86,-39,33
84,-1904,-6,95,-4736,23,-83,-40,35
85,-1886,-4,91,-4759,23,-88,-35,34
86,-1897,5,102,-4749,23,-87,-37,33
87,-1892,5,99,-4747,23,-91,-40,34
88,-1898,2,103,-4737,23,-82,-35,34
89,-1901,-7,90,-4730,23,-88,-40,36
90,-1891,-14,109,-4751,23,-91,-37,34
91,-1891,-2,96,-4737,23,-88,-42,34
92,-1890,-5,97,-4747,23,-88,-35,36
93,-1893,8,96,-4737,23,-90,-41,36
94,-1893,1,92,-4736,23,-88,-40,35
95,-1890,-13,99,-4736,23,-86,-40,31
96,-1887,1,79,-4741,23,-86,-39,34
97,-1896,-4,101,-4739,23,-92,-38,34
98,-1893,-11,95,-4740,23,-90,-35,34
99,-1901,-1,81,-4739,23,-89,-42,31
100,-1897,0,92,-4735,23,-85,-38,36
101,-1892,4,106,-4743,23,-89,-40,33
102,-1894,-3,97,-4744,23,-87,-36,33
103,-1901,-8,91,-4747,23,-88,-38,33
104,-1898,-7,101,-4735,23,-88,-40,36
105,-1905,-3,90,-4734,23,-87,-41,40
106,-1891,-6,77,-4749,23,-85,-37,34
107,-1891,-1,92,-4752,23,-87,-37,35
108,-1892,-7,100,-4737,23,-87,-39,38
109,-1900,12,103,-4738,23,-90,-40,34
110,-1891,-3,106,-4741,23,-89,-44,36
111,-1892,-1,84,-4728,23,-88,-41,32
112,-1888,2,87,-4739,23,-88,-40,34
113,-1896,4,99,-4747,23,-86,-33,33
114,-1898,-6,110,-4745,23,-87,-41,33
115,-1892,1,94,-4731,23,-86,-36,35
116,-1896,-11,105,-4730,23,-89,-42,38
117,-1897,-7,82,-4731,23,-88,-44,31
118,-1896,-1,92,-4746,23,-84,-40,33
119,-1897,0,92,-4740,23,-86,-36,35
120,-1898,0,92,-4740,23,-92,-38,37
121,-1892,0,84,-4733,23,-89,-42,36
122,-1898,-10,107,-4744,23,-89,-41,34
123,-1889,4,75,-4729,23,-87,-39,36
124,-1886,-12,86,-4738,23,-89,-41,33
125,-1892,-6,100,-4747,23,-91,-41,34
126,-1894,3,104,-4748,23,-84,-37,33
127,-1895,4,86,-4735,23,-89,-37,35
128,-1885,-3,85,-4737,23,-86,-39,34
129,-1897,-1,95,-4735,23,-88,-37,36
130,-1896,13,94,-4752,23,-88,-38,31
131,-1904,3,82,-4747,23,-85,-36,36
132,-1902,0,100,-4742,23,-88,-37,35
133,-1902,1,89,-4744,23,-84,-38,36
134,-1892,-8,98,-4727,23,-89,-42,34
135,-1895,-4,82,-4756,23,-90,-41,33
136,-1887,-9,94,-4746,23,-84,-36,36
137,-1900,-7,79,-4729,23,-88,-34,33
138,-1889,1,94,-4746,23,-93,-36,38
139,-1897,6,87,-4743,23,-88,-38,33
140,-1881,-11,84,-4759,23,-85,-34,31
141,-1897,4,81,-4739,23,-92,-39,34
142,-1899,-3,81,-4743,23,-84,-39,40
143,-1892,-10,92,-4750,23,-89,-41,35
144,-1904,-1,99,-4731,23,-85,-37,34
145,-1895,-8,104,-4741,23,-83,-42,34
146,-1900,-5,90,-4735,23,-88,-40,38
147,-1889,-3,91,-4737,23,-83,-42,32
148,-1891,-3,103,-4744,23,-86,-37,34
149,-1902,-12,89,-4736,23,-89,-36,37
150,-1889,-3,93,-4739,23,-86,-40,35
151,-1897,-6,97,-4730,23,-83,-39,35
152,-1897,-9,96,-4744,23,-86,-39,33
153,-1910,0,98,-4751,23,-87,-38,32
154,-1900,1,99,-4738,23,-86,-39,35
155,-1888,2,92,-4741,23,-90,-38,37
156,-1897,-4,100,-4745,23,-85,-42,33
157,-1890,-5,94,-4730,23,-86,-36,31
158,-1896,-2,87,-4738,23,-87,-37,33
159,-1895,-5,104,-4743,23,-87,-35,36
160,-1899,9,92,-4743,23,-85,-38,35
161,-1906,15,93,-4740,23,-87,-39,34
162,-1896,-4,101,-4737,23,-88,-39,37
163,-1888,1,79,-4744,23,-89,-38,33
164,-1896,-2,105,-4749,23,-86,-39,36
165,-1896,-7,93,-4743,23,-85,-36,35
166,-1888,-2,101,-4746,23,-90,-36,39
167,-1880,3,87,-4738,23,-89,-41,34
168,-1893,-6,86,-4754,23,-89,-38,33
169,-1891,-2,104,-4734,23,-87,-40,32
170,-1889,-4,87,-4748,23,-86,-38,32
171,-1899,2,106,-4748,23,-90,-45,36
172,-1893,-1,107,-4742,23,-84,-36,36
173,-1891,-4,91,-4741,23,-89,-41,34
174,-1894,3,97,-4734,23,-86,-36,30
175,-1892,-7,95,-4729,23,-86,-38,33
176,-1894,-5,116,-4739,23,-90,-38,28
177,-1892,-3,88,-4749,23,-83,-39,33
178,-1893,-5,89,-4748,23,-88,-36,35
179,-1889,-4,84,-4742,23,-84,-40,36
180,-1887,-10,86,-4748,23,-87,-38,32
181,-1891,4,96,-4731,23,-87,-42,34
182,-1894,3,96,-4732,23,-89,-38,32
183,-1902,-1,92,-4755,23,-86,-38,37
184,-1890,0,84,-4740,23,-89,-36,36
185,-1886,4,98,-4748,23,-88,-39,34
186,-1891,-7,98,-4746,23,-87,-33,31
187,-1903,3,96,-4742,23,-88,-40,33
188,-1891,-4,94,-4736,23,-84,-38,36
189,-1892,-16,108,-4723,23,-84,-37,35
190,-1897,-5,90,-4734,23,-88,-39,33
191,-1890,3,108,-4753,23,-82,-33,29
192,-1901,0,85,-4744,23,-87,-39,33
193,-1908,-1,83,-4729,23,-88,-38,34
194,-1887,-7,99,-4740,23,-88,-38,35
195,-1900,-4,94,-4728,23,-84,-39,33
196,-1897,3,106,-4744,23,-88,-41,30
197,-1904,-3,88,-4747,23,-90,-35,35
198,-1894,-3,102,-4733,23,-83,-38,37
199,-1889,-4,91,-4756,23,-87,-38,32
200,-1894,-10,95,-4746,23,-89,-41,36
201,-1897,-1,92,-4745,23,-92,-38,36
202,-1888,-6,99,-4741,23,-85,-43,31
203,-1899,-4,97,-4728,23,-87,-39,41
204,-1892,-9,98,-4757,23,-87,-39,36
205,-1893,-6,94,-4749,23,-89,-32,33
206,-1893,16,80,-4743,23,-86,-40,31
207,-1899,1,101,-4737,23,-87,-36,32
208,-1900,0,88,-4748,23,-84,-37,36
209,-1891,0,92,-4730,23,-90,-33,33
210,-1898,8,88,-4745,23,-87,-38,31
211,-1887,1,90,-4730,23,-82,-37,34
212,-1891,1,99,-4735,23,-89,-39,33
213,-1898,-8,103,-4739,23,-86,-40,32
214,-1903,-10,88,-4743,23,-89,-41,33
215,-1895,5,90,-4734,23,-85,-38,37
216,-1889,-3,93,-4746,23,-86,-34,35
217,-1893,3,94,-4749,23,-89,-36,40
218,-1886,-8,87,-4734,23,-87,-37,35
219,-1899,-2,97,-4730,23,-86,-38,31
220,-1899,3,95,-4733,23,-84,-40,33
221,-1889,8,82,-4737,23,-87,-42,33
222,-1893,-1,97,-4736,23,-85,-40,32
223,-1899,-3,86,-4745,23,-85,-40,34
224,-1896,-3,86,-4722,23,-88,-40,37
225,-1892,-3,91,-4743,23,-86,-39,36
226,-1899,-8,107,-4734,23,-88,-39,30
227,-1897,-4,94,-4737,23,-90,-38,35
228,-1889,-7,106,-4743,23,-87,-40,33
229,-1893,-9,102,-4738,23,-86,-35,31
230,-1894,-8,95,-4734,23,-88,-37,33
231,-1882,-11,96,-4740,23,-90,-32,32
232,-1886,7,79,-4728,23,-82,-37,37
233,-1894,5,101,-4745,23,-80,-37,38
234,-1894,0,99,-4734,23,-85,-42,35
235,-1889,3,95,-4735,23,-87,-35,34
236,-1894,4,88,-4741,23,-82,-37,36
237,-1892,0,104,-4754,23,-86,-40,35
238,-1888,7,95,-4747,23,-86,-43,37
239,-1900,-16,85,-4734,23,-89,-37,32
240,-1895,-3,107,-4731,23,-87,-43,38
241,-1898,1,102,-4750,23,-86,-36,37
242,-1890,-3,95,-4742,23,-87,-37,35
243,-1893,0,103,-4748,23,-87,-36,33
244,-1894,1,95,-4745,23,-87,-34,38
245,-1891,2,69,-4730,23,-86,-32,30
246,-1895,-6,98,-4749,23,-85,-37,32
247,-1890,8,93,-4739,23,-84,-35,35
248,-1885,-5,87,-4741,23,-86,-34,34
249,-1901,6,88,-4754,23,-87,-38,37
250,-1902,1,92,-4746,23,-86,-41,32
251,-1890,-12,99,-4741,23,-88,-42,35
252,-1891,8,99,-4751,23,-82,-39,35
253,-1895,-1,94,-4734,23,-87,-41,35
254,-1888,0,98,-4732,23,-87,-44,35
255,-1897,3,83,-4736,23,-86,-37,37
256,-1888,-3,95,-4731,23,-88,-38,33
257,-1903,-4,77,-4732,23,-88,-39,37
258,-1894,-11,106,-4741,23,-83,-39,36
259,-1892,-3,95,-4728,23,-87,-40,36
260,-1902,-15,90,-4733,23,-88,-41,36
261,-1900,10,98,-4727,23,-85,-35,34
262,-1891,0,111,-4746,23,-87,-38,35
263,-1897,0,89,-4749,23,-90,-35,31
264,-1895,1,86,-4736,23,-87,-38,31
265,-1891,0,112,-4741,23,-86,-39,33
266,-1895,5,78,-4742,23,-87,-42,30
267,-1897,-5,104,-4734,23,-90,-40,37
268,-1894,10,104,-4744,23,-87,-38,37
269,-1896,0,90,-4733,23,-88,-42,35
270,-1892,14,100,-4750,23,-85,-39,35
271,-1892,8,98,-4738,23,-85,-45,40
272,-1894,-10,84,-4746,23,-90,-35,31
273,-1900,1,96,-4725,23,-89,-42,34
274,-1900,12,99,-4737,23,-86,-39,33
275,-1893,-8,100,-4743,23,-89,-42,36
276,-1883,4,98,-4754,23,-85,-36,32
277,-1893,8,93,-4755,23,-88,-38,34
278,-1897,-5,103,-4747,23,-86,-37,36
279,-1886,-2,111,-4737,23,-91,-40,31
280,-1897,-4,93,-4735,23,-94,-43,37
281,-1903,4,108,-4758,23,-89,-37,37
282,-1892,1,88,-4737,23,-87,-39,32
283,-1898,-10,82,-4743,23,-89,-41,36
284,-1894,-4,103,-4743,23,-88,-39,37
285,-1893,-1,87,-4742,23,-84,-36,35
286,-1891,-2,96,-4744,23,-89,-42,37
287,-1889,-6,94,-4744,23,-87,-35,31
288,-1892,-2,95,-4731,23,-87,-37,33
289,-1895,2,90,-4736,23,-84,-40,38
290,-1898,-1,83,-4743,23,-92,-38,33
291,-1898,-7,96,-4737,23,-84,-39,32
292,-1891,-6,86,-4733,23,-88,-39,35
293,-1890,-1,90,-4746,23,-87,-39,37
294,-1893,1,102,-4740,23,-86,-38,35
295,-1885,1,89,-4746,23,-87,-40,34
296,-1903,-1,100,-4732,23,-87,-40,34
297,-1894,2,108,-4744,23,-87,-38,34
298,-1897,0,95,-4743,23,-89,-39,37
299,-1887,4,92,-4750,23,-84,-32,34
300,-1889,-4,80,-4735,23,-86,-38,37
301,-1882,1,83,-4734,23,-85,-40,38
302,-1893,-6,77,-4729,23,-90,-36,31
303,-1895,-1,95,-4727,23,-83,-40,34
304,-1899,4,102,-4733,23,-81,-41,34
305,-1905,-8,83,-4747,23,-85,-33,35
306,-1890,7,85,-4743,23,-86,-40,29
307,-1887,6,83,-4742,23,-86,-34,34
308,-1897,5,92,-4746,23,-88,-36,36
309,-1901,-2,105,-4739,23,-88,-40,35
310,-1900,-6,76,-4744,23,-88,-34,38
311,-1898,-5,100,-4740,23,-82,-34,35
312,-1893,-4,93,-4744,23,-84,-38,34
313,-1886,1,90,-4746,23,-90,-41,36
314,-1893,8,91,-4735,23,-84,-42,29
315,-1893,3,101,-4736,23,-86,-38,35
316,-1890,-7,103,-4741,23,-86,-42,34
317,-1890,-6,91,-4728,23,-89,-43,36
318,-1894,9,107,-4756,23,-87,-41,29
319,-1905,1,92,-4732,23,-85,-39,34
320,-1895,3,87,-4740,23,-88,-40,35
321,-1884,5,80,-4745,23,-92,-37,35
322,-1904,4,89,-4738,23,-90,-37,36
323,-1896,-9,95,-4737,23,-89,-33,36
324,-1898,-7,93,-4732,23,-84,-39,32
325,-1890,-7,92,-4726,23,-84,-38,36
326,-1900,-1,93,-4745,23,-87,-41,32
327,-1898,-5,88,-4753,23,-84,-35,34
328,-1897,2,81,-4738,23,-81,-38,39
329,-1890,-5,92,-4750,23,-88,-36,31
330,-1891,-6,83,-4745,23,-83,-37,35
331,-1898,0,86,-4736,23,-92,-39,36
332,-1897,-11,89,-4737,23,-91,-38,30
333,-1900,1,96,-4743,23,-86,-40,34
334,-1897,-22,99,-4751,23,-89,-40,36
335,-1897,-2,103,-4747,23,-84,-37,32
336,-1897,-9,100,-4752,23,-87,-37,35
337,-1894,-9,88,-4750,23,-89,-40,34
338,-1895,1,81,-4733,23,-87,-35,35
339,-1889,-7,101,-4736,23,-90,-42,35
340,-1894,-8,101,-4740,23,-87,-42,30
341,-1902,3,104,-4729,23,-85,-35,39
342,-1895,-4,94,-4739,23,-87,-36,38
343,-1889,0,107,-4740,23,-87,-39,38
344,-1902,-2,93,-4739,23,-91,-39,32
345,-1891,-2,97,-4735,23,-91,-35,33
346,-1890,9,88,-4747,23,-87,-35,37
347,-1896,6,97,-4745,23,-88,-41,35
348,-1894,6,99,-4746,23,-84,-39,31
349,-1900,1,92,-4724,23,-91,-33,34
350,-1906,-1,84,-4737,23,-91,-40,31
351,-1900,-14,102,-4744,23,-89,-40,31
352,-1891,5,93,-4738,23,-90,-39,35
353,-1896,-5,98,-4758,23,-89,-38,32
354,-1898,7,90,-4734,23,-87,-37,34
355,-1891,-1,75,-4744,23,-87,-39,36
356,-1899,0,93,-4744,23,-85,-41,35
357,-1902,4,83,-4744,23,-86,-37,34
358,-1890,-6,113,-4721,23,-87,-35,33
359,-1889,-7,78,-4746,23,-88,-35,34
360,-1880,9,99,-4732,23,-92,-41,36
361,-1891,-4,91,-4750,23,-87,-37,36
362,-1893,-5,90,-4743,23,-84,-41,36
363,-1901,-7,99,-4744,23,-90,-38,34
364,-1904,0,86,-4746,23,-87,-38,28
365,-1897,-5,79,-4750,23,-87,-40,36
366,-1886,11,98,-4742,23,-90,-44,31
367,-1889,-13,99,-4731,23,-87,-34,32
368,-1898,-3,92,-4747,23,-86,-37,30
369,-1897,2,85,-4745,23,-88,-38,35
370,-1896,-8,103,-4748,23,-86,-39,32
371,-1896,-6,102,-4745,23,-89,-36,36
372,-1896,5,101,-4733,23,-86,-34,35
373,-1903,-3,86,-4747,23,-91,-38,36
374,-1896,1,93,-4740,23,-87,-35,31
375,-1897,-3,98,-4741,23,-90,-40,37
376,-1893,6,108,-4738,23,-84,-40,36
377,-1897,-2,93,-4729,23,-87,-36,35
378,-1905,-6,96,-4744,23,-89,-40,35
379,-1894,4,87,-4744,23,-88,-40,36
380,-1896,2,89,-4752,23,-85,-40,35
381,-1909,10,83,-4739,23,-84,-38,38
382,-1887,1,100,-4755,23,-86,-36,34
383,-1899,-3,92,-4745,23,-88,-36,35
384,-1903,0,106,-4751,23,-84,-41,32
385,-1907,-6,80,-4752,23,-90,-43,36
386,-1904,-3,93,-4742,23,-89,-39,34
387,-1892,-1,93,-4739,23,-90,-38,30
388,-1895,2,106,-4732,23,-83,-42,34
389,-1895,5,86,-4747,23,-89,-40,37
390,-1903,-3,99,-4743,23,-87,-38,33
391,-1895,-3,84,-4736,23,-92,-38,33
392,-1899,8,89,-4743,23,-84,-42,34
393,-1900,-3,98,-4740,23,-83,-40,33
394,-1888,-1,105,-4742,23,-88,-43,37
395,-1897,-4,85,-4739,23,-84,-41,34
396,-1900,9,99,-4735,23,-88,-42,34
397,-1911,-2,105,-4746,23,-88,-34,35
398,-1891,2,98,-4744,23,-89,-41,34
399,-1894,-9,97,-4743,23,-84,-41,33
400,-1897,4,93,-4736,23,-87,-36,39
401,-1891,-3,79,-4760,22,-86,-35,33
402,-1878,-15,92,-4735,23,-87,-39,33
403,-1880,-16,89,-4740,23,-86,-39,35
404,-1894,3,72,-4736,23,-89,-37,35
405,-1898,-3,87,-4725,23,-89,-31,38
406,-1897,-7,84,-4751,23,-86,-39,32
407,-1898,-10,85,-4739,23,-88,-39,33
408,-1890,-6,95,-4743,23,-85,-38,34
409,-1894,-2,81,-4753,23,-87,-34,32
410,-1910,-1,102,-4741,23,-85,-37,34
411,-1887,-6,90,-4740,23,-85,-40,30
412,-1906,-2,95,-4720,23,-86,-39,36
413,-1889,2,84,-4732,23,-90,-38,32
414,-1892,0,87,-4747,23,-90,-43,35
415,-1899,-9,84,-4723,23,-90,-38,32
416,-1898,3,98,-4728,23,-90,-40,32
417,-1898,-6,102,-4734,23,-87,-38,33
418,-1883,-1,75,-4745,23,-87,-37,33
419,-1901,-5,99,-4748,23,-85,-36,34
420,-1889,4,97,-4739,23,-82,-42,37
421,-1901,-7,98,-4750,23,-90,-33,33
422,-1906,2,89,-4738,23,-83,-37,29
423,-1901,-9,87,-4737,23,-86,-39,34
424,-1883,-8,104,-4731,23,-85,-38,38
425,-1902,2,97,-4731,23,-85,-37,36
426,-1893,2,76,-4736,23,-89,-40,37
427,-1899,-6,92,-4741,23,-86,-34,36
428,-1903,-5,102,-4737,23,-87,-41,37
429,-1896,4,91,-4738,23,-87,-42,38
430,-1900,5,97,-4736,23,-91,-43,33
431,-1893,3,101,-4734,23,-87,-41,37
432,-1905,1,86,-4744,23,-93,-35,35
433,-1895,-3,97,-4738,23,-86,-41,31
434,-1900,2,92,-4739,23,-91,-42,36
435,-1881,0,97,-4741,23,-86,-35,31
436,-1898,-12,88,-4746,23,-87,-37,35
437,-1894,4,97,-4754,23,-90,-36,35
438,-1898,-7,92,-4745,23,-83,-44,33
439,-1888,9,99,-4734,23,-82,-34,32
440,-1892,-2,89,-4738,23,-84,-38,37
441,-1895,4,96,-4732,23,-84,-36,34
442,-1893,1,97,-4729,23,-87,-36,35
443,-1894,1,83,-4746,23,-86,-37,34
444,-1901,0,100,-4747,23,-86,-38,36
445,-1898,4,95,-4742,23,-90,-36,33
446,-1892,0,107,-4755,23,-88,-37,38
447,-1896,-5,101,-4748,23,-87,-38,32
448,-1890,2,78,-4745,23,-88,-39,34
449,-1894,-8,79,-4746,23,-89,-41,35
450,-1895,7,94,-4734,23,-83,-40,33
451,-1893,0,102,-4731,23,-82,-38,35
452,-1903,6,101,-4741,23,-88,-39,33
453,-1890,3,91,-4743,23,-93,-39,32
454,-1890,-1,88,-4745,23,-84,-44,38
455,-1902,-4,94,-4738,23,-87,-40,34
456,-1886,1,99,-4731,23,-87,-39,29
457,-1903,-9,103,-4740,23,-84,-42,37
458,-1894,-6,84,-4741,23,-85,-40,34
459,-1895,-11,104,-4731,23,-83,-39,36
460,-1903,-12,92,-4743,23,-90,-34,33
461,-1893,2,78,-4739,23,-88,-39,37
462,-1886,-8,99,-4741,23,-86,-42,39
463,-1894,3,88,-4743,23,-91,-41,34
464,-1897,-9,83,-4753,23,-83,-39,37
465,-1890,-8,88,-4751,23,-83,-41,33
466,-1896,-5,88,-4743,23,-88,-37,33
467,-1891,-2,111,-4725,23,-83,-35,34
468,-1889,3,95,-4754,23,-84,-36,37
469,-1893,-1,103,-4738,23,-91,-33,33
470,-1902,7,97,-4734,23,-84,-38,32
471,-1886,-9,94,-4735,23,-82,-39,31
472,-1883,-1,90,-4727,23,-87,-40,35
473,-1898,-3,81,-4734,23,-83,-45,39
474,-1897,6,99,-4752,23,-86,-37,35
475,-1899,6,108,-4735,23,-87,-40,33
476,-1899,-11,95,-4740,23,-82,-36,31
477,-1884,-6,102,-4722,23,-86,-35,35
478,-1902,-6,96,-4737,23,-83,-37,36
479,-1896,-5,103,-4728,23,-87,-34,36
480,-1890,1,87,-4733,23,-85,-35,36
481,-1902,-6,81,-4733,23,-87,-37,31
482,-1891,-5,91,-4737,23,-89,-44,36
483,-1899,-8,97,-4749,23,-87,-33,37
484,-1896,-1,90,-4738,23,-86,-41,31
485,-1903,-1,83,-4740,23,-84,-38,36
486,-1891,4,96,-4740,23,-87,-41,35
487,-1889,4,111,-4739,23,-86,-38,32
488,-1893,2,96,-4740,23,-88,-41,27
489,-1893,4,91,-4735,23,-84,-40,39
490,-1892,-2,88,-4748,23,-81,-39,38
491,-1897,1,92,-4743,23,-87,-41,33
492,-1885,-6,92,-4729,23,-88,-39,36
493,-1893,4,106,-4742,23,-87,-40,30
494,-1901,3,91,-4736,23,-89,-38,37
495,-1898,-12,94,-4743,23,-87,-36,32
496,-1895,11,108,-4742,23,-90,-41,36
497,-1887,0,92,-4740,23,-87,-37,37
498,-1891,-4,93,-4731,23,-86,-43,34
499,-1892,-2,83,-4746,23,-88,-45,34
500,-1897,2,98,-4731,23,-86,-42,37
501,-1902,-7,109,-4747,23,-92,-37,32
502,-1904,-1,109,-4733,23,-84,-38,36
503,-1889,-12,93,-4738,23,-90,-40,36
504,-1899,2,104,-4741,23,-87,-40,33
505,-1898,1,89,-4738,23,-86,-40,32
506,-1889,7,96,-4743,23,-87,-40,34
507,-1905,-2,101,-4748,23,-90,-36,35
508,-1902,0,82,-4733,23,-87,-37,33
509,-1903,2,86,-4745,23,-85,-40,33
510,-1898,-1,98,-4729,23,-79,-37,35
511,-1893,3,97,-4742,23,-86,-37,34
512,-1890,-1,82,-4743,23,-84,-40,33
513,-1893,-10,98,-4723,23,-84,-42,37
514,-1906,4,93,-4738,23,-89,-38,32
515,-1887,-9,96,-4748,23,-87,-39,38
516,-1891,-7,95,-4726,23,-90,-41,35
517,-1890,-6,101,-4732,23,-90,-40,35
518,-1888,-6,97,-4720,23,-88,-35,34
519,-1878,-3,98,-4742,23,-88,-39,36
520,-1895,-7,112,-4730,23,-85,-38,35
521,-1891,-4,105,-4741,23,-88,-37,33
522,-1905,2,99,-4738,23,-87,-42,35
523,-1888,-4,82,-4736,23,-87,-44,33
524,-1891,8,80,-4730,23,-89,-40,31
525,-1895,-8,104,-4724,23,-88,-38,33
526,-1889,-5,107,-4728,23,-85,-43,31
527,-1889,-4,102,-4744,23,-87,-36,33
528,-1895,-1,87,-4751,23,-87,-36,35
529,-1893,-3,73,-4742,23,-89,-36,35
530,-1890,-7,91,-4744,23,-83,-41,37
531,-1896,-3,105,-4735,23,-89,-38,32
532,-1901,-7,101,-4739,23,-91,-38,34
533,-1888,6,94,-4741,23,-87,-41,34
534,-1890,-10,88,-4732,23,-88,-42,37
535,-1887,5,97,-4734,23,-84,-42,33
536,-1890,-6,86,-4732,23,-88,-40,36
537,-1888,9,99,-4737,23,-82,-36,36
538,-1891,-1,99,-4729,23,-84,-42,36
539,-1903,0,92,-4728,23,-83,-35,34
540,-1885,1,102,-4736,23,-84,-36,35
541,-1889,-7,85,-4730,23,-89,-37,33
542,-1905,2,89,-4737,23,-83,-35,35
543,-1892,10,76,-4722,23,-84,-36,29
544,-1900,-2,85,-4731,23,-84,-38,33
545,-1894,4,89,-4735,23,-88,-39,32
546,-1896,0,93,-4723,23,-85,-40,36
547,-1895,-2,84,-4729,23,-86,-38,28
548,-1898,0,87,-4738,23,-89,-33,31
549,-1894,6,88,-4743,23,-87,-41,34
550,-1902,3,87,-4751,23,-88,-38,37
551,-1901,-3,96,-4746,23,-88,-40,34
552,-1897,6,81,-4732,23,-89,-38,33
553,-1883,2,104,-4755,23,-89,-35,40
554,-1894,-1,82,-4737,23,-89,-41,31
555,-1901,4,103,-4737,23,-83,-36,33
556,-1899,6,89,-4729,23,-88,-39,38
557,-1894,-1,78,-4734,23,-83,-38,33
558,-1901,-3,93,-4740,23,-87,-41,35
559,-1901,1,93,-4737,23,-91,-34,35
560,-1888,-1,97,-4730,23,-86,-36,33
561,-1897,-4,94,-4737,23,-83,-36,36
562,-1894,-6,94,-4732,23,-89,-31,38
563,-1899,3,96,-4734,23,-89,-35,29
564,-1902,-4,96,-4720,23,-89,-39,34
565,-1900,-2,84,-4739,23,-84,-41,34
566,-1903,-12,77,-4744,23,-86,-36,30
567,-1890,-1,94,-4734,23,-86,-43,37
568,-1894,1,99,-4745,23,-87,-40,34
569,-1891,-7,95,-4734,23,-87,-41,36
570,-1890,-6,83,-4723,23,-83,-36,34
571,-1887,-7,102,-4731,23,-89,-43,30
572,-1894,1,92,-4740,23,-83,-37,33
573,-1897,-3,83,-4724,23,-88,-41,33
574,-1902,3,93,-4733,23,-86,-34,36
575,-1887,-2,94,-4743,23,-89,-38,34
576,-1901,-4,103,-4735,23,-87,-36,34
577,-1891,4,83,-4737,23,-86,-38,35
578,-1895,-2,87,-4739,23,-84,-38,34
579,-1900,-1,97,-4742,23,-85,-37,38
580,-1895,8,94,-4749,23,-88,-37,37
581,-1891,-1,80,-4730,23,-84,-39,35
582,-1885,-4,110,-4734,23,-86,-35,33
583,-1894,-5,90,-4721,23,-86,-41,31
584,-1885,-3,96,-4740,23,-87,-36,35
585,-1904,6,95,-4727,23,-88,-43,34
586,-1891,4,90,-4744,23,-86,-42,35
587,-1896,-4,97,-4742,23,-88,-37,33
588,-1892,-10,98,-4735,23,-88,-34,35
589,-1887,1,99,-4733,23,-84,-40,35
590,-1903,-8,95,-4736,23,-93,-33,38
591,-1896,-9,84,-4733,23,-85,-38,33
592,-1899,0,96,-4736,23,-89,-38,34
593,-1894,-6,97,-4725,23,-83,-40,33
594,-1893,-6,80,-4731,23,-87,-40,35
595,-1891,5,86,-4729,23,-85,-39,35
596,-1888,2,91,-4734,23,-86,-41,37
597,-1897,1,90,-4730,23,-87,-38,33
598,-1901,0,96,-4744,23,-92,-42,36
599,-1900,-1,92,-4739,23,-88,-35,35
600,-1897,-9,89,-4738,23,-90,-42,34
601,-1897,-3,100,-4735,23,-88,-43,33
602,-1891,-10,93,-4741,23,-89,-37,37
603,-1896,2,101,-4724,23,-87,-40,37
604,-1895,-5,82,-4720,23,-83,-38,32
605,-1903,5,87,-4740,23,-87,-38,34
606,-1896,-11,88,-4737,23,-91,-42,34
607,-1896,-7,95,-4736,23,-86,-40,33
608,-1899,-2,78,-4743,23,-87,-38,33
609,-1897,-4,108,-4744,23,-84,-44,34
610,-1891,4,92,-4726,23,-85,-36,36
611,-1890,-4,81,-4744,23,-80,-40,35
612,-1895,-7,76,-4735,23,-88,-40,40
613,-1889,5,108,-4748,23,-86,-34,32
614,-1882,-10,96,-4734,23,-85,-38,34
615,-1898,9,91,-4737,23,-85,-37,36
616,-1882,-2,85,-4739,23,-86,-41,35
617,-1888,1,93,-4730,23,-91,-39,33
618,-1889,-8,94,-4735,23,-88,-41,34
619,-1883,4,104,-4734,23,-86,-37,32
620,-1898,-3,96,-4727,23,-86,-39,31
621,-1885,-2,91,-4730,23,-86,-40,33
622,-1897,3,99,-4725,23,-89,-42,33
623,-1896,-12,92,-4745,23,-87,-42,35
624,-1892,-12,106,-4742,23,-87,-41,31
625,-1887,-1,98,-4736,23,-87,-39,33
626,-1898,1,93,-4718,23,-87,-43,34
627,-1888,-3,93,-4743,23,-88,-44,35
628,-1895,3,93,-4738,23,-89,-39,37
629,-1889,0,94,-4736,23,-90,-35,37
630,-1892,0,91,-4718,23,-83,-41,35
631,-1888,-3,81,-4737,23,-86,-38,30
632,-1900,-1,96,-4734,23,-86,-39,33
633,-1894,2,100,-4749,23,-88,-41,35
634,-1895,3,105,-4752,23,-87,-40,34
635,-1891,8,106,-4731,23,-86,-42,39
636,-1897,-3,89,-4741,23,-87,-39,33
637,-1893,-9,104,-4735,23,-85,-33,35
638,-1900,5,86,-4730,23,-89,-37,33
639,-1892,-9,108,-4733,23,-86,-37,37
640,-1893,-11,84,-4755,23,-91,-36,34
641,-1889,3,106,-4739,23,-87,-39,37
642,-1897,-17,90,-4744,23,-93,-35,32
643,-1887,-2,80,-4721,23,-92,-39,34
644,-1893,-3,76,-4736,23,-83,-37,35
645,-1888,3,89,-4731,23,-89,-39,35
646,-1892,1,85,-4749,23,-86,-37,33
647,-1899,6,84,-4728,23,-82,-41,35
648,-1886,1,89,-4728,23,-90,-39,32
649,-1890,-7,104,-4748,23,-87,-38,30
650,-1895,-3,101,-4731,23,-86,-41,32
651,-1897,-7,94,-4740,23,-89,-41,36
652,-1895,-1,93,-4747,23,-86,-42,34
653,-1894,-5,86,-4742,23,-89,-36,37
654,-1897,-1,75,-4738,23,-82,-36,34
655,-1900,2,92,-4726,23,-85,-38,34
656,-1892,2,97,-4741,23,-87,-37,32
657,-1885,8,93,-4747,23,-82,-42,32
658,-1899,1,96,-4736,23,-86,-38,34
659,-1902,-9,97,-4721,23,-89,-40,30
660,-1895,-2,98,-4732,23,-86,-37,35
661,-1894,-1,100,-4745,23,-87,-36,37
662,-1896,5,84,-4740,23,-91,-34,35
663,-1889,1,93,-4728,23,-89,-37,34
664,-1897,-4,88,-4738,23,-83,-36,31
665,-1898,-4,90,-4736,23,-82,-40,37
666,-1899,-2,91,-4737,23,-83,-38,33
667,-1898,-6,95,-4745,23,-89,-39,35
668,-1885,-3,97,-4740,23,-84,-46,34
669,-1899,0,89,-4736,23,-87,-35,33
670,-1900,-3,78,-4744,23,-86,-35,36
671,-1883,3,85,-4739,23,-86,-42,33
672,-1897,-1,92,-4740,23,-87,-40,36
673,-1902,-2,88,-4728,23,-85,-36,36
674,-1893,5,94,-4734,23,-85,-36,37
675,-1891,-1,91,-4732,23,-86,-39,30
676,-1892,-2,96,-4733,23,-89,-42,31
677,-1895,-4,99,-4743,23,-86,-40,31
678,-1892,-1,97,-4737,23,-90,-39,32
679,-1896,-17,94,-4745,23,-85,-37,35
680,-1891,-1,85,-4731,23,-87,-39,36
681,-1894,-4,98,-4744,23,-91,-37,32
682,-1892,0,100,-4736,23,-83,-38,34
683,-1900,-10,95,-4751,23,-86,-38,35
684,-1899,-9,100,-4732,23,-86,-37,32
685,-1900,-12,92,-4743,23,-87,-37,35
686,-1891,-8,92,-4737,23,-89,-38,33
687,-1892,2,96,-4740,23,-89,-38,35
688,-1897,-15,93,-4734,23,-92,-40,36
689,-1905,-3,95,-4745,23,-87,-39,31
690,-1895,-5,82,-4728,23,-88,-39,38
691,-1893,-7,99,-4743,23,-88,-39,35
692,-1894,-7,94,-4761,22,-81,-38,36
693,-1896,-2,107,-4741,23,-88,-40,36
694,-1904,-2,98,-4740,23,-86,-39,35
695,-1885,-1,98,-4729,23,-87,-39,32
696,-1895,6,89,-4734,23,-85,-37,35
697,-1897,-8,111,-4736,23,-86,-36,35
698,-1893,-2,74,-4731,23,-84,-37,36
699,-1894,-8,101,-4734,23,-90,-39,38
700,-1900,-7,90,-4731,23,-88,-40,34
701,-1897,0,96,-4732,23,-84,-36,38
702,-1890,-13,97,-4723,23,-86,-36,30
703,-1896,4,98,-4739,23,-89,-40,36
704,-1889,-15,94,-4725,23,-89,-31,33
705,-1895,-6,86,-4739,23,-86,-37,36
706,-1885,-1,91,-4746,23,-90,-40,32
707,-1884,-3,87,-4737,23,-88,-41,36
708,-1895,-8,99,-4737,23,-86,-40,33
709,-1895,3,84,-4756,23,-88,-35,35
710,-1900,5,93,-4725,23,-87,-37,36
711,-1897,-11,88,-4744,23,-90,-39,36
712,-1896,2,95,-4749,23,-90,-40,36
713,-1888,-5,91,-4731,23,-90,-35,32
714,-1900,1,80,-4741,23,-84,-38,37
715,-1903,1,106,-4740,23,-89,-35,32
716,-1905,-2,105,-4727,23,-87,-39,30
717,-1894,1,98,-4731,23,-88,-43,37
718,-1890,-3,103,-4738,23,-88,-43,37
719,-1895,1,83,-4739,23,-85,-42,40
720,-1888,2,84,-4740,23,-86,-41,34
721,-1890,-5,86,-4729,23,-89,-38,33
722,-1902,6,92,-4738,23,-90,-40,32
723,-1899,-2,91,-4734,23,-83,-41,34
724,-1894,-13,89,-4742,23,-91,-37,35
725,-1902,6,114,-4750,23,-89,-36,34
726,-1884,-9,100,-4735,23,-86,-36,35
727,-1897,-4,97,-4740,23,-89,-38,33
728,-1894,1,88,-4731,23,-86,-37,32
729,-1891,0,99,-4735,23,-87,-43,35
730,-1894,-1,99,-4732,23,-84,-44,33
731,-1901,-9,98,-4739,23,-86,-36,38
732,-1905,-2,84,-4733,23,-81,-40,41
733,-1893,-3,88,-4747,23,-84,-36,34
734,-1888,-4,106,-4748,23,-83,-40,33
735,-1894,3,87,-4727,23,-87,-38,33
736,-1889,-9,109,-4742,23,-87,-47,33
737,-1894,3,87,-4749,23,-84,-41,35
738,-1904,-5,113,-4746,23,-86,-38,32
739,-1889,1,97,-4733,23,-91,-42,32
740,-1880,-2,95,-4735,23,-84,-33,31
741,-1890,-1,79,-4736,23,-87,-36,36
742,-1905,-3,99,-4720,23,-87,-40,34
743,-1889,-6,89,-4724,23,-85,-40,38
744,-1906,3,108,-4744,23,-89,-36,32
745,-1896,1,84,-4745,23,-85,-39,37
746,-1895,-7,93,-4753,23,-84,-37,33
747,-1891,-7,88,-4737,23,-90,-39,33
748,-1893,-5,103,-4729,23,-89,-42,36
749,-1897,-1,91,-4738,23,-89,-38,31
750,-1899,0,88,-4750,23,-85,-41,33
751,-1897,-12,89,-4745,23,-84,-34,35
752,-1904,-7,97,-4721,23,-86,-36,33
753,-1886,-6,97,-4730,23,-86,-38,37
754,-1881,7,94,-4741,23,-86,-39,37
755,-1901,-11,98,-4746,23,-86,-38,31
756,-1894,-10,91,-4728,23,-84,-41,34
757,-1902,-7,89,-4733,23,-82,-36,34
758,-1896,1,98,-4729,23,-87,-40,36
759,-1896,-1,86,-4729,23,-89,-39,37
760,-1893,-9,86,-4737,23,-87,-41,33
761,-1893,-3,93,-4737,23,-88,-38,35
762,-1889,3,82,-4732,23,-89,-38,32
763,-1893,1,104,-4746,23,-86,-38,34
764,-1890,-2,77,-4732,23,-85,-41,31
765,-1889,-7,89,-4733,23,-88,-38,35
766,-1898,7,94,-4734,23,-88,-37,36
767,-1899,-2,83,-4747,23,-88,-37,36
768,-1884,0,103,-4735,23,-87,-37,32
769,-1891,7,102,-4736,23,-87,-43,35
770,-1906,1,86,-4743,23,-86,-38,33
771,-1902,-4,101,-4725,23,-90,-43,31
772,-1899,13,92,-4740,23,-87,-37,35
773,-1895,-3,80,-4729,23,-84,-40,37
774,-1898,-1,92,-4740,23,-89,-40,37
775,-1898,2,84,-4732,23,-83,-40,36
776,-1891,2,81,-4739,23,-85,-37,32
777,-1894,5,87,-4731,23,-87,-43,35
778,-1893,-7,76,-4726,23,-85,-38,38
779,-1904,-10,98,-4729,23,-85,-36,38
780,-1890,-1,92,-4736,23,-86,-37,37
781,-1900,5,80,-4739,23,-84,-36,35
782,-1892,-5,98,-4732,23,-89,-38,36
783,-1894,-4,114,-4732,23,-87,-42,38
784,-1901,-3,89,-4737,23,-84,-36,34
785,-1890,1,95,-4738,23,-87,-39,37
786,-1897,1,95,-4743,23,-91,-40,35
787,-1893,5,90,-4723,23,-87,-37,31
788,-1877,-2,81,-4729,23,-90,-40,34
789,-1890,2,100,-4732,23,-83,-44,34
790,-1892,0,110,-4727,23,-89,-39,36
791,-1895,-1,84,-4741,23,-89,-41,34
792,-1894,-6,85,-4738,23,-88,-44,36
793,-1902,5,92,-4746,23,-85,-38,37
794,-1892,2,99,-4728,23,-82,-32,37
795,-1893,3,82,-4732,23,-87,-34,36
796,-1898,1,85,-4738,23,-84,-39,41
797,-1894,-4,88,-4733,23,-87,-40,30
798,-1894,0,90,-4739,23,-87,-37,37
799,-1900,-1,102,-4731,23,-87,-38,37
800,-1889,-5,87,-4735,23,-86,-39,37
801,-1896,-9,101,-4729,23,-83,-39,35
802,-1890,-4,83,-4723,23,-87,-39,34
803,-1889,-2,83,-4743,23,-90,-39,38
804,-1894,0,82,-4737,23,-90,-40,30
805,-1900,0,103,-4743,23,-86,-38,33
806,-1888,-17,96,-4733,23,-86,-37,34
807,-1891,-14,83,-4750,23,-86,-40,39
808,-1903,-3,81,-4730,23,-86,-34,33
809,-1894,2,82,-4745,23,-87,-41,33
810,-1895,-4,93,-4740,23,-85,-41,35
811,-1894,-4,102,-4730,23,-84,-41,37
812,-1883,-1,94,-4726,23,-86,-43,33
813,-1896,6,91,-4740,23,-87,-34,33
814,-1898,2,92,-4729,23,-87,-35,36
815,-1897,-3,99,-4739,23,-84,-39,34
816,-1898,-6,94,-4746,23,-88,-39,36
817,-1895,0,97,-4737,23,-85,-37,34
818,-1890,-2,105,-4739,23,-92,-36,32
819,-1895,-9,90,-4727,23,-84,-40,33
820,-1897,-12,78,-4739,23,-90,-38,35
821,-1893,-6,94,-4739,23,-86,-42,38
822,-1893,-6,105,-4735,23,-84,-41,35
823,-1890,-4,96,-4728,23,-90,-41,31
824,-1889,1,86,-4731,23,-92,-37,34
825,-1880,-12,86,-4735,23,-92,-42,32
826,-1894,2,88,-4730,23,-83,-37,34
827,-1892,-3,91,-4735,23,-89,-42,37
828,-1890,3,91,-4736,23,-82,-38,35
829,-1896,-6,85,-4741,23,-87,-40,34
830,-1888,-1,91,-4738,23,-88,-36,31
831,-1892,9,94,-4717,23,-86,-41,36
832,-1886,1,94,-4747,23,-89,-39,35
833,-1904,-8,98,-4744,23,-88,-42,33
834,-1891,-11,101,-4733,23,-91,-40,37
835,-1883,-4,101,-4729,23,-85,-38,39
836,-1887,3,88,-4716,23,-85,-43,39
837,-1893,4,104,-4736,23,-83,-41,33
838,-1901,-12,88,-4723,23,-81,-37,31
839,-1897,3,94,-4731,23,-87,-37,37
840,-1888,3,107,-4730,23,-90,-37,34
841,-1895,-5,94,-4736,23,-86,-43,36
842,-1893,-5,99,-4730,23,-86,-39,32
843,-1896,-5,84,-4717,23,-85,-46,32
844,-1887,-5,95,-4747,23,-88,-43,35
845,-1900,-5,89,-4729,23,-89,-39,36
846,-1887,5,80,-4734,23,-84,-40,34
847,-1900,-4,99,-4731,23,-87,-38,36
848,-1891,-2,102,-4735,23,-85,-41,32
849,-1885,9,86,-4733,23,-85,-44,35
850,-1897,-2,95,-4743,23,-88,-42,33
851,-1896,8,90,-4742,23,-91,-38,34
852,-1895,-8,99,-4742,23,-85,-37,33
853,-1897,2,76,-4732,23,-90,-43,34
854,-1883,0,80,-4726,23,-87,-40,36
855,-1899,-14,89,-4732,23,-89,-38,34
856,-1901,2,97,-4730,23,-90,-35,35
857,-1896,-4,96,-4735,23,-86,-41,32
858,-1886,8,83,-4747,23,-86,-44,32
859,-1895,-3,94,-4738,23,-88,-38,29
860,-1899,-5,99,-4743,23,-84,-40,35
861,-1886,-4,92,-4735,23,-89,-39,42
862,-1900,-2,99,-4743,23,-87,-39,33
863,-1885,7,93,-4731,23,-88,-36,34
864,-1894,-4,91,-4732,23,-88,-34,35
865,-1890,-1,97,-4734,23,-87,-39,32
866,-1895,1,100,-4732,23,-83,-41,37
867,-1900,-4,97,-4747,23,-85,-38,34
868,-1900,3,93,-4736,23,-89,-38,39
869,-1890,4,88,-4738,23,-88,-39,38
870,-1895,0,98,-4735,23,-85,-38,34
871,-1895,-5,87,-4723,23,-88,-42,36
872,-1899,-11,101,-4735,23,-90,-40,33
873,-1908,-3,100,-4734,23,-81,-35,36
874,-1894,5,92,-4732,23,-89,-35,33
875,-1893,-2,115,-4746,23,-87,-42,36
876,-1897,-11,87,-4729,23,-90,-32,38
877,-1893,3,92,-4721,23,-85,-39,34
878,-1893,-2,85,-4743,23,-80,-35,37
879,-1891,-9,99,-4737,23,-87,-36,31
880,-1895,5,94,-4727,23,-87,-37,35
881,-1889,-8,96,-4736,23,-83,-42,32
882,-1893,8,107,-4730,23,-86,-42,29
883,-1894,1,88,-4713,23,-88,-36,33
884,-1896,-8,94,-4735,23,-87,-37,34
885,-1893,11,103,-4746,23,-89,-39,33
886,-1892,-4,99,-4723,23,-88,-40,33
887,-1888,-6,96,-4734,23,-89,-39,34
888,-1901,1,96,-4724,23,-88,-39,31
889,-1894,1,108,-4731,23,-89,-38,33
890,-1890,-4,98,-4733,23,-85,-42,37
891,-1904,-5,97,-4738,23,-88,-41,33
892,-1899,0,89,-4731,23,-88,-35,37
893,-1897,-13,99,-4730,23,-85,-37,33
894,-1900,8,95,-4719,23,-86,-42,35
895,-1898,6,84,-4737,23,-87,-37,32
896,-1900,8,97,-4727,23,-87,-42,35
897,-1892,2,89,-4739,23,-88,-46,37
898,-1892,-2,106,-4727,23,-87,-35,33
899,-1890,-1,83,-4728,23,-87,-40,39
900,-1899,2,85,-4728,23,-83,-42,33
901,-1897,-9,98,-4725,23,-92,-33,36
902,-1894,3,114,-4729,23,-83,-38,33
903,-1897,5,94,-4746,23,-88,-40,35
904,-1889,5,82,-4734,23,-85,-37,35
905,-1888,-3,84,-4737,23,-87,-40,36
906,-1895,1,92,-4746,23,-88,-38,33
907,-1895,-6,94,-4735,23,-87,-40,37
908,-1890,6,83,-4730,23,-85,-42,32
909,-1904,-10,85,-4730,23,-84,-41,34
910,-1888,0,80,-4733,23,-85,-43,35
911,-1893,6,97,-4742,23,-88,-33,37
912,-1893,-10,74,-4717,23,-88,-40,34
913,-1892,-3,94,-4735,23,-88,-36,40
914,-1903,-4,96,-4728,23,-87,-36,34
915,-1899,-2,93,-4744,23,-85,-37,35
916,-1896,2,98,-4723,23,-86,-39,34
917,-1899,3,94,-4740,23,-84,-39,30
918,-1886,-6,98,-4734,23,-89,-40,36
919,-1900,-15,98,-4725,23,-83,-42,35
920,-1893,-13,88,-4722,23,-81,-40,34
921,-1890,-12,110,-4718,23,-87,-40,35
922,-1886,-3,114,-4732,23,-86,-41,37
923,-1894,-9,99,-4747,23,-87,-40,33
924,-1909,5,102,-4732,23,-90,-42,35
925,-1891,-2,89,-4732,23,-85,-40,31
926,-1900,9,86,-4730,23,-87,-40,35
927,-1890,12,77,-4742,23,-87,-38,36
928,-1895,-9,100,-4737,23,-88,-38,35
929,-1901,-5,95,-4726,23,-91,-41,35
930,-1895,-10,88,-4734,23,-85,-42,32
931,-1902,-2,106,-4735,23,-84,-38,35
932,-1902,1,85,-4729,23,-89,-38,34
933,-1905,-13,84,-4726,23,-87,-35,36
934,-1892,1,95,-4722,23,-87,-38,35
935,-1905,-8,102,-4731,23,-85,-41,35
936,-1897,-5,92,-4731,23,-87,-36,30
937,-1900,1,90,-4724,23,-86,-42,38
938,-1905,-7,83,-4715,23,-90,-38,31
939,-1895,-1,101,-4726,23,-89,-33,37
940,-1896,0,88,-4718,23,-84,-41,34
941,-1890,-6,93,-4733,23,-88,-40,34
942,-1889,6,99,-4727,23,-90,-40,36
943,-1901,-4,92,-4732,23,-86,-37,34
944,-1898,-3,81,-4730,23,-87,-42,41
945,-1895,-9,91,-4728,23,-86,-40,35
946,-1893,-5,102,-4737,23,-90,-37,31
947,-1886,-1,96,-4736,23,-86,-44,37
948,-1886,-8,97,-4736,23,-85,-43,33
949,-1893,0,84,-4727,23,-88,-37,35
950,-1909,3,86,-4735,23,-90,-43,33
951,-1902,1,85,-4737,23,-85,-38,33
952,-1900,-2,89,-4745,23,-83,-44,36
953,-1894,1,99,-4731,23,-86,-40,36
954,-1894,-7,86,-4729,23,-82,-41,34
955,-1897,0,100,-4728,23,-91,-44,34
956,-1889,-16,99,-4727,23,-85,-40,34
957,-1888,-5,99,-4747,23,-87,-47,35
958,-1889,-9,82,-4738,23,-85,-38,28
959,-1893,-7,114,-4725,23,-83,-36,36
960,-1907,1,87,-4728,23,-89,-39,35
961,-1896,10,85,-4748,23,-87,-39,34
962,-1900,-6,95,-4725,23,-84,-39,34
963,-1888,-4,95,-4741,23,-87,-41,34
964,-1894,-11,103,-4725,23,-83,-39,33
965,-1886,-7,84,-4740,23,-87,-38,37
966,-1895,7,87,-4724,23,-90,-34,34
967,-1891,-12,85,-4729,23,-85,-38,35
968,-1888,0,109,-4736,23,-88,-42,33
969,-1890,-4,91,-4731,23,-89,-40,34
970,-1898,5,88,-4730,23,-83,-37,31
971,-1890,-2,90,-4729,23,-87,-37,33
972,-1904,-4,88,-4737,23,-91,-36,33
973,-1913,5,99,-4727,23,-86,-35,34
974,-1889,1,83,-4734,23,-88,-39,35
975,-1883,-4,96,-4721,23,-86,-37,35
976,-1893,-6,86,-4731,23,-92,-38,32
977,-1895,-5,79,-4741,23,-87,-34,32
978,-1893,-6,81,-4739,23,-85,-37,37
979,-1887,-4,91,-4738,23,-89,-42,36
980,-1886,-1,107,-4730,23,-87,-39,35
981,-1885,-2,98,-4724,23,-83,-36,38
982,-1894,8,88,-4742,23,-88,-41,34
983,-1896,6,84,-4734,23,-89,-37,33
984,-1899,5,97,-4720,23,-85,-37,36
985,-1893,-9,90,-4731,23,-87,-38,34
986,-1894,-1,95,-4733,23,-89,-40,32
987,-1887,-7,87,-4746,23,-87,-40,35
988,-1898,-4,88,-4742,23,-90,-43,34
989,-1887,-5,98,-4728,23,-91,-37,33
990,-1897,-6,97,-4738,23,-87,-41,34
991,-1897,-11,95,-4737,23,-87,-37,33
992,-1894,-11,82,-4728,23,-83,-39,34
993,-1894,6,95,-4735,23,-83,-40,36
994,-1893,0,82,-4732,23,-90,-39,36
995,-1887,-7,96,-4729,23,-88,-39,33
996,-1894,0,82,-4721,23,-87,-38,34
997,-1890,4,103,-4740,23,-88,-33,32
998,-1889,-4,96,-4753,23,-90,-38,41
