,acc_X,acc_Y,acc_Z,temp,tempC,gyr_X,gyr_Y,gyr_Z
0,-15120,-22,738,-4735,23,-44,-19,18
1,-15128,-28,744,-4736,23,-44,-19,18
2,-15140,-24,722,-4735,23,-44,-19,18
3,-15146,-26,736,-4736,23,-44,-19,17
4,-15152,-52,744,-4735,23,-44,-19,17
5,-15166,-42,766,-4735,23,-44,-19,18
6,-15190,-46,776,-4737,23,-44,-19,17
7,-15180,-32,762,-4737,23,-44,-19,17
8,-15160,-18,784,-4739,23,-44,-19,17
9,-15154,-12,768,-4740,23,-44,-19,17
10,-15154,-6,764,-4739,23,-44,-19,17
11,-15156,-10,770,-4736,23,-44,-19,17
12,-15160,-12,760,-4739,23,-44,-19,16
13,-15166,-6,762,-4734,23,-44,-20,16
14,-15180,0,756,-4735,23,-44,-20,16
15,-15146,-10,760,-4741,23,-44,-20,17
16,-15152,-16,768,-4742,23,-44,-19,17
17,-15140,-22,768,-4736,23,-44,-19,17
18,-15142,-24,764,-4735,23,-44,-19,17
19,-15154,-20,750,-4732,23,-44,-20,17
20,-15152,-14,742,-4733,23,-44,-20,17
21,-15168,-16,752,-4730,23,-44,-20,17
22,-15158,-30,774,-4731,23,-44,-20,17
23,-15160,-28,764,-4733,23,-44,-19,17
24,-15142,-36,752,-4730,23,-44,-19,17
25,-15146,-24,750,-4734,23,-44,-20,17
26,-15158,-30,738,-4734,23,-44,-19,17
27,-15140,-10,702,-4736,23,-44,-19,17
28,-15156,-8,732,-4735,23,-44,-19,17
29,-15134,16,726,-4734,23,-44,-20,17
30,-15138,6,744,-4737,23,-44,-20,17
31,-15144,-10,754,-4737,23,-44,-20,17
32,-15144,-8,758,-4734,23,-43,-19,17
33,-15154,-8,760,-4730,23,-44,-20,17
34,-15148,-6,758,-4731,23,-43,-20,17
35,-15162,-16,740,-4731,23,-44,-20,17
36,-15172,-14,732,-4731,23,-44,-20,16
37,-15174,-18,742,-4730,23,-44,-20,16
38,-15168,-12,736,-4730,23,-44,-20,17
39,-15146,2,744,-4733,23,-44,-20,17
40,-15134,0,744,-4731,23,-44,-20,16
41,-15154,-16,748,-4729,23,-44,-20,17
42,-15148,-14,738,-4730,23,-44,-20,17
43,-15142,-4,714,-4731,23,-44,-19,17
44,-15148,-16,724,-4729,23,-44,-19,17
45,-15142,-6,762,-4728,23,-44,-19,17
46,-15156,-20,764,-4725,23,-43,-19,18
47,-15148,-24,766,-4724,23,-43,-19,17
48,-15158,-24,750,-4724,23,-43,-19,17
49,-15150,-12,732,-4728,23,-44,-19,17
50,-15146,-22,716,-4725,23,-44,-19,17
51,-15140,-24,712,-4727,23,-44,-20,17
52,-15154,-10,736,-4724,23,-44,-20,17
53,-15164,-10,752,-4723,23,-44,-20,17
54,-15156,-20,780,-4723,23,-44,-20,17
55,-15166,-12,784,-4721,23,-44,-20,17
56,-15168,-16,742,-4725,23,-44,-20,17
57,-15166,-12,746,-4726,23,-44,-20,17
58,-15162,-24,754,-4723,23,-44,-19,17
59,-15158,-18,756,-4725,23,-44,-20,17
60,-15160,-30,774,-4723,23,-44,-20,17
61,-15168,-24,772,-4723,23,-43,-19,17
62,-15162,-10,764,-4722,23,-43,-19,17
63,-15174,-20,758,-4723,23,-44,-19,17
64,-15180,-2,758,-4725,23,-43,-19,17
65,-15166,-6,754,-4723,23,-44,-19,17
66,-15154,-2,780,-4719,23,-44,-20,17
67,-15152,-6,762,-4717,23,-44,-20,17
68,-15170,-6,756,-4718,23,-44,-20,17
69,-15160,0,746,-4720,23,-44,-20,18
70,-15146,-4,758,-4717,23,-44,-20,18
71,-15144,6,754,-4717,23,-43,-20,17
72,-15146,12,750,-4720,23,-44,-19,17
73,-15166,16,766,-4721,23,-44,-19,17
74,-15178,-2,754,-4718,23,-43,-19,17
75,-15190,-8,732,-4718,23,-44,-19,17
76,-15196,4,732,-4719,23,-43,-19,17
77,-15170,-8,742,-4722,23,-44,-19,17
78,-15152,-22,772,-4724,23,-44,-19,17
79,-15168,-20,756,-4720,23,-44,-20,17
80,-15174,-28,770,-4723,23,-44,-19,17
81,-15160,-40,750,-4719,23,-44,-19,17
82,-15158,-38,760,-4720,23,-44,-19,17
83,-15162,-40,756,-4717,23,-44,-19,16
84,-15148,-44,738,-4716,23,-44,-19,16
85,-15148,-18,714,-4716,23,-44,-19,16
86,-15156,-32,740,-4714,23,-44,-19,16
87,-15156,-20,756,-4715,23,-44,-19,17
88,-15180,-22,762,-4713,23,-44,-19,16
89,-15176,-44,766,-4713,23,-44,-19,16
90,-15152,-40,766,-4712,23,-44,-20,17
91,-15144,-22,760,-4712,23,-44,-19,17
92,-15138,-14,760,-4711,23,-44,-19,17
93,-15136,0,764,-4712,23,-43,-20,17
94,-15146,-18,774,-4707,23,-44,-20,17
95,-15150,-10,752,-4709,23,-44,-20,17
96,-15140,-24,750,-4712,23,-43,-19,17
97,-15136,-22,752,-4713,23,-44,-19,17
98,-15174,-4,758,-4713,23,-43,-19,17
99,-15162,-8,770,-4711,23,-43,-20,17
100,-15146,-4,754,-4709,23,-43,-19,17
101,-15146,-8,726,-4711,23,-44,-19,18
102,-15164,-8,736,-4713,23,-44,-20,17
103,-15144,-12,738,-4710,23,-44,-19,17
104,-15142,2,726,-4711,23,-44,-19,17
105,-15154,14,718,-4711,23,-44,-20,17
106,-15154,2,744,-4712,23,-44,-19,17
107,-15172,0,746,-4712,23,-44,-19,17
108,-15186,6,752,-4712,23,-44,-20,17
109,-15178,4,740,-4711,23,-44,-20,16
110,-15180,-18,748,-4712,23,-45,-20,17
111,-15146,-28,748,-4711,23,-44,-20,16
112,-15136,-22,758,-4710,23,-45,-20,17
113,-15138,-16,766,-4710,23,-45,-20,17
114,-15144,-20,764,-4711,23,-44,-20,17
115,-15134,-28,762,-4709,23,-44,-20,17
116,-15140,-18,758,-4711,23,-44,-20,17
117,-15132,-16,756,-4712,23,-44,-20,17
118,-15152,-10,728,-4708,23,-44,-20,17
119,-15146,4,736,-4710,23,-44,-19,17
120,-15148,-6,742,-4710,23,-44,-19,17
121,-15146,-4,754,-4709,23,-44,-19,17
122,-15140,-12,742,-4708,23,-44,-19,17
123,-15140,-32,738,-4708,23,-44,-19,17
124,-15138,-18,748,-4709,23,-44,-19,17
125,-15160,-14,752,-4707,23,-44,-19,17
126,-15168,-10,746,-4707,23,-43,-19,17
127,-15152,-24,748,-4705,23,-43,-19,17
128,-15150,-14,744,-4706,23,-43,-19,17
129,-15146,-16,736,-4706,23,-43,-19,17
130,-15136,-8,768,-4705,23,-43,-19,17
131,-15156,-24,730,-4706,23,-44,-19,17
132,-15148,-6,748,-4707,23,-44,-19,18
133,-15170,-14,764,-4710,23,-44,-19,18
134,-15162,-20,762,-4708,23,-45,-19,17
135,-15186,-34,762,-4709,23,-44,-19,17
136,-15172,-34,776,-4706,23,-44,-19,18
137,-15166,-26,764,-4705,23,-44,-19,18
138,-15160,-2,754,-4707,23,-43,-20,18
139,-15166,-14,774,-4710,23,-44,-20,18
140,-15168,-10,800,-4708,23,-44,-20,17
141,-15166,6,760,-4706,23,-44,-20,17
142,-15156,12,768,-4704,23,-44,-19,17
143,-15166,10,754,-4707,23,-43,-20,17
144,-15158,16,748,-4708,23,-44,-20,17
145,-15150,0,756,-4707,23,-44,-19,17
146,-15150,-10,758,-4705,23,-43,-19,16
147,-15136,-18,764,-4706,23,-43,-19,17
148,-15132,0,800,-4706,23,-43,-19,17
149,-15140,-22,756,-4705,23,-43,-20,17
150,-15150,-8,716,-4705,23,-43,-20,17
151,-15142,-8,702,-4705,23,-44,-20,17
152,-15142,-6,702,-4703,23,-44,-19,17
153,-15132,-18,706,-4701,23,-44,-19,17
154,-15128,-22,712,-4703,23,-43,-20,17
155,-15146,0,746,-4705,23,-44,-19,17
156,-15150,-14,748,-4703,23,-44,-20,17
157,-15158,-18,740,-4704,23,-44,-20,18
158,-15162,-14,748,-4702,23,-44,-20,17
159,-15154,-2,748,-4705,23,-44,-20,17
160,-15172,-2,756,-4704,23,-44,-19,17
161,-15168,-6,754,-4707,23,-44,-20,17
162,-15158,-6,742,-4708,23,-44,-20,17
163,-15174,6,734,-4706,23,-44,-19,16
164,-15164,-2,726,-4706,23,-44,-19,17
165,-15160,4,736,-4707,23,-43,-19,17
166,-15144,0,740,-4707,23,-43,-20,17
167,-15140,-24,776,-4707,23,-43,-20,17
168,-15138,-18,780,-4706,23,-44,-20,17
169,-15136,-22,772,-4702,23,-44,-19,17
170,-15142,-28,768,-4698,23,-44,-20,17
171,-15132,-22,740,-4697,23,-44,-20,17
172,-15136,-20,744,-4699,23,-44,-20,17
173,-15172,-10,742,-4699,23,-44,-20,16
174,-15166,-6,734,-4700,23,-45,-19,17
175,-15156,-20,756,-4699,23,-44,-19,17
176,-15142,-28,742,-4700,23,-45,-20,17
177,-15164,-34,766,-4701,23,-44,-19,17
178,-15170,-22,764,-4699,23,-44,-19,18
179,-15162,-22,752,-4700,23,-44,-20,17
180,-15164,-16,758,-4700,23,-44,-20,17
181,-15152,-10,754,-4699,23,-45,-19,18
182,-15158,-12,772,-4697,23,-44,-20,18
183,-15164,-16,752,-4697,23,-44,-19,18
184,-15162,-4,770,-4701,23,-44,-19,17
185,-15156,0,774,-4701,23,-44,-19,17
186,-15158,-2,764,-4698,23,-44,-20,17
187,-15164,-4,754,-4696,23,-44,-20,17
188,-15164,-22,778,-4696,23,-44,-19,17
189,-15152,2,782,-4698,23,-44,-19,17
190,-15168,8,778,-4698,23,-44,-19,17
191,-15154,4,756,-4700,23,-44,-20,17
192,-15152,-8,712,-4699,23,-44,-20,17
193,-15152,-4,726,-4696,23,-44,-20,17
194,-15142,-20,726,-4699,23,-44,-20,17
195,-15154,-18,724,-4697,23,-44,-20,17
196,-15156,-18,726,-4697,23,-44,-20,17
197,-15174,-30,728,-4696,23,-44,-20,17
198,-15184,-28,718,-4697,23,-44,-20,17
199,-15176,-4,722,-4696,23,-43,-20,17
200,-15146,-8,736,-4694,23,-43,-19,17
201,-15156,-18,746,-4695,23,-44,-19,17
202,-15162,-8,742,-4694,23,-44,-19,17
203,-15164,-14,756,-4693,23,-43,-20,17
204,-15164,-6,744,-4696,23,-44,-19,17
205,-15184,-14,774,-4696,23,-44,-20,17
206,-15168,-12,754,-4698,23,-44,-20,17
207,-15156,-22,736,-4698,23,-44,-19,18
208,-15150,-6,730,-4695,23,-44,-19,17
209,-15146,-10,736,-4695,23,-44,-19,17
210,-15148,-34,742,-4698,23,-43,-19,17
211,-15144,-26,756,-4697,23,-43,-20,17
212,-15136,-32,718,-4695,23,-43,-20,17
213,-15156,-18,720,-4694,23,-44,-20,17
214,-15150,-16,718,-4692,23,-44,-20,17
215,-15142,-20,722,-4691,23,-44,-20,17
216,-15150,-24,732,-4693,23,-45,-20,17
217,-15160,-6,712,-4691,23,-44,-20,17
218,-15170,-10,742,-4691,23,-44,-20,17
219,-15172,6,754,-4689,23,-44,-20,17
220,-15178,2,758,-4692,23,-44,-20,17
221,-15158,-6,720,-4692,23,-44,-20,17
222,-15166,-8,722,-4691,23,-44,-19,17
223,-15160,-14,746,-4691,23,-44,-20,17
224,-15164,-12,722,-4692,23,-44,-20,17
225,-15162,-12,718,-4689,23,-43,-19,17
226,-15156,-12,752,-4687,23,-43,-20,17
227,-15164,-8,758,-4689,23,-44,-20,17
228,-15158,-14,726,-4688,23,-44,-20,17
229,-15158,-34,740,-4690,23,-44,-19,17
230,-15150,-20,788,-4690,23,-44,-19,17
231,-15160,22,776,-4690,23,-44,-19,17
232,-15164,4,748,-4693,23,-44,-19,17
233,-15144,-14,768,-4691,23,-44,-19,17
234,-15138,0,750,-4692,23,-44,-19,17
235,-15130,-14,746,-4692,23,-43,-20,17
236,-15152,-22,762,-4692,23,-43,-20,17
237,-15142,-24,758,-4692,23,-43,-20,17
238,-15146,-30,752,-4692,23,-43,-19,16
239,-15130,-6,744,-4692,23,-43,-19,17
240,-15116,-10,744,-4692,23,-43,-20,17
241,-15160,-2,740,-4690,23,-43,-20,18
242,-15166,2,758,-4691,23,-44,-20,18
243,-15158,-8,764,-4692,23,-44,-20,17
244,-15142,-18,768,-4691,23,-44,-20,17
245,-15134,-8,764,-4688,23,-44,-20,17
246,-15142,-8,740,-4690,23,-44,-19,18
247,-15152,-12,752,-4690,23,-44,-19,17
248,-15136,-10,736,-4689,23,-44,-19,17
249,-15156,-6,766,-4691,23,-44,-20,18
250,-15148,0,742,-4691,23,-44,-19,17
251,-15164,-4,722,-4691,23,-44,-19,17
252,-15158,-18,758,-4693,23,-44,-19,17
253,-15164,-4,760,-4690,23,-44,-19,17
254,-15170,8,750,-4691,23,-44,-19,17
255,-15178,-6,734,-4690,23,-44,-19,17
256,-15166,0,744,-4691,23,-44,-19,17
257,-15176,0,762,-4691,23,-44,-20,17
258,-15160,0,778,-4687,23,-44,-19,17
259,-15154,4,754,-4687,23,-45,-19,17
260,-15152,2,748,-4688,23,-44,-20,17
261,-15150,-2,760,-4688,23,-44,-19,17
262,-15168,-6,764,-4687,23,-44,-19,18
263,-15160,-6,768,-4686,23,-44,-19,17
264,-15166,-10,762,-4689,23,-44,-19,17
265,-15180,-8,756,-4691,23,-44,-20,17
266,-15162,-24,742,-4690,23,-44,-19,17
267,-15158,-18,730,-4690,23,-44,-20,17
268,-15150,-22,728,-4689,23,-43,-20,17
269,-15132,-4,752,-4687,23,-44,-20,17
270,-15124,-14,750,-4685,23,-44,-19,17
271,-15146,-22,720,-4688,23,-44,-20,16
272,-15164,-12,702,-4687,23,-44,-20,17
273,-15162,-22,728,-4689,23,-44,-19,17
274,-15156,-28,772,-4688,23,-44,-20,17
275,-15144,4,774,-4687,23,-44,-20,17
276,-15144,10,770,-4686,23,-44,-20,17
277,-15144,6,748,-4685,23,-44,-20,17
278,-15162,4,744,-4689,23,-44,-19,17
279,-15160,-6,706,-4688,23,-44,-19,17
280,-15160,-16,722,-4687,23,-44,-19,17
281,-15158,4,730,-4687,23,-44,-19,17
282,-15154,-6,746,-4687,23,-44,-19,17
283,-15154,-10,760,-4691,23,-44,-19,17
284,-15154,-10,766,-4691,23,-44,-19,17
285,-15158,-8,762,-4690,23,-44,-19,18
286,-15150,-10,766,-4684,23,-43,-19,18
287,-15160,-16,746,-4683,23,-43,-19,17
288,-15164,-6,742,-4684,23,-43,-20,17
289,-15154,-10,726,-4683,23,-44,-20,17
290,-15166,-18,732,-4683,23,-44,-19,17
291,-15160,-28,750,-4685,23,-44,-19,17
292,-15166,-30,766,-4687,23,-45,-19,17
293,-15186,-24,760,-4685,23,-44,-19,17
294,-15176,-22,742,-4684,23,-44,-19,17
295,-15176,-24,752,-4686,23,-44,-20,16
296,-15154,-30,760,-4685,23,-44,-20,16
297,-15162,-32,738,-4686,23,-44,-20,17
298,-15166,-20,740,-4684,23,-43,-20,17
299,-15170,-12,746,-4682,23,-44,-20,17
300,-15148,0,778,-4683,23,-44,-20,17
301,-15158,6,774,-4684,23,-43,-20,17
302,-15162,20,778,-4683,23,-44,-20,17
303,-15160,26,748,-4684,23,-44,-20,18
304,-15160,4,762,-4683,23,-44,-19,18
305,-15166,-2,768,-4682,23,-44,-20,18
306,-15172,14,778,-4684,23,-44,-20,17
307,-15168,-2,794,-4688,23,-44,-19,17
308,-15180,-24,770,-4689,23,-44,-19,17
309,-15188,-30,738,-4685,23,-44,-19,17
310,-15176,-28,732,-4689,23,-44,-19,17
311,-15172,-20,722,-4689,23,-44,-19,17
312,-15154,-20,718,-4688,23,-44,-19,17
313,-15144,-14,728,-4686,23,-43,-19,17
314,-15152,-8,734,-4684,23,-44,-19,17
315,-15152,-2,736,-4685,23,-44,-19,17
316,-15152,-20,752,-4685,23,-44,-20,17
317,-15154,-10,732,-4682,23,-44,-20,17
318,-15160,10,730,-4683,23,-44,-21,17
319,-15148,-2,734,-4679,23,-44,-20,17
320,-15152,-8,734,-4682,23,-44,-21,17
321,-15156,-6,768,-4684,23,-44,-20,17
322,-15154,0,762,-4686,23,-44,-20,17
323,-15170,8,772,-4683,23,-43,-20,17
324,-15160,12,764,-4683,23,-43,-18,17
325,-15170,-2,754,-4680,23,-43,-19,17
326,-15158,-16,744,-4680,23,-43,-19,17
327,-15158,-12,730,-4679,23,-43,-19,17
328,-15152,-30,732,-4676,23,-44,-20,17
329,-15168,-12,748,-4677,23,-44,-20,17
330,-15170,-2,756,-4679,23,-44,-20,17
331,-15176,12,778,-4680,23,-44,-19,17
332,-15164,6,772,-4683,23,-43,-20,17
333,-15156,-4,764,-4682,23,-44,-20,17
334,-15166,-2,764,-4682,23,-44,-19,17
335,-15160,-6,764,-4684,23,-44,-19,16
336,-15166,6,776,-4683,23,-44,-20,17
337,-15146,-22,766,-4681,23,-44,-19,17
338,-15156,-26,738,-4678,23,-43,-19,17
339,-15176,-22,766,-4682,23,-44,-20,17
340,-15162,-24,764,-4684,23,-44,-19,18
341,-15162,-10,758,-4682,23,-44,-20,18
342,-15166,-8,750,-4680,23,-44,-19,17
343,-15182,-12,734,-4682,23,-44,-19,17
344,-15178,-26,718,-4684,23,-44,-19,17
345,-15152,-12,730,-4681,23,-44,-19,17
346,-15162,-14,744,-4681,23,-44,-19,17
347,-15164,0,748,-4683,23,-44,-19,17
348,-15172,-12,720,-4681,23,-43,-20,17
349,-15166,-14,728,-4680,23,-44,-19,17
350,-15164,-18,746,-4680,23,-44,-19,17
351,-15168,-22,758,-4681,23,-44,-19,17
352,-15164,-20,768,-4681,23,-43,-20,17
353,-15156,-8,742,-4681,23,-44,-20,17
354,-15146,-10,738,-4682,23,-44,-20,18
355,-15154,-2,724,-4683,23,-44,-20,17
356,-15150,-6,720,-4679,23,-44,-19,17
357,-15152,-14,716,-4680,23,-44,-19,17
358,-15156,0,732,-4681,23,-43,-19,17
359,-15142,-6,734,-4680,23,-44,-19,18
360,-15150,-14,754,-4681,23,-44,-19,18
361,-15162,-14,754,-4680,23,-44,-19,17
362,-15168,-12,760,-4682,23,-44,-19,17
363,-15156,-22,762,-4682,23,-44,-20,17
364,-15158,-8,748,-4681,23,-44,-19,18
365,-15160,-12,758,-4681,23,-44,-19,18
366,-15170,-6,770,-4680,23,-44,-19,18
367,-15158,-2,734,-4683,23,-43,-19,17
368,-15170,-2,728,-4683,23,-43,-19,17
369,-15168,0,754,-4680,23,-43,-19,17
370,-15162,24,770,-4679,23,-43,-19,17
371,-15152,10,758,-4675,23,-43,-19,17
372,-15156,2,754,-4676,23,-44,-19,16
373,-15160,2,758,-4676,23,-44,-20,17
374,-15154,4,748,-4675,23,-44,-20,17
375,-15168,10,740,-4677,23,-44,-19,17
376,-15170,-8,784,-4679,23,-44,-19,17
377,-15168,-2,780,-4677,23,-44,-20,17
378,-15164,-6,776,-4678,23,-44,-19,17
379,-15158,-24,758,-4676,23,-45,-20,17
380,-15156,-28,736,-4675,23,-45,-20,17
381,-15162,-34,732,-4675,23,-44,-19,17
382,-15160,-16,714,-4674,23,-43,-20,16
383,-15150,-18,718,-4677,23,-44,-19,17
384,-15148,-26,732,-4674,23,-44,-19,17
385,-15158,-8,724,-4675,23,-44,-19,17
386,-15178,-4,744,-4676,23,-44,-19,17
387,-15166,0,748,-4676,23,-44,-19,17
388,-15166,8,748,-4677,23,-44,-18,17
389,-15156,24,728,-4677,23,-44,-19,17
390,-15156,0,740,-4677,23,-44,-20,17
391,-15172,0,770,-4677,23,-44,-20,17
392,-15172,2,746,-4677,23,-44,-19,17
393,-15160,6,762,-4675,23,-44,-20,16
394,-15160,2,758,-4676,23,-44,-19,17
395,-15158,0,774,-4674,23,-44,-19,17
396,-15160,-10,776,-4678,23,-44,-19,17
397,-15168,0,748,-4676,23,-44,-20,17
398,-15154,-4,740,-4676,23,-44,-19,17
399,-15132,2,746,-4677,23,-45,-19,17
400,-15160,-14,774,-4679,23,-45,-19,17
401,-15156,-18,762,-4678,23,-44,-19,17
402,-15140,-28,800,-4678,23,-44,-19,16
403,-15146,-18,764,-4680,23,-44,-19,17
404,-15144,-22,782,-4678,23,-44,-19,17
405,-15150,-12,760,-4676,23,-44,-18,17
406,-15158,-12,756,-4678,23,-44,-18,17
407,-15172,-6,726,-4675,23,-45,-18,17
408,-15180,-18,740,-4675,23,-45,-19,17
409,-15154,8,758,-4674,23,-45,-19,17
410,-15150,8,764,-4675,23,-44,-19,17
411,-15150,-6,774,-4678,23,-44,-20,17
412,-15136,-28,772,-4676,23,-44,-20,17
413,-15156,-16,732,-4678,23,-44,-20,17
414,-15144,-10,742,-4676,23,-45,-20,17
415,-15132,6,768,-4676,23,-44,-20,17
416,-15132,2,760,-4675,23,-44,-20,16
417,-15140,-4,748,-4675,23,-44,-20,17
418,-15154,-2,742,-4677,23,-44,-19,17
419,-15162,-6,766,-4677,23,-44,-19,17
420,-15152,2,764,-4675,23,-44,-19,17
421,-15150,-10,758,-4675,23,-44,-19,17
422,-15150,-12,764,-4678,23,-44,-19,17
423,-15140,-16,756,-4676,23,-44,-19,17
424,-15154,-6,740,-4675,23,-44,-19,17
425,-15162,-14,748,-4673,23,-44,-20,17
426,-15162,-10,748,-4671,23,-44,-20,18
427,-15156,-4,764,-4671,23,-44,-20,17
428,-15152,-24,756,-4671,23,-44,-19,17
429,-15150,-28,746,-4673,23,-44,-20,17
430,-15146,-8,758,-4671,23,-44,-19,17
431,-15134,-22,750,-4670,23,-44,-19,17
432,-15136,-12,730,-4675,23,-44,-19,17
433,-15168,-14,758,-4673,23,-44,-19,17
434,-15164,-22,766,-4673,23,-44,-20,17
435,-15160,-16,746,-4674,23,-44,-19,16
436,-15154,-20,750,-4672,23,-43,-19,17
437,-15158,-16,758,-4671,23,-44,-19,16
438,-15144,6,768,-4675,23,-44,-19,17
439,-15148,4,752,-4674,23,-44,-19,17
440,-15146,10,746,-4673,23,-44,-19,16
441,-15166,2,782,-4673,23,-44,-19,17
442,-15154,0,794,-4671,23,-44,-19,17
443,-15156,-10,756,-4673,23,-44,-19,17
444,-15164,-10,762,-4673,23,-44,-19,17
445,-15174,8,750,-4677,23,-44,-20,17
446,-15168,-4,760,-4675,23,-44,-20,17
447,-15168,-10,786,-4674,23,-44,-19,17
448,-15184,6,758,-4673,23,-43,-19,17
449,-15176,2,758,-4674,23,-44,-19,17
450,-15176,-22,742,-4673,23,-44,-19,17
451,-15152,-6,778,-4672,23,-44,-20,17
452,-15148,-2,768,-4673,23,-44,-20,17
453,-15140,4,750,-4672,23,-44,-20,17
454,-15142,6,746,-4673,23,-44,-20,17
455,-15158,8,746,-4669,23,-44,-20,17
456,-15132,4,742,-4667,23,-44,-20,17
457,-15158,-12,740,-4671,23,-43,-19,17
458,-15150,-10,748,-4675,23,-43,-19,17
459,-15148,4,744,-4675,23,-44,-19,17
460,-15160,2,732,-4673,23,-44,-19,17
461,-15164,-8,736,-4672,23,-44,-19,17
462,-15152,0,724,-4670,23,-44,-19,17
463,-15144,-16,742,-4671,23,-43,-19,17
464,-15150,-12,760,-4669,23,-44,-19,17
465,-15164,-6,774,-4670,23,-44,-19,17
466,-15160,-18,784,-4668,23,-44,-20,17
467,-15176,-8,776,-4669,23,-44,-19,17
468,-15174,-16,740,-4672,23,-45,-19,17
469,-15154,-22,730,-4668,23,-44,-19,17
470,-15146,-44,752,-4671,23,-44,-20,17
471,-15152,-26,754,-4671,23,-44,-20,17
472,-15164,-6,758,-4671,23,-44,-20,17
473,-15164,-8,744,-4671,23,-44,-20,17
474,-15148,-18,756,-4671,23,-44,-20,17
475,-15158,-16,776,-4670,23,-44,-20,17
476,-15146,-8,768,-4673,23,-43,-19,17
477,-15172,-10,778,-4672,23,-43,-19,17
478,-15174,-8,770,-4667,23,-44,-19,17
479,-15164,4,760,-4668,23,-44,-20,17
480,-15132,-8,726,-4669,23,-44,-20,17
481,-15156,-10,748,-4670,23,-44,-20,17
482,-15156,-10,744,-4671,23,-44,-20,18
483,-15158,-8,744,-4672,23,-43,-19,18
484,-15168,-18,748,-4673,23,-43,-19,18
485,-15150,-20,744,-4670,23,-44,-19,17
486,-15148,-18,756,-4668,23,-44,-19,17
487,-15140,-6,770,-4667,23,-44,-19,17
488,-15158,2,764,-4668,23,-44,-19,16
489,-15178,-10,746,-4668,23,-43,-20,16
490,-15186,10,748,-4669,23,-44,-20,17
491,-15150,-4,746,-4671,23,-44,-20,17
492,-15124,-4,742,-4673,23,-43,-19,17
493,-15138,2,742,-4673,23,-44,-20,17
494,-15142,0,760,-4672,23,-44,-20,17
495,-15136,0,764,-4674,23,-43,-20,18
496,-15144,-6,758,-4671,23,-44,-20,17
497,-15156,-16,762,-4671,23,-44,-19,17
498,-15158,-22,736,-4673,23,-44,-19,17
499,-15150,-4,766,-4672,23,-44,-19,17
500,-15142,-12,756,-4671,23,-44,-20,17
501,-15150,-12,706,-4669,23,-44,-20,17
502,-15162,0,744,-4669,23,-45,-19,17
503,-15158,0,752,-4670,23,-44,-20,17
504,-15172,-4,738,-4669,23,-44,-20,17
505,-15152,-12,768,-4669,23,-44,-20,17
506,-15160,-10,738,-4668,23,-44,-20,17
507,-15176,-8,756,-4669,23,-44,-20,17
508,-15194,-18,738,-4667,23,-44,-20,17
509,-15178,-6,704,-4669,23,-43,-20,17
510,-15164,-2,716,-4669,23,-44,-19,17
511,-15150,0,754,-4671,23,-44,-19,17
512,-15142,-2,758,-4673,23,-44,-19,17
513,-15164,-2,744,-4669,23,-44,-19,17
514,-15170,-8,760,-4670,23,-44,-19,18
515,-15174,-22,748,-4671,23,-44,-19,17
516,-15180,-18,744,-4666,23,-44,-20,17
517,-15182,-20,758,-4669,23,-44,-19,17
518,-15166,-12,748,-4670,23,-44,-19,17
519,-15170,-4,752,-4674,23,-44,-20,17
520,-15166,-2,760,-4672,23,-44,-20,17
521,-15172,2,770,-4670,23,-44,-20,17
522,-15184,-6,744,-4670,23,-44,-20,17
523,-15168,4,740,-4669,23,-44,-19,17
524,-15164,2,752,-4667,23,-44,-19,16
525,-15162,-12,732,-4664,23,-44,-19,17
526,-15160,-6,724,-4665,23,-44,-20,17
527,-15176,-20,724,-4665,23,-44,-20,17
528,-15164,-4,734,-4668,23,-44,-20,17
529,-15156,-4,768,-4670,23,-44,-20,17
530,-15154,6,776,-4666,23,-44,-20,17
531,-15160,0,786,-4665,23,-44,-19,17
532,-15140,0,756,-4667,23,-44,-20,17
533,-15136,2,764,-4667,23,-44,-20,17
534,-15164,4,744,-4667,23,-44,-20,17
535,-15156,-12,750,-4667,23,-43,-20,17
536,-15160,-20,726,-4667,23,-43,-19,16
537,-15156,-20,728,-4663,23,-44,-19,17
538,-15166,-24,752,-4663,23,-44,-19,17
539,-15168,-6,752,-4665,23,-44,-20,17
540,-15162,-12,734,-4666,23,-44,-20,17
541,-15144,-14,728,-4669,23,-44,-20,17
542,-15156,-10,744,-4665,23,-44,-19,17
543,-15156,-10,746,-4667,23,-44,-19,17
544,-15148,-12,754,-4668,23,-44,-19,17
545,-15146,-4,740,-4667,23,-43,-19,17
546,-15170,4,736,-4668,23,-44,-19,17
547,-15160,2,758,-4666,23,-45,-20,17
548,-15152,-6,754,-4666,23,-45,-20,17
549,-15152,12,744,-4665,23,-44,-20,17
550,-15144,-4,738,-4666,23,-44,-19,17
551,-15130,-8,762,-4668,23,-44,-19,17
552,-15138,2,760,-4669,23,-44,-19,17
553,-15142,-2,734,-4670,23,-44,-19,17
554,-15134,-4,774,-4666,23,-44,-19,17
555,-15138,0,748,-4662,23,-44,-19,17
556,-15142,-16,726,-4662,23,-44,-19,17
557,-15144,-18,756,-4663,23,-44,-20,17
558,-15150,-32,770,-4666,23,-44,-20,17
559,-15152,-20,776,-4666,23,-44,-20,17
560,-15138,-12,778,-4668,23,-44,-19,17
561,-15142,-2,746,-4669,23,-44,-19,17
562,-15130,-8,722,-4666,23,-44,-20,17
563,-15146,-26,762,-4667,23,-44,-20,18
564,-15150,-10,768,-4667,23,-44,-20,17
565,-15166,-16,764,-4667,23,-44,-19,16
566,-15154,-16,740,-4664,23,-44,-20,17
567,-15158,-12,756,-4667,23,-44,-20,17
568,-15168,-6,760,-4668,23,-44,-20,17
569,-15186,-6,756,-4668,23,-44,-20,17
570,-15168,-2,728,-4666,23,-44,-20,17
571,-15154,2,722,-4665,23,-44,-20,17
572,-15152,6,730,-4667,23,-44,-20,17
573,-15150,0,760,-4664,23,-44,-19,17
574,-15156,-10,766,-4665,23,-44,-20,16
575,-15152,-22,768,-4665,23,-44,-19,17
576,-15154,-26,756,-4665,23,-44,-19,17
577,-15162,-26,776,-4665,23,-44,-19,17
578,-15166,-12,780,-4665,23,-44,-20,17
579,-15180,-4,730,-4663,23,-44,-20,17
580,-15152,-2,730,-4664,23,-44,-20,17
581,-15156,0,706,-4664,23,-45,-20,16
582,-15160,-24,704,-4665,23,-44,-20,16
583,-15166,-28,720,-4666,23,-44,-19,17
584,-15160,-18,730,-4668,23,-44,-19,16
585,-15154,-12,748,-4671,23,-44,-19,16
586,-15154,-12,750,-4667,23,-44,-19,17
587,-15162,2,760,-4664,23,-44,-19,17
588,-15166,-12,748,-4663,23,-44,-19,17
589,-15162,-18,774,-4662,23,-44,-19,17
590,-15172,-18,772,-4661,23,-44,-19,17
591,-15158,-32,738,-4662,23,-44,-19,17
592,-15156,-12,756,-4663,23,-44,-20,17
593,-15164,-8,734,-4665,23,-44,-20,17
594,-15160,10,750,-4662,23,-44,-20,17
595,-15178,-4,762,-4661,23,-44,-20,17
596,-15162,0,770,-4662,23,-44,-19,17
597,-15164,-12,772,-4664,23,-44,-19,17
598,-15144,-4,780,-4666,23,-44,-20,18
599,-15154,6,752,-4665,23,-44,-20,18
600,-15156,16,750,-4662,23,-44,-20,17
601,-15152,8,752,-4662,23,-44,-20,17
602,-15156,-4,750,-4663,23,-44,-20,17
603,-15150,-20,760,-4666,23,-44,-20,17
604,-15152,-6,772,-4665,23,-44,-20,18
605,-15150,8,770,-4662,23,-44,-20,18
606,-15160,2,770,-4664,23,-44,-20,18
607,-15156,-14,784,-4665,23,-44,-20,18
608,-15158,-10,772,-4664,23,-44,-19,17
609,-15158,6,776,-4662,23,-44,-19,17
610,-15156,6,740,-4658,23,-44,-19,17
611,-15150,6,754,-4657,23,-44,-19,17
612,-15164,-18,744,-4659,23,-44,-19,17
613,-15170,-6,732,-4659,23,-45,-20,17
614,-15156,-8,734,-4658,23,-45,-20,17
615,-15136,-4,724,-4659,23,-44,-20,17
616,-15144,-6,716,-4665,23,-44,-19,17
617,-15152,-12,716,-4665,23,-44,-19,17
618,-15158,-14,726,-4666,23,-44,-19,17
619,-15158,-26,744,-4665,23,-44,-19,17
620,-15158,-22,758,-4664,23,-44,-19,17
621,-15146,-12,748,-4665,23,-43,-19,17
622,-15136,-22,740,-4664,23,-44,-19,17
623,-15166,-6,742,-4660,23,-43,-20,17
624,-15150,0,756,-4660,23,-44,-20,17
625,-15148,2,772,-4662,23,-44,-20,17
626,-15156,10,780,-4662,23,-44,-20,17
627,-15146,-18,778,-4664,23,-44,-19,17
628,-15146,-22,746,-4663,23,-44,-19,17
629,-15142,-8,732,-4662,23,-44,-19,17
630,-15152,-8,750,-4665,23,-44,-19,17
631,-15152,-14,760,-4665,23,-44,-19,17
632,-15168,-4,740,-4665,23,-44,-19,17
633,-15154,-6,738,-4662,23,-44,-19,17
634,-15160,-18,708,-4663,23,-44,-19,17
635,-15164,-6,696,-4665,23,-44,-19,17
636,-15160,-22,698,-4665,23,-44,-19,17
637,-15156,-22,730,-4666,23,-44,-19,17
638,-15154,-16,734,-4663,23,-44,-19,17
639,-15146,-30,728,-4660,23,-44,-19,17
640,-15142,-18,740,-4657,23,-44,-20,17
641,-15142,-36,738,-4658,23,-44,-19,17
642,-15132,-42,746,-4660,23,-44,-20,17
643,-15138,-54,748,-4658,23,-44,-19,17
644,-15158,-26,730,-4660,23,-45,-19,17
645,-15150,6,736,-4659,23,-44,-19,17
646,-15158,-8,730,-4662,23,-44,-20,17
647,-15144,-4,738,-4664,23,-44,-20,17
648,-15160,8,750,-4663,23,-44,-19,17
649,-15152,6,750,-4662,23,-44,-19,17
650,-15154,-6,768,-4663,23,-44,-19,17
651,-15146,-4,774,-4662,23,-44,-19,17
652,-15156,-4,768,-4663,23,-44,-19,17
653,-15168,-8,748,-4663,23,-44,-19,17
654,-15156,-12,732,-4665,23,-44,-19,17
655,-15152,10,740,-4662,23,-44,-19,17
656,-15154,4,724,-4661,23,-44,-19,17
657,-15170,0,748,-4662,23,-44,-19,17
658,-15170,2,764,-4659,23,-44,-19,17
659,-15156,-8,756,-4659,23,-44,-20,17
660,-15162,0,714,-4656,23,-44,-19,17
661,-15142,-28,710,-4658,23,-44,-20,17
662,-15146,-24,726,-4657,23,-44,-19,17
663,-15150,-6,758,-4656,23,-44,-19,18
664,-15164,-4,754,-4657,23,-44,-20,17
665,-15162,4,754,-4656,23,-44,-20,17
666,-15164,0,744,-4659,23,-44,-19,18
667,-15170,4,752,-4660,23,-44,-19,18
668,-15158,8,718,-4660,23,-44,-19,17
669,-15164,0,748,-4663,23,-44,-19,17
670,-15176,12,750,-4660,23,-44,-19,17
671,-15174,-14,752,-4660,23,-44,-20,17
672,-15148,-16,738,-4657,23,-44,-19,17
673,-15150,-44,740,-4660,23,-44,-19,17
674,-15170,-14,758,-4660,23,-43,-18,17
675,-15158,-6,742,-4659,23,-44,-19,17
676,-15158,-2,736,-4659,23,-44,-19,17
677,-15164,-12,758,-4658,23,-44,-19,17
678,-15170,-12,756,-4660,23,-44,-20,17
679,-15146,-16,778,-4659,23,-44,-19,18
680,-15144,-4,764,-4660,23,-44,-19,17
681,-15162,-16,752,-4655,23,-44,-19,17
682,-15174,-4,778,-4657,23,-44,-19,17
683,-15182,-10,768,-4658,23,-44,-20,17
684,-15160,-28,736,-4654,23,-44,-20,17
685,-15166,4,762,-4655,23,-44,-20,17
686,-15158,-12,758,-4654,23,-44,-20,17
687,-15172,-14,742,-4654,23,-44,-20,17
688,-15164,-12,762,-4651,23,-44,-19,17
689,-15150,-8,762,-4651,23,-44,-20,17
690,-15154,-20,760,-4653,23,-44,-20,17
691,-15152,-6,764,-4653,23,-44,-20,17
692,-15148,-20,778,-4653,23,-44,-20,17
693,-15138,-14,764,-4655,23,-44,-20,17
694,-15146,-26,750,-4657,23,-44,-20,17
695,-15150,-30,760,-4655,23,-44,-20,17
696,-15140,-40,768,-4658,23,-44,-19,18
697,-15144,-14,760,-4660,23,-44,-19,17
698,-15158,-20,760,-4660,23,-44,-20,17
699,-15166,-26,758,-4662,23,-44,-19,18
700,-15180,-18,772,-4659,23,-44,-19,17
701,-15176,-10,764,-4660,23,-45,-19,17
702,-15154,10,750,-4661,23,-44,-20,17
703,-15162,24,742,-4661,23,-44,-20,17
704,-15168,20,746,-4661,23,-44,-19,17
705,-15174,20,742,-4660,23,-44,-19,17
706,-15176,-6,748,-4659,23,-44,-19,17
707,-15164,-2,788,-4656,23,-44,-19,17
708,-15156,-4,792,-4658,23,-44,-19,17
709,-15160,8,770,-4658,23,-44,-20,17
710,-15166,-12,750,-4656,23,-44,-20,17
711,-15156,-28,752,-4656,23,-45,-20,17
712,-15158,-4,762,-4658,23,-44,-19,17
713,-15160,12,744,-4655,23,-43,-20,17
714,-15164,-6,754,-4655,23,-44,-20,17
715,-15164,-14,742,-4657,23,-44,-19,17
716,-15166,-22,732,-4658,23,-44,-20,17
717,-15170,-22,762,-4658,23,-44,-20,17
718,-15160,-22,752,-4657,23,-44,-19,17
719,-15140,-4,774,-4657,23,-44,-19,17
720,-15150,2,762,-4656,23,-44,-20,17
721,-15164,0,746,-4659,23,-44,-20,17
722,-15162,8,756,-4658,23,-44,-20,17
723,-15154,14,750,-4661,23,-44,-20,17
724,-15156,-2,724,-4657,23,-44,-19,17
725,-15164,-14,734,-4659,23,-45,-19,17
726,-15176,-22,764,-4657,23,-44,-20,17
727,-15168,-2,758,-4656,23,-44,-19,17
728,-15176,-16,720,-4657,23,-44,-19,17
729,-15170,-4,750,-4656,23,-44,-19,17
730,-15162,-10,766,-4656,23,-44,-19,17
731,-15158,14,752,-4653,23,-44,-20,17
732,-15150,4,746,-4653,23,-44,-19,17
733,-15150,8,730,-4655,23,-44,-19,17
734,-15146,-2,756,-4652,23,-44,-19,17
735,-15156,-4,754,-4656,23,-44,-19,17
736,-15154,-6,742,-4658,23,-44,-19,17
737,-15140,-28,748,-4658,23,-44,-19,17
738,-15138,-16,754,-4658,23,-44,-20,17
739,-15146,-16,766,-4660,23,-44,-20,17
740,-15152,-10,734,-4658,23,-44,-20,17
741,-15166,-8,734,-4658,23,-44,-20,17
742,-15174,10,732,-4658,23,-44,-20,17
743,-15158,14,744,-4656,23,-44,-19,17
744,-15142,16,746,-4654,23,-44,-20,17
745,-15140,-6,740,-4658,23,-44,-20,17
746,-15144,-10,730,-4657,23,-44,-20,17
747,-15142,-22,756,-4656,23,-44,-20,17
748,-15136,-18,748,-4654,23,-44,-19,17
749,-15150,-28,752,-4655,23,-44,-20,17
750,-15142,-30,746,-4655,23,-44,-20,17
751,-15144,-20,744,-4656,23,-44,-19,17
752,-15158,-16,742,-4659,23,-44,-20,17
753,-15132,-28,746,-4656,23,-44,-19,17
754,-15162,-22,752,-4656,23,-44,-20,17
755,-15168,-14,754,-4655,23,-44,-19,17
756,-15164,-20,742,-4656,23,-44,-19,17
757,-15158,-8,778,-4656,23,-44,-19,17
758,-15134,-12,768,-4654,23,-44,-19,17
759,-15146,-6,768,-4654,23,-44,-18,17
760,-15156,4,772,-4653,23,-44,-19,17
761,-15154,6,760,-4653,23,-44,-19,17
762,-15144,14,756,-4651,23,-43,-20,17
763,-15160,-4,766,-4651,23,-43,-19,17
764,-15156,6,752,-4650,23,-43,-19,17
765,-15150,-4,742,-4649,23,-44,-19,17
766,-15170,2,766,-4654,23,-44,-19,17
767,-15190,12,804,-4654,23,-44,-19,17
768,-15164,16,762,-4654,23,-43,-19,17
769,-15160,4,746,-4655,23,-44,-19,17
770,-15176,8,768,-4654,23,-44,-19,17
771,-15180,10,714,-4653,23,-44,-20,17
772,-15176,4,724,-4655,23,-45,-19,17
773,-15156,-14,726,-4658,23,-44,-19,17
774,-15164,-2,742,-4658,23,-44,-19,17
775,-15160,-10,736,-4654,23,-44,-20,17
776,-15140,-16,758,-4654,23,-44,-20,17
777,-15146,-14,752,-4653,23,-44,-20,17
778,-15156,-20,758,-4657,23,-44,-19,17
779,-15152,-20,748,-4656,23,-44,-19,18
780,-15144,-24,730,-4654,23,-44,-19,17
781,-15142,-14,726,-4653,23,-44,-19,17
782,-15142,-12,720,-4651,23,-44,-19,17
783,-15138,-26,710,-4652,23,-44,-20,17
784,-15160,-20,734,-4656,23,-44,-19,17
785,-15152,-20,748,-4655,23,-44,-20,17
786,-15156,-22,740,-4653,23,-43,-19,17
787,-15150,-28,756,-4654,23,-44,-20,17
788,-15146,-24,736,-4654,23,-43,-20,18
789,-15150,-18,754,-4653,23,-44,-20,18
790,-15146,2,746,-4654,23,-44,-20,17
791,-15154,12,752,-4656,23,-44,-20,17
792,-15170,2,742,-4656,23,-44,-19,17
793,-15160,0,764,-4656,23,-44,-19,17
794,-15174,-2,762,-4658,23,-44,-19,17
795,-15170,-2,770,-4657,23,-43,-19,16
796,-15164,0,766,-4655,23,-43,-20,16
797,-15148,-6,764,-4652,23,-44,-20,16
798,-15152,-18,776,-4654,23,-44,-19,17
799,-15156,2,778,-4656,23,-44,-19,17
800,-15152,-6,754,-4654,23,-44,-20,17
801,-15146,8,734,-4655,23,-45,-20,17
802,-15142,6,742,-4655,23,-44,-20,17
803,-15142,-12,742,-4653,23,-44,-20,17
804,-15154,0,754,-4653,23,-44,-20,17
805,-15156,6,742,-4654,23,-44,-20,17
806,-15178,-2,742,-4653,23,-44,-20,17
807,-15162,-12,770,-4653,23,-44,-20,17
808,-15148,-12,780,-4653,23,-45,-20,17
809,-15148,-10,774,-4656,23,-45,-20,17
810,-15156,-16,752,-4655,23,-45,-20,17
811,-15160,-6,750,-4658,23,-44,-20,17
812,-15150,22,760,-4659,23,-44,-20,17
813,-15144,14,732,-4654,23,-44,-20,17
814,-15146,0,756,-4654,23,-43,-19,17
815,-15144,-4,750,-4655,23,-44,-19,17
816,-15158,2,770,-4655,23,-44,-19,17
817,-15146,-2,750,-4653,23,-44,-19,17
818,-15152,-16,750,-4650,23,-44,-19,17
819,-15152,4,760,-4652,23,-44,-19,17
820,-15168,-12,758,-4657,23,-44,-19,17
821,-15168,-2,770,-4657,23,-44,-19,17
822,-15164,2,758,-4656,23,-44,-19,17
823,-15156,-6,760,-4654,23,-44,-19,17
824,-15152,-10,752,-4653,23,-44,-20,17
825,-15156,-20,740,-4657,23,-44,-20,17
826,-15152,-24,734,-4657,23,-44,-20,17
827,-15152,-12,742,-4657,23,-44,-20,17
828,-15168,-6,748,-4657,23,-44,-20,17
829,-15152,-16,754,-4655,23,-44,-20,18
830,-15168,-10,742,-4657,23,-44,-20,18
831,-15180,-18,758,-4656,23,-44,-20,17
832,-15182,-4,752,-4655,23,-44,-19,17
833,-15170,-4,722,-4655,23,-44,-19,17
834,-15162,0,722,-4656,23,-44,-20,17
835,-15160,-24,704,-4656,23,-44,-20,17
836,-15158,4,724,-4656,23,-44,-20,18
837,-15162,-20,760,-4656,23,-43,-20,18
838,-15160,-6,756,-4655,23,-43,-20,17
839,-15150,-20,760,-4655,23,-43,-19,17
840,-15140,-46,736,-4657,23,-44,-20,17
841,-15132,-48,716,-4653,23,-44,-19,16
842,-15146,-42,746,-4653,23,-44,-20,17
843,-15160,-24,740,-4652,23,-44,-20,17
844,-15162,-18,754,-4652,23,-44,-20,17
845,-15164,-20,748,-4651,23,-43,-19,17
846,-15144,-14,746,-4653,23,-44,-20,17
847,-15152,-22,752,-4653,23,-44,-19,17
848,-15152,-30,756,-4650,23,-44,-20,18
849,-15166,-16,736,-4654,23,-44,-20,17
850,-15162,-20,762,-4657,23,-44,-19,17
851,-15148,-22,768,-4656,23,-44,-20,17
852,-15154,-20,766,-4653,23,-45,-19,18
853,-15168,-22,730,-4651,23,-44,-19,18
854,-15168,-16,752,-4650,23,-44,-20,18
855,-15170,-8,766,-4654,23,-44,-20,17
856,-15138,-2,768,-4656,23,-44,-19,17
857,-15150,-6,742,-4658,23,-45,-20,17
858,-15150,-12,758,-4655,23,-44,-20,16
859,-15142,-2,752,-4659,23,-45,-20,16
860,-15154,-12,734,-4658,23,-44,-20,16
861,-15156,-10,720,-4660,23,-45,-20,16
862,-15134,0,738,-4657,23,-45,-20,17
863,-15146,12,748,-4654,23,-44,-20,17
864,-15138,-10,776,-4653,23,-44,-20,17
865,-15130,-16,782,-4651,23,-44,-20,18
866,-15132,-18,756,-4652,23,-44,-20,17
867,-15158,-4,784,-4653,23,-45,-20,17
868,-15172,-2,792,-4651,23,-45,-20,17
869,-15144,6,778,-4652,23,-44,-20,16
870,-15138,-24,788,-4652,23,-44,-19,17
871,-15140,-20,794,-4651,23,-44,-19,17
872,-15162,-28,780,-4652,23,-45,-19,17
873,-15164,-14,764,-4654,23,-45,-19,18
874,-15148,-2,770,-4655,23,-44,-19,18
875,-15160,12,792,-4654,23,-44,-20,17
876,-15156,22,798,-4653,23,-44,-19,17
877,-15148,16,796,-4656,23,-44,-19,17
878,-15154,4,780,-4657,23,-44,-19,17
879,-15172,-10,786,-4654,23,-45,-20,17
880,-15160,-24,770,-4653,23,-45,-20,17
881,-15148,-30,740,-4651,23,-44,-20,17
882,-15148,-38,756,-4653,23,-44,-20,17
883,-15140,-20,740,-4652,23,-44,-20,17
884,-15154,-8,726,-4653,23,-44,-20,17
885,-15154,-12,752,-4653,23,-44,-20,17
886,-15152,-6,756,-4653,23,-44,-20,17
887,-15138,-6,758,-4653,23,-44,-20,17
888,-15152,-14,734,-4652,23,-44,-19,17
889,-15144,-24,758,-4653,23,-44,-20,17
890,-15146,-20,772,-4654,23,-44,-20,17
891,-15150,-18,766,-4651,23,-44,-19,17
892,-15144,-16,772,-4655,23,-43,-19,17
893,-15152,-14,764,-4657,23,-44,-20,17
894,-15136,2,774,-4656,23,-44,-20,17
895,-15160,-2,774,-4655,23,-44,-19,17
896,-15168,-14,740,-4653,23,-44,-20,17
897,-15156,-18,756,-4654,23,-44,-20,17
898,-15146,-14,754,-4655,23,-44,-20,17
899,-15154,-8,728,-4654,23,-44,-20,17
900,-15160,-4,726,-4653,23,-44,-19,16
901,-15134,-20,736,-4655,23,-44,-20,17
902,-15156,-26,760,-4654,23,-44,-19,18
903,-15146,-30,760,-4654,23,-44,-20,18
904,-15156,-26,788,-4652,23,-44,-20,17
905,-15142,-18,778,-4652,23,-44,-19,17
906,-15158,2,768,-4650,23,-44,-20,17
907,-15138,0,738,-4648,23,-45,-20,17
908,-15126,-18,738,-4650,23,-45,-20,17
909,-15144,-14,754,-4650,23,-45,-20,17
910,-15160,-16,740,-4649,23,-44,-20,17
911,-15150,-20,756,-4653,23,-44,-19,17
912,-15142,-26,730,-4655,23,-44,-20,17
913,-15146,-10,734,-4655,23,-44,-20,17
914,-15160,-16,740,-4652,23,-44,-20,17
915,-15164,-10,746,-4652,23,-44,-19,17
916,-15158,20,748,-4651,23,-44,-19,17
917,-15154,8,772,-4649,23,-44,-20,17
918,-15152,2,762,-4654,23,-44,-19,17
919,-15162,-6,746,-4653,23,-44,-19,17
920,-15154,-8,756,-4650,23,-44,-20,17
921,-15170,-12,756,-4650,23,-44,-20,17
922,-15170,-16,738,-4649,23,-44,-19,17
923,-15164,-22,762,-4654,23,-44,-20,17
924,-15174,-18,756,-4651,23,-43,-19,17
925,-15170,-10,746,-4655,23,-44,-19,17
926,-15174,-22,738,-4654,23,-44,-19,17
927,-15160,-26,732,-4655,23,-44,-19,17
928,-15156,-24,740,-4653,23,-44,-20,17
929,-15162,-24,746,-4654,23,-44,-20,17
930,-15170,-20,762,-4653,23,-44,-19,17
931,-15162,-22,754,-4656,23,-45,-20,17
932,-15152,-20,736,-4658,23,-45,-20,17
933,-15162,-2,754,-4657,23,-44,-20,17
934,-15162,6,736,-4655,23,-44,-20,17
935,-15174,0,732,-4656,23,-44,-19,17
936,-15170,-12,730,-4655,23,-44,-20,18
937,-15166,4,718,-4656,23,-44,-19,17
938,-15162,-10,714,-4655,23,-44,-19,17
939,-15160,-18,764,-4652,23,-44,-19,17
940,-15148,-30,762,-4653,23,-45,-20,17
941,-15136,-22,768,-4650,23,-45,-19,17
942,-15154,0,768,-4651,23,-45,-19,17
943,-15152,-4,768,-4653,23,-44,-20,17
944,-15140,-12,746,-4652,23,-45,-19,17
945,-15132,-16,742,-4651,23,-44,-19,17
946,-15138,-28,762,-4650,23,-44,-20,17
947,-15144,-18,740,-4651,23,-44,-20,16
948,-15150,-32,734,-4649,23,-44,-20,17
949,-15158,-28,754,-4653,23,-44,-20,17
950,-15162,-20,776,-4653,23,-44,-20,17
951,-15164,-18,760,-4654,23,-44,-19,16
952,-15158,-16,758,-4655,23,-44,-19,17
953,-15160,-26,746,-4653,23,-44,-19,17
954,-15166,-36,710,-4653,23,-44,-19,17
955,-15146,-42,714,-4652,23,-44,-19,17
956,-15148,-20,756,-4652,23,-45,-19,17
957,-15148,0,752,-4651,23,-44,-19,17
958,-15156,-16,748,-4649,23,-44,-19,17
959,-15148,-10,782,-4651,23,-44,-18,17
960,-15170,-8,796,-4654,23,-44,-19,17
961,-15174,4,790,-4653,23,-44,-19,17
962,-15156,-14,770,-4652,23,-45,-19,17
963,-15150,-30,722,-4651,23,-44,-20,17
964,-15162,-30,738,-4649,23,-44,-19,17
965,-15162,-16,750,-4648,23,-44,-19,17
966,-15174,-22,752,-4648,23,-44,-19,17
967,-15170,-14,746,-4647,23,-44,-19,17
968,-15162,-14,776,-4647,23,-43,-19,17
969,-15154,-10,766,-4647,23,-44,-19,17
970,-15154,-26,766,-4648,23,-44,-19,17
971,-15154,-26,744,-4647,23,-43,-19,17
972,-15138,-20,764,-4648,23,-44,-19,17
973,-15166,-36,744,-4645,23,-44,-19,17
974,-15164,-40,748,-4647,23,-44,-19,17
975,-15178,-32,738,-4646,23,-43,-19,17
976,-15180,-20,732,-4647,23,-44,-20,17
977,-15170,-16,730,-4645,23,-44,-20,17
978,-15158,-6,716,-4649,23,-44,-20,17
979,-15148,-22,722,-4647,23,-43,-20,17
980,-15152,-18,736,-4648,23,-44,-20,17
981,-15150,-20,730,-4650,23,-44,-20,17
982,-15142,-6,724,-4651,23,-44,-19,17
983,-15154,-2,750,-4651,23,-45,-20,17
984,-15160,-8,768,-4651,23,-44,-19,17
985,-15170,-14,736,-4650,23,-44,-19,17
986,-15154,0,732,-4648,23,-44,-19,17
987,-15138,-2,706,-4648,23,-44,-20,17
988,-15152,-6,708,-4647,23,-43,-19,17
989,-15150,6,732,-4645,23,-44,-19,18
990,-15154,8,740,-4648,23,-45,-19,17
991,-15154,14,740,-4652,23,-44,-19,18
992,-15150,16,732,-4648,23,-44,-19,17
993,-15146,8,720,-4648,23,-44,-19,17
994,-15140,8,762,-4647,23,-44,-19,17
995,-15170,-6,766,-4645,23,-44,-20,17
