,acc_X,acc_Y,acc_Z,temp,tempC,gyr_X,gyr_Y,gyr_Z
0,-1899,-3,89,-4754,23,-85,-36,36
1,-1894,1,95,-4771,22,-89,-40,36
2,-1895,-3,93,-4751,23,-90,-41,32
3,-1902,-2,96,-4765,22,-86,-35,35
4,-1892,-1,90,-4763,22,-87,-37,33
5,-1900,2,85,-4750,23,-90,-40,30
6,-1898,-8,99,-4763,22,-91,-38,36
7,-1895,-2,99,-4775,22,-87,-42,38
8,-1895,-7,90,-4764,22,-87,-39,34
9,-1897,-1,89,-4772,22,-87,-40,36
10,-1887,-5,94,-4763,22,-87,-37,32
11,-1897,-7,84,-4768,22,-90,-40,34
12,-1892,-3,94,-4753,23,-83,-41,36
13,-1893,-2,93,-4773,22,-90,-38,34
14,-1895,-1,87,-4768,22,-88,-40,33
15,-1891,-6,97,-4756,23,-90,-34,33
16,-1897,-6,96,-4761,22,-89,-40,35
17,-1898,1,97,-4759,23,-86,-38,36
18,-1892,1,101,-4763,22,-87,-35,36
19,-1895,6,100,-4764,22,-86,-39,35
20,-1893,5,103,-4756,23,-86,-40,34
21,-1894,1,100,-4758,23,-89,-38,35
22,-1897,4,91,-4768,22,-91,-39,35
23,-1893,0,77,-4762,22,-88,-34,32
24,-1891,-2,90,-4769,22,-88,-37,35
25,-1897,0,90,-4768,22,-84,-38,35
26,-1900,-8,93,-4769,22,-83,-38,36
27,-1896,3,101,-4765,22,-87,-40,32
28,-1895,-1,105,-4757,23,-87,-41,34
29,-1894,1,97,-4757,23,-86,-38,36
30,-1902,-2,106,-4760,22,-89,-40,34
31,-1893,-6,87,-4764,22,-88,-37,37
32,-1896,-6,100,-4761,22,-90,-44,34
33,-1892,-2,99,-4761,22,-86,-38,35
34,-1895,-4,96,-4763,22,-86,-41,33
35,-1885,-3,91,-4772,22,-87,-37,38
36,-1894,-3,104,-4773,22,-88,-42,33
37,-1892,0,93,-4760,22,-88,-38,35
38,-1896,-6,89,-4770,22,-85,-39,35
39,-1892,-8,95,-4770,22,-88,-39,33
40,-1895,-1,90,-4766,22,-86,-36,37
41,-1895,3,95,-4762,22,-86,-38,31
42,-1892,5,91,-4756,23,-90,-42,35
43,-1900,-6,96,-4763,22,-88,-40,38
44,-1886,2,100,-4767,22,-86,-41,33
45,-1895,-2,84,-4764,22,-91,-41,37
46,-1891,-10,90,-4763,22,-86,-40,33
47,-1895,-9,102,-4771,22,-85,-37,33
48,-1890,-1,84,-4757,23,-89,-40,35
49,-1904,2,91,-4772,22,-87,-39,36
50,-1889,-5,96,-4771,22,-85,-41,31
51,-1898,-1,93,-4774,22,-84,-41,36
52,-1890,-1,85,-4771,22,-85,-42,35
53,-1896,-4,92,-4756,23,-87,-43,34
54,-1890,3,88,-4767,22,-88,-40,36
55,-1890,-8,99,-4761,22,-87,-42,35
56,-1891,0,95,-4774,22,-86,-41,36
57,-1898,-5,90,-4764,22,-89,-36,34
58,-1897,2,86,-4768,22,-84,-37,33
59,-1897,-9,99,-4760,22,-90,-38,34
60,-1886,-6,91,-4771,22,-87,-37,31
61,-1895,-1,98,-4766,22,-86,-37,33
62,-1888,1,94,-4774,22,-90,-40,34
63,-1889,0,89,-4755,23,-88,-38,35
64,-1901,-9,85,-4770,22,-84,-38,31
65,-1894,-3,92,-4761,22,-87,-39,36
66,-1897,-3,100,-4763,22,-86,-35,33
67,-1898,4,94,-4751,23,-88,-39,39
68,-1894,-6,93,-4761,22,-86,-39,34
69,-1895,-4,102,-4759,23,-82,-37,34
70,-1891,-3,83,-4770,22,-87,-35,35
71,-1895,3,94,-4765,22,-83,-39,33
72,-1890,-5,89,-4769,22,-85,-39,36
73,-1898,-2,87,-4771,22,-87,-37,35
74,-1890,5,101,-4761,22,-85,-40,37
75,-1894,-6,89,-4763,22,-86,-39,33
76,-1901,-13,99,-4774,22,-87,-37,32
77,-1889,1,101,-4766,22,-87,-41,37
78,-1893,-2,94,-4765,22,-88,-37,36
79,-1893,-3,93,-4765,22,-88,-37,33
80,-1901,-9,87,-4762,22,-89,-41,38
81,-1903,-5,92,-4765,22,-88,-38,32
82,-1898,-5,97,-4753,23,-87,-36,34
83,-1892,5,100,-4766,22,-85,-38,33
84,-1892,3,95,-4757,23,-90,-40,36
85,-1897,-5,91,-4753,23,-87,-36,33
86,-1889,0,88,-4760,22,-88,-37,36
87,-1896,-5,99,-4763,22,-87,-39,35
88,-1897,-7,95,-4762,22,-87,-39,34
89,-1899,-3,97,-4759,23,-90,-40,32
90,-1893,-4,84,-4761,22,-86,-40,33
91,-1896,-2,98,-4754,23,-92,-42,31
92,-1892,10,91,-4761,22,-86,-37,34
93,-1894,-2,96,-4765,22,-86,-37,32
94,-1891,0,92,-4767,22,-83,-37,30
95,-1896,-8,92,-4761,22,-87,-38,32
96,-1898,0,84,-4768,22,-83,-39,32
97,-1890,1,93,-4768,22,-88,-36,35
98,-1890,-2,92,-4759,23,-84,-37,33
99,-1896,-1,86,-4773,22,-84,-39,34
100,-1892,-1,101,-4765,22,-86,-37,35
101,-1895,0,91,-4773,22,-90,-38,34
102,-1890,-1,95,-4767,22,-89,-41,34
103,-1898,-11,94,-4759,23,-88,-39,32
104,-1896,2,81,-4763,22,-89,-40,35
105,-1890,-3,93,-4766,22,-87,-37,35
106,-1891,2,93,-4765,22,-86,-36,32
107,-1900,2,99,-4754,23,-89,-38,35
108,-1887,4,98,-4758,23,-85,-39,32
109,-1897,-5,95,-4755,23,-89,-38,33
110,-1897,-8,91,-4770,22,-91,-37,36
111,-1895,-3,83,-4769,22,-85,-37,35
112,-1894,-1,99,-4764,22,-81,-39,36
113,-1901,-5,94,-4767,22,-86,-38,30
114,-1889,0,80,-4761,22,-88,-42,37
115,-1895,4,89,-4756,23,-86,-37,33
116,-1895,-6,89,-4771,22,-88,-39,34
117,-1895,3,89,-4767,22,-86,-38,36
118,-1896,1,87,-4757,23,-85,-40,33
119,-1896,-7,92,-4767,22,-86,-40,32
120,-1893,-6,95,-4769,22,-84,-39,34
121,-1893,-7,98,-4774,22,-84,-38,35
122,-1890,-9,89,-4765,22,-86,-39,36
123,-1897,-6,89,-4765,22,-87,-38,34
124,-1896,-8,101,-4769,22,-87,-37,33
125,-1890,-8,93,-4754,23,-89,-39,37
126,-1897,-2,92,-4757,23,-84,-35,35
127,-1902,-3,94,-4761,22,-89,-37,36
128,-1894,0,93,-4755,23,-88,-37,34
129,-1888,-2,95,-4761,22,-87,-39,35
130,-1889,-1,91,-4754,23,-84,-38,34
131,-1895,-4,87,-4764,22,-85,-38,33
132,-1894,1,84,-4767,22,-87,-38,36
133,-1898,-4,97,-4761,22,-89,-38,34
134,-1885,-3,93,-4763,22,-86,-37,34
135,-1895,0,88,-4759,23,-85,-42,31
136,-1896,2,95,-4766,22,-83,-41,33
137,-1897,2,88,-4767,22,-86,-39,35
138,-1890,-3,99,-4765,22,-86,-40,38
139,-1894,-7,94,-4758,23,-87,-38,32
140,-1897,-11,95,-4765,22,-82,-41,32
141,-1899,-1,89,-4758,23,-86,-39,32
142,-1896,6,83,-4750,23,-84,-37,35
143,-1895,-1,91,-4773,22,-86,-36,36
144,-1895,1,95,-4767,22,-88,-42,33
145,-1896,-2,95,-4772,22,-85,-38,33
146,-1899,-1,99,-4761,22,-88,-41,34
147,-1901,0,82,-4769,22,-87,-41,35
148,-1890,-2,103,-4766,22,-89,-41,33
149,-1894,-4,104,-4770,22,-87,-36,34
150,-1900,-5,95,-4758,23,-84,-38,33
151,-1892,-9,88,-4768,22,-85,-40,34
152,-1894,0,99,-4760,22,-87,-38,34
153,-1890,-2,90,-4751,23,-85,-40,33
154,-1889,-7,91,-4764,22,-90,-36,36
155,-1893,0,87,-4766,22,-85,-39,35
156,-1891,-2,90,-4773,22,-89,-40,35
157,-1893,1,92,-4762,22,-87,-40,33
158,-1899,0,97,-4761,22,-89,-38,35
159,-1899,-5,92,-4765,22,-88,-41,31
160,-1897,-1,95,-4768,22,-87,-41,36
161,-1899,1,92,-4764,22,-84,-40,31
162,-1902,2,90,-4765,22,-88,-38,33
163,-1893,2,83,-4751,23,-88,-35,33
164,-1903,-4,89,-4766,22,-88,-36,35
165,-1888,-6,93,-4769,22,-85,-37,35
166,-1889,4,91,-4766,22,-87,-40,34
167,-1894,-4,90,-4760,22,-89,-40,34
168,-1885,-2,96,-4761,22,-86,-39,34
169,-1897,1,87,-4763,22,-88,-38,36
170,-1890,0,99,-4754,23,-84,-38,33
171,-1894,-5,85,-4761,22,-85,-41,35
172,-1897,-6,91,-4752,23,-87,-40,33
173,-1897,-6,87,-4767,22,-87,-41,33
174,-1897,-8,88,-4758,23,-85,-38,32
175,-1887,-4,105,-4766,22,-88,-37,35
176,-1891,-4,86,-4760,22,-89,-38,33
177,-1894,2,85,-4755,23,-88,-39,34
178,-1893,-3,95,-4767,22,-89,-38,38
179,-1890,-2,106,-4760,22,-90,-38,38
180,-1894,4,91,-4763,22,-90,-37,35
181,-1891,-7,104,-4762,22,-88,-37,34
182,-1904,-7,93,-4768,22,-81,-38,37
183,-1897,3,87,-4766,22,-87,-35,38
184,-1884,-4,98,-4761,22,-87,-39,34
185,-1890,-2,102,-4773,22,-87,-41,32
186,-1899,-5,89,-4761,22,-88,-39,35
187,-1898,1,99,-4757,23,-88,-39,35
188,-1893,-5,93,-4750,23,-88,-41,38
189,-1896,0,93,-4757,23,-89,-41,34
190,-1893,-4,77,-4754,23,-86,-41,36
191,-1891,-3,85,-4779,22,-84,-40,33
192,-1891,-4,98,-4763,22,-88,-40,32
193,-1892,-4,96,-4756,23,-84,-39,33
194,-1892,3,90,-4762,22,-89,-38,34
195,-1904,-3,88,-4771,22,-90,-42,34
196,-1888,-10,91,-4758,23,-87,-38,32
197,-1891,-2,93,-4772,22,-87,-41,35
198,-1895,-4,101,-4763,22,-89,-40,35
199,-1899,2,94,-4754,23,-87,-39,34
200,-1897,8,99,-4768,22,-87,-43,34
201,-1899,-6,86,-4758,23,-88,-41,34
202,-1894,1,93,-4758,23,-90,-41,35
203,-1894,2,89,-4761,22,-89,-37,34
204,-1893,-1,94,-4752,23,-86,-41,35
205,-1888,0,91,-4762,22,-89,-41,35
206,-1898,-5,96,-4753,23,-89,-41,32
207,-1902,0,93,-4759,23,-88,-41,33
208,-1901,1,91,-4767,22,-85,-37,33
209,-1891,-3,86,-4759,23,-87,-36,35
210,-1895,5,90,-4753,23,-85,-38,37
211,-1891,3,97,-4763,22,-87,-38,40
212,-1896,0,92,-4758,23,-87,-37,31
213,-1893,-1,85,-4766,22,-84,-38,35
214,-1893,2,99,-4757,23,-88,-41,36
215,-1897,0,87,-4757,23,-86,-42,32
216,-1898,-7,86,-4762,22,-89,-36,32
217,-1891,3,91,-4758,23,-88,-42,35
218,-1890,-6,97,-4763,22,-87,-36,36
219,-1892,-5,99,-4765,22,-87,-36,37
220,-1890,0,93,-4761,22,-90,-37,37
221,-1896,-4,90,-4750,23,-87,-40,36
222,-1890,-9,95,-4762,22,-88,-39,36
223,-1892,-2,93,-4762,22,-87,-40,34
224,-1901,6,104,-4761,22,-87,-39,39
225,-1886,-7,87,-4762,22,-85,-39,31
226,-1899,2,99,-4760,22,-86,-36,34
227,-1893,-4,96,-4752,23,-88,-40,37
228,-1894,-6,88,-4758,23,-84,-39,34
229,-1895,-5,99,-4765,22,-86,-36,35
230,-1896,-6,84,-4760,22,-85,-39,37
231,-1896,-5,82,-4764,22,-88,-38,36
232,-1893,2,90,-4765,22,-86,-39,36
233,-1891,0,86,-4758,23,-87,-36,34
234,-1896,0,91,-4757,23,-85,-34,34
235,-1896,-4,100,-4761,22,-86,-38,32
236,-1894,3,98,-4764,22,-86,-38,37
237,-1896,-6,92,-4755,23,-86,-40,33
238,-1896,1,98,-4755,23,-87,-40,35
239,-1895,3,95,-4767,22,-88,-38,34
240,-1895,-2,88,-4759,23,-86,-37,37
241,-1895,-4,85,-4771,22,-88,-36,35
242,-1894,0,85,-4752,23,-86,-38,36
243,-1898,-3,96,-4753,23,-88,-37,36
244,-1898,-1,108,-4762,22,-90,-36,37
245,-1898,6,86,-4768,22,-88,-36,35
246,-1893,0,85,-4754,23,-87,-37,34
247,-1895,3,101,-4766,22,-86,-42,38
248,-1900,-1,94,-4763,22,-86,-38,34
249,-1893,-2,86,-4764,22,-88,-37,31
250,-1895,-1,104,-4773,22,-84,-44,35
251,-1890,1,99,-4770,22,-84,-41,37
252,-1898,0,84,-4760,22,-84,-34,38
253,-1896,3,102,-4762,22,-87,-40,35
254,-1893,-4,96,-4766,22,-86,-39,34
255,-1891,-7,105,-4758,23,-85,-40,37
256,-1895,-5,81,-4758,23,-89,-39,36
257,-1901,-2,82,-4762,22,-88,-39,33
258,-1893,-1,92,-4757,23,-89,-37,33
259,-1885,5,98,-4764,22,-87,-37,34
260,-1903,2,90,-4765,22,-86,-42,35
261,-1886,0,94,-4767,22,-86,-39,35
262,-1895,0,94,-4768,22,-89,-41,35
263,-1892,-6,103,-4754,23,-86,-37,33
264,-1895,-3,91,-4766,22,-84,-38,36
265,-1890,-2,98,-4753,23,-86,-44,32
266,-1890,-3,92,-4757,23,-86,-38,33
267,-1885,2,105,-4743,23,-86,-38,34
268,-1903,-4,96,-4759,23,-88,-39,34
269,-1893,2,90,-4755,23,-89,-40,35
270,-1892,-2,78,-4756,23,-84,-36,35
271,-1897,3,93,-4766,22,-86,-37,33
272,-1896,-7,94,-4758,23,-89,-38,34
273,-1890,-10,88,-4755,23,-89,-38,32
274,-1888,-1,94,-4757,23,-90,-38,36
275,-1889,-1,97,-4755,23,-89,-34,34
276,-1902,5,90,-4759,23,-89,-40,34
277,-1894,4,89,-4751,23,-85,-36,34
278,-1890,5,103,-4763,22,-87,-37,35
279,-1897,1,104,-4772,22,-87,-40,34
280,-1892,5,81,-4757,23,-92,-38,32
281,-1891,-1,84,-4757,23,-89,-41,37
282,-1894,2,91,-4752,23,-85,-39,36
283,-1899,-1,89,-4763,22,-87,-36,35
284,-1892,-2,84,-4760,22,-87,-43,32
285,-1894,-3,87,-4757,23,-89,-41,34
286,-1901,-7,94,-4751,23,-88,-42,34
287,-1890,0,93,-4765,22,-86,-38,35
288,-1885,-8,106,-4765,22,-84,-36,38
289,-1889,-1,96,-4761,22,-85,-39,33
290,-1893,-2,86,-4764,22,-84,-39,37
291,-1898,4,106,-4758,23,-86,-35,37
292,-1885,-2,100,-4770,22,-86,-40,32
293,-1888,-10,90,-4754,23,-85,-38,35
294,-1895,-4,95,-4767,22,-88,-40,34
295,-1899,-3,88,-4765,22,-89,-37,35
296,-1898,-12,92,-4760,22,-86,-37,35
297,-1902,-4,102,-4756,23,-87,-38,36
298,-1893,0,91,-4761,22,-86,-41,34
299,-1889,0,87,-4762,22,-88,-36,34
300,-1902,-8,98,-4763,22,-85,-38,35
301,-1894,-2,90,-4765,22,-89,-37,34
302,-1894,0,92,-4758,23,-85,-39,35
303,-1894,2,92,-4759,23,-87,-42,34
304,-1889,-1,92,-4761,22,-88,-38,33
305,-1897,-1,91,-4760,22,-87,-39,36
306,-1892,-3,85,-4767,22,-90,-39,36
307,-1896,6,86,-4756,23,-90,-39,36
308,-1895,2,91,-4762,22,-89,-38,34
309,-1887,-4,89,-4767,22,-87,-40,36
310,-1887,-8,99,-4767,22,-88,-40,34
311,-1893,5,87,-4757,23,-85,-41,33
312,-1891,-8,82,-4750,23,-86,-37,34
313,-1897,1,99,-4762,22,-89,-39,34
314,-1900,0,102,-4758,23,-89,-36,33
315,-1889,1,93,-4757,23,-83,-38,34
316,-1888,-3,79,-4758,23,-86,-39,37
317,-1897,-1,97,-4767,22,-87,-37,37
318,-1893,-2,85,-4754,23,-88,-39,30
319,-1898,-9,87,-4762,22,-85,-42,31
320,-1895,-3,88,-4756,23,-86,-35,32
321,-1883,4,89,-4766,22,-87,-37,35
322,-1891,-2,81,-4761,22,-86,-40,35
323,-1887,-4,97,-4762,22,-86,-37,35
324,-1885,-5,84,-4756,23,-82,-39,37
325,-1892,-7,91,-4746,23,-87,-37,36
326,-1895,-3,88,-4759,23,-85,-38,32
327,-1891,-4,96,-4759,23,-88,-37,34
328,-1896,-7,101,-4757,23,-89,-34,38
329,-1901,5,97,-4755,23,-87,-38,36
330,-1896,2,108,-4759,23,-85,-38,32
331,-1897,-5,99,-4755,23,-89,-40,34
332,-1897,7,90,-4767,22,-85,-42,34
333,-1899,-4,82,-4754,23,-85,-37,33
334,-1893,-2,94,-4746,23,-89,-36,34
335,-1899,-4,92,-4758,23,-90,-36,35
336,-1892,1,79,-4757,23,-90,-40,36
337,-1897,-4,89,-4759,23,-86,-41,35
338,-1898,6,94,-4750,23,-87,-40,36
339,-1888,4,101,-4755,23,-88,-36,32
340,-1892,-2,87,-4752,23,-87,-41,36
341,-1899,-4,99,-4760,22,-86,-39,33
342,-1899,3,103,-4768,22,-87,-40,35
343,-1895,-5,100,-4761,22,-84,-41,34
344,-1886,-6,104,-4764,22,-88,-40,34
345,-1900,-6,93,-4763,22,-85,-38,34
346,-1901,1,96,-4747,23,-85,-37,35
347,-1887,3,89,-4759,23,-85,-35,37
348,-1896,1,94,-4764,22,-86,-39,35
349,-1895,1,99,-4770,22,-86,-41,33
350,-1895,1,88,-4771,22,-87,-41,35
351,-1890,-1,82,-4756,23,-87,-41,33
352,-1895,-3,98,-4766,22,-88,-39,32
353,-1898,-1,93,-4762,22,-89,-38,32
354,-1891,8,89,-4770,22,-88,-35,34
355,-1904,4,101,-4751,23,-89,-40,36
356,-1895,-6,92,-4756,23,-85,-40,35
357,-1897,-8,95,-4757,23,-85,-39,38
358,-1896,0,90,-4749,23,-88,-36,35
359,-1892,-6,104,-4764,22,-86,-40,35
360,-1893,3,90,-4750,23,-87,-36,36
361,-1883,2,84,-4761,22,-88,-39,38
362,-1894,-4,96,-4766,22,-88,-39,35
363,-1892,6,98,-4750,23,-86,-41,33
364,-1893,-6,99,-4758,23,-86,-38,34
365,-1896,-2,92,-4757,23,-86,-36,33
366,-1894,-2,102,-4764,22,-88,-37,33
367,-1896,0,85,-4759,23,-87,-43,36
368,-1893,-9,86,-4762,22,-86,-36,34
369,-1897,-3,93,-4760,22,-89,-40,38
370,-1890,2,90,-4760,22,-84,-40,35
371,-1897,-1,95,-4755,23,-90,-37,35
372,-1899,-6,93,-4747,23,-86,-36,34
373,-1900,-8,91,-4755,23,-89,-37,35
374,-1894,4,80,-4753,23,-88,-40,32
375,-1898,-4,97,-4760,22,-86,-38,37
376,-1900,-2,81,-4762,22,-85,-38,34
377,-1896,-5,82,-4751,23,-89,-40,31
378,-1897,-2,97,-4770,22,-87,-40,32
379,-1890,-4,89,-4774,22,-84,-38,32
380,-1900,5,94,-4761,22,-86,-42,36
381,-1895,0,92,-4757,23,-88,-37,37
382,-1889,-12,91,-4751,23,-88,-36,33
383,-1896,5,95,-4764,22,-84,-37,35
384,-1898,-1,97,-4755,23,-84,-41,33
385,-1894,-4,98,-4762,22,-84,-39,33
386,-1892,-5,98,-4757,23,-87,-33,35
387,-1892,0,96,-4761,22,-87,-40,36
388,-1897,-5,93,-4752,23,-88,-39,34
389,-1889,3,94,-4761,22,-89,-37,33
390,-1893,8,92,-4757,23,-87,-38,34
391,-1894,2,93,-4756,23,-82,-39,35
392,-1891,1,100,-4762,22,-87,-41,35
393,-1893,3,104,-4759,23,-84,-36,33
394,-1903,-2,98,-4765,22,-82,-38,35
395,-1899,0,94,-4748,23,-87,-38,31
396,-1896,0,93,-4757,23,-89,-43,33
397,-1892,-1,95,-4757,23,-89,-35,38
398,-1897,1,95,-4762,22,-89,-38,38
399,-1899,-4,90,-4759,23,-88,-40,32
400,-1893,-7,85,-4749,23,-87,-34,36
401,-1894,-9,90,-4750,23,-90,-37,35
402,-1895,-11,93,-4761,22,-88,-42,35
403,-1896,-6,76,-4763,22,-87,-39,33
404,-1892,0,94,-4751,23,-84,-39,34
405,-1894,-5,105,-4751,23,-87,-37,35
406,-1898,-1,98,-4749,23,-88,-39,37
407,-1895,-5,101,-4756,23,-89,-38,33
408,-1893,-5,94,-4746,23,-85,-37,33
409,-1898,-4,99,-4751,23,-87,-40,34
410,-1895,0,84,-4755,23,-83,-37,35
411,-1883,-1,92,-4740,23,-86,-36,35
412,-1898,-1,93,-4761,22,-85,-36,33
413,-1901,-1,87,-4754,23,-85,-44,34
414,-1893,-1,89,-4752,23,-89,-39,35
415,-1898,-9,95,-4757,23,-88,-39,37
416,-1894,0,95,-4753,23,-89,-41,36
417,-1894,-2,91,-4758,23,-90,-40,33
418,-1895,-2,89,-4764,22,-89,-37,33
419,-1902,0,104,-4750,23,-90,-39,33
420,-1902,-1,88,-4757,23,-87,-38,34
421,-1895,-4,90,-4757,23,-88,-40,33
422,-1899,-4,96,-4753,23,-83,-38,33
423,-1893,-5,91,-4755,23,-84,-36,36
424,-1886,0,93,-4754,23,-88,-39,35
425,-1893,-9,98,-4758,23,-84,-42,37
426,-1886,4,87,-4756,23,-86,-37,34
427,-1888,9,94,-4757,23,-87,-41,36
428,-1898,-6,98,-4752,23,-89,-39,32
429,-1897,0,95,-4753,23,-88,-39,29
430,-1899,-1,87,-4758,23,-87,-38,35
431,-1897,-8,87,-4750,23,-86,-40,36
432,-1895,1,98,-4751,23,-87,-37,34
433,-1898,-8,100,-4742,23,-86,-38,32
434,-1896,-2,98,-4756,23,-89,-43,34
435,-1891,-1,97,-4746,23,-87,-40,33
436,-1893,-3,86,-4749,23,-90,-36,37
437,-1892,-4,99,-4750,23,-84,-37,32
438,-1900,3,92,-4749,23,-85,-39,35
439,-1902,3,94,-4757,23,-86,-39,35
440,-1896,-8,89,-4752,23,-90,-38,35
441,-1893,-5,94,-4754,23,-87,-38,37
442,-1898,4,90,-4748,23,-86,-40,35
443,-1892,4,79,-4757,23,-86,-38,34
444,-1890,1,86,-4759,23,-89,-44,34
445,-1893,-2,91,-4752,23,-85,-37,34
446,-1898,-5,89,-4756,23,-85,-39,34
447,-1900,-3,92,-4754,23,-85,-40,31
448,-1894,-5,94,-4755,23,-89,-38,35
449,-1897,-2,97,-4746,23,-87,-37,36
450,-1897,1,97,-4738,23,-88,-38,32
451,-1899,-9,106,-4750,23,-89,-38,36
452,-1893,-6,89,-4753,23,-87,-37,33
453,-1894,3,90,-4746,23,-87,-39,34
454,-1888,4,90,-4764,22,-85,-35,31
455,-1896,-14,86,-4757,23,-86,-36,35
456,-1887,-6,97,-4755,23,-85,-38,33
457,-1895,1,105,-4742,23,-87,-42,32
458,-1894,5,82,-4761,22,-86,-43,34
459,-1891,2,89,-4752,23,-89,-37,34
460,-1900,-1,100,-4758,23,-88,-43,30
461,-1896,-5,80,-4753,23,-86,-38,35
462,-1896,-12,95,-4742,23,-89,-42,33
463,-1897,-2,86,-4757,23,-88,-39,34
464,-1889,-9,96,-4762,22,-86,-40,36
465,-1894,3,102,-4761,22,-86,-37,36
466,-1894,0,94,-4749,23,-89,-38,33
467,-1891,-3,98,-4752,23,-89,-35,35
468,-1896,-4,87,-4755,23,-87,-39,34
469,-1888,-8,90,-4748,23,-87,-38,34
470,-1900,-5,91,-4755,23,-84,-41,32
471,-1898,-4,89,-4763,22,-91,-39,31
472,-1894,-3,101,-4764,22,-87,-34,34
473,-1895,-3,90,-4748,23,-89,-39,34
474,-1887,-2,80,-4750,23,-86,-42,33
475,-1895,-6,94,-4763,22,-86,-39,34
476,-1896,-2,109,-4750,23,-87,-39,35
477,-1891,1,96,-4755,23,-88,-38,36
478,-1899,2,100,-4761,22,-86,-36,37
479,-1886,0,92,-4759,23,-88,-36,33
480,-1890,-8,94,-4758,23,-87,-38,33
481,-1891,-2,91,-4752,23,-89,-40,35
482,-1890,-3,91,-4756,23,-87,-39,36
483,-1893,-2,95,-4746,23,-84,-42,36
484,-1891,7,92,-4751,23,-87,-36,34
485,-1902,-3,92,-4747,23,-88,-40,35
486,-1893,1,97,-4750,23,-87,-35,37
487,-1897,0,94,-4743,23,-86,-39,33
488,-1895,-1,97,-4748,23,-86,-35,37
489,-1896,1,93,-4747,23,-88,-36,34
490,-1896,-3,93,-4752,23,-84,-42,33
491,-1890,6,96,-4753,23,-88,-39,35
492,-1894,3,91,-4748,23,-90,-37,35
493,-1894,6,90,-4762,22,-86,-39,31
494,-1891,-11,101,-4757,23,-88,-37,32
495,-1897,-6,86,-4758,23,-85,-39,35
496,-1895,4,91,-4745,23,-86,-41,34
497,-1893,-4,87,-4743,23,-87,-38,29
498,-1891,3,90,-4764,22,-88,-39,36
499,-1891,-2,84,-4754,23,-85,-37,34
500,-1903,-10,94,-4741,23,-85,-42,34
501,-1889,-4,102,-4753,23,-87,-37,36
502,-1891,-5,90,-4744,23,-88,-39,37
503,-1897,-4,86,-4756,23,-88,-40,33
504,-1898,-2,97,-4760,22,-90,-37,35
505,-1897,1,84,-4756,23,-91,-37,35
506,-1892,1,91,-4751,23,-87,-38,36
507,-1891,2,86,-4751,23,-88,-40,34
508,-1897,-1,87,-4745,23,-86,-36,36
509,-1893,6,92,-4754,23,-88,-38,34
510,-1891,1,91,-4751,23,-86,-41,35
511,-1884,7,89,-4746,23,-90,-38,36
512,-1900,-7,84,-4757,23,-87,-35,31
513,-1890,-2,88,-4748,23,-87,-38,35
514,-1894,-6,106,-4753,23,-84,-38,36
515,-1895,-4,93,-4757,23,-89,-37,35
516,-1890,4,99,-4746,23,-89,-40,35
517,-1893,1,96,-4749,23,-89,-42,36
518,-1890,0,96,-4753,23,-86,-39,35
519,-1896,-3,88,-4756,23,-86,-40,34
520,-1889,0,94,-4753,23,-89,-37,37
521,-1899,-3,96,-4748,23,-87,-37,32
522,-1890,-6,95,-4750,23,-89,-39,34
523,-1900,-4,99,-4752,23,-86,-38,33
524,-1892,1,92,-4746,23,-88,-42,32
525,-1889,-3,83,-4741,23,-87,-35,33
526,-1891,4,85,-4749,23,-89,-40,34
527,-1895,-10,89,-4754,23,-88,-37,34
528,-1897,-3,92,-4744,23,-89,-38,36
529,-1891,0,100,-4753,23,-90,-38,37
530,-1892,2,85,-4763,22,-86,-38,34
531,-1893,13,93,-4748,23,-86,-37,35
532,-1902,-5,94,-4752,23,-87,-38,35
533,-1897,-1,87,-4753,23,-88,-40,36
534,-1888,-6,102,-4750,23,-87,-37,38
535,-1889,6,89,-4751,23,-85,-40,37
536,-1897,0,93,-4750,23,-88,-38,36
537,-1898,1,98,-4752,23,-91,-37,36
538,-1898,5,93,-4747,23,-88,-36,34
539,-1894,1,92,-4752,23,-87,-37,36
540,-1899,-1,95,-4764,22,-87,-39,34
541,-1896,4,92,-4751,23,-86,-42,36
542,-1892,-11,90,-4744,23,-91,-36,35
543,-1891,-7,94,-4749,23,-88,-37,35
544,-1891,7,98,-4759,23,-87,-37,34
545,-1900,-3,92,-4752,23,-85,-37,34
546,-1893,-5,97,-4755,23,-85,-39,35
547,-1900,5,89,-4753,23,-87,-41,33
548,-1899,0,94,-4749,23,-86,-38,31
549,-1892,0,97,-4754,23,-86,-37,34
550,-1889,-2,87,-4753,23,-88,-37,35
551,-1893,-2,88,-4754,23,-88,-40,35
552,-1900,1,88,-4770,22,-86,-39,35
553,-1896,0,107,-4754,23,-87,-39,34
554,-1903,-4,92,-4752,23,-85,-39,35
555,-1901,-6,87,-4759,23,-83,-41,36
556,-1893,1,89,-4759,23,-90,-39,33
557,-1890,-2,82,-4764,22,-87,-39,34
558,-1893,-4,91,-4753,23,-84,-37,33
559,-1887,-1,80,-4755,23,-87,-40,35
560,-1898,-11,91,-4754,23,-88,-42,36
561,-1904,-4,88,-4753,23,-88,-40,32
562,-1890,-3,95,-4749,23,-86,-39,32
563,-1900,-6,94,-4750,23,-88,-41,36
564,-1894,-5,80,-4752,23,-86,-41,37
565,-1889,-4,86,-4761,22,-89,-37,35
566,-1892,4,92,-4758,23,-86,-39,32
567,-1897,-1,90,-4752,23,-86,-39,34
568,-1891,4,103,-4748,23,-90,-38,33
569,-1892,-8,93,-4750,23,-91,-41,35
570,-1891,-3,95,-4750,23,-89,-41,34
571,-1889,1,93,-4756,23,-89,-40,33
572,-1895,5,96,-4745,23,-90,-35,32
573,-1893,-5,88,-4751,23,-85,-39,36
574,-1897,-2,94,-4755,23,-86,-41,36
575,-1899,-4,94,-4759,23,-86,-36,36
576,-1897,-8,91,-4747,23,-86,-37,33
577,-1899,-4,92,-4750,23,-89,-37,34
578,-1897,5,87,-4749,23,-92,-41,35
579,-1895,1,106,-4758,23,-86,-38,33
580,-1896,-3,82,-4748,23,-86,-40,36
581,-1897,7,87,-4752,23,-87,-36,35
582,-1897,-4,81,-4759,23,-89,-40,33
583,-1891,-1,93,-4757,23,-89,-39,37
584,-1891,4,91,-4757,23,-88,-35,35
585,-1900,7,91,-4760,22,-87,-37,35
586,-1888,-1,94,-4737,23,-86,-38,32
587,-1897,-6,102,-4751,23,-89,-43,34
588,-1902,-1,85,-4758,23,-88,-42,35
589,-1892,2,98,-4751,23,-87,-37,36
590,-1887,0,90,-4757,23,-87,-38,36
591,-1891,-9,94,-4764,22,-87,-40,32
592,-1897,-10,79,-4758,23,-89,-36,36
593,-1895,6,92,-4752,23,-83,-39,33
594,-1892,-6,93,-4755,23,-90,-40,35
595,-1893,0,88,-4760,22,-86,-37,38
596,-1891,-6,94,-4753,23,-87,-40,33
597,-1889,3,98,-4753,23,-85,-39,34
598,-1894,0,92,-4743,23,-88,-38,32
599,-1896,-7,102,-4741,23,-91,-40,35
600,-1890,-4,88,-4756,23,-89,-39,35
601,-1891,-1,99,-4753,23,-83,-39,32
602,-1894,-1,89,-4744,23,-88,-38,33
603,-1895,1,103,-4762,22,-88,-40,36
604,-1891,-8,95,-4750,23,-87,-38,35
605,-1891,3,80,-4757,23,-86,-44,37
606,-1896,-3,95,-4762,22,-88,-43,35
607,-1896,-5,95,-4745,23,-91,-40,37
608,-1886,-6,100,-4747,23,-88,-35,34
609,-1893,-7,88,-4747,23,-87,-38,34
610,-1892,-7,89,-4756,23,-86,-40,38
611,-1894,6,100,-4752,23,-86,-37,36
612,-1888,7,88,-4755,23,-85,-36,37
613,-1896,-10,93,-4754,23,-87,-43,33
614,-1897,-16,89,-4754,23,-87,-38,37
615,-1903,-3,91,-4757,23,-91,-36,34
616,-1893,-1,93,-4757,23,-87,-36,34
617,-1893,-2,93,-4765,22,-87,-38,34
618,-1901,4,99,-4758,23,-85,-36,37
619,-1900,-2,96,-4745,23,-88,-40,34
620,-1893,-3,94,-4746,23,-85,-34,35
621,-1895,-2,90,-4746,23,-87,-38,33
622,-1893,-4,86,-4747,23,-87,-39,35
623,-1897,-6,95,-4742,23,-86,-40,35
624,-1892,-2,95,-4757,23,-89,-37,35
625,-1893,1,85,-4754,23,-87,-39,33
626,-1896,4,96,-4752,23,-89,-39,35
627,-1901,-1,96,-4748,23,-86,-42,32
628,-1889,-7,95,-4746,23,-85,-38,37
629,-1878,2,88,-4746,23,-89,-41,35
630,-1893,-5,100,-4762,22,-88,-34,37
631,-1900,7,85,-4745,23,-85,-38,35
632,-1899,-4,97,-4748,23,-87,-37,35
633,-1895,-5,89,-4752,23,-85,-43,34
634,-1897,-6,89,-4748,23,-90,-35,38
635,-1891,2,97,-4747,23,-89,-34,35
636,-1896,-2,88,-4753,23,-86,-37,33
637,-1894,0,100,-4753,23,-86,-38,35
638,-1892,-3,90,-4746,23,-87,-35,36
639,-1898,-2,89,-4747,23,-87,-37,34
640,-1898,0,90,-4750,23,-87,-40,33
641,-1899,-3,88,-4755,23,-85,-37,32
642,-1891,-11,91,-4741,23,-88,-40,36
643,-1895,-1,101,-4738,23,-87,-39,35
644,-1902,-2,88,-4754,23,-87,-39,36
645,-1893,-8,103,-4754,23,-86,-36,34
646,-1894,-2,92,-4745,23,-86,-39,35
647,-1897,-7,89,-4761,22,-88,-37,35
648,-1902,1,84,-4753,23,-88,-41,34
649,-1892,-2,90,-4747,23,-88,-41,37
650,-1894,4,94,-4750,23,-88,-41,35
651,-1894,-2,88,-4760,22,-86,-35,38
652,-1894,1,91,-4739,23,-88,-36,34
653,-1887,1,97,-4748,23,-89,-37,36
654,-1894,-2,96,-4755,23,-83,-39,35
655,-1893,-5,92,-4756,23,-89,-38,32
656,-1896,-6,87,-4750,23,-86,-37,36
657,-1898,3,98,-4753,23,-88,-40,34
658,-1886,-3,95,-4751,23,-89,-38,36
659,-1897,-3,93,-4756,23,-87,-37,33
660,-1897,5,80,-4753,23,-87,-41,35
661,-1888,-2,87,-4747,23,-86,-36,35
662,-1891,-3,92,-4750,23,-87,-39,34
663,-1896,-3,98,-4757,23,-86,-36,33
664,-1895,4,100,-4743,23,-87,-38,34
665,-1897,1,94,-4755,23,-88,-40,34
666,-1896,-1,89,-4755,23,-88,-38,37
667,-1891,-6,91,-4754,23,-87,-38,34
668,-1895,-8,92,-4751,23,-87,-34,33
669,-1895,1,89,-4742,23,-92,-40,34
670,-1893,-1,86,-4751,23,-90,-38,37
671,-1897,-3,85,-4756,23,-86,-39,35
672,-1897,-1,85,-4750,23,-88,-43,31
673,-1895,0,97,-4753,23,-86,-35,37
674,-1886,-1,96,-4756,23,-87,-36,32
675,-1899,1,87,-4752,23,-88,-38,34
676,-1893,3,98,-4759,23,-86,-37,33
677,-1890,-8,104,-4746,23,-83,-41,36
678,-1888,-6,99,-4754,23,-89,-39,36
679,-1893,-4,73,-4751,23,-88,-39,32
680,-1897,-5,91,-4749,23,-88,-37,27
681,-1904,1,75,-4757,23,-87,-38,33
682,-1893,3,98,-4760,22,-82,-41,33
683,-1890,-4,83,-4744,23,-89,-40,36
684,-1888,-7,92,-4757,23,-85,-39,35
685,-1895,-4,94,-4758,23,-88,-40,33
686,-1897,-1,95,-4747,23,-83,-42,36
687,-1897,-2,98,-4747,23,-87,-36,34
688,-1894,-1,85,-4747,23,-89,-35,34
689,-1884,-5,95,-4748,23,-85,-36,34
690,-1899,0,96,-4757,23,-86,-38,33
691,-1899,-8,103,-4753,23,-89,-42,36
692,-1885,-5,93,-4754,23,-88,-41,38
693,-1895,5,101,-4752,23,-88,-38,36
694,-1901,2,91,-4749,23,-87,-40,38
695,-1895,5,106,-4746,23,-85,-40,33
696,-1895,-6,90,-4748,23,-86,-39,34
697,-1894,7,102,-4755,23,-90,-41,35
698,-1889,0,99,-4746,23,-92,-39,32
699,-1888,-2,89,-4759,23,-89,-36,34
700,-1892,-4,96,-4751,23,-87,-42,35
701,-1894,-2,89,-4756,23,-89,-41,35
702,-1891,-10,96,-4759,23,-90,-43,35
703,-1896,-5,89,-4753,23,-88,-40,35
704,-1900,4,82,-4744,23,-89,-39,36
705,-1893,-1,91,-4747,23,-87,-40,34
706,-1899,-4,102,-4747,23,-89,-38,33
707,-1893,-2,89,-4743,23,-87,-40,31
708,-1893,-4,96,-4755,23,-90,-41,37
709,-1899,1,101,-4758,23,-85,-38,36
710,-1892,-5,101,-4761,22,-88,-37,33
711,-1895,6,86,-4758,23,-86,-39,37
712,-1890,-1,93,-4756,23,-85,-38,35
713,-1890,-1,91,-4760,22,-86,-39,36
714,-1898,1,84,-4741,23,-85,-35,33
715,-1894,-1,82,-4747,23,-90,-39,36
716,-1896,4,78,-4748,23,-91,-38,31
717,-1891,-6,90,-4752,23,-88,-39,36
718,-1894,1,95,-4743,23,-85,-39,37
719,-1888,-2,81,-4750,23,-88,-37,33
720,-1886,5,104,-4752,23,-89,-39,33
721,-1889,-5,88,-4750,23,-88,-41,36
722,-1893,-8,89,-4740,23,-85,-39,37
723,-1902,1,87,-4750,23,-88,-40,35
724,-1903,4,90,-4754,23,-89,-38,33
725,-1892,-1,91,-4755,23,-88,-37,34
726,-1894,4,95,-4755,23,-87,-39,33
727,-1896,-1,98,-4754,23,-87,-37,39
728,-1895,-6,95,-4750,23,-87,-41,36
729,-1895,1,92,-4735,23,-86,-38,34
730,-1890,2,87,-4758,23,-86,-40,34
731,-1899,3,100,-4754,23,-86,-41,32
732,-1897,-3,92,-4740,23,-85,-37,34
733,-1895,-5,87,-4747,23,-86,-39,34
734,-1893,-2,89,-4750,23,-86,-40,36
735,-1897,-10,84,-4751,23,-86,-37,32
736,-1894,-1,96,-4745,23,-90,-40,35
737,-1900,-6,98,-4753,23,-89,-38,35
738,-1890,7,84,-4750,23,-90,-38,34
739,-1892,5,90,-4760,22,-86,-42,37
740,-1894,2,104,-4745,23,-88,-38,35
741,-1893,-3,97,-4754,23,-87,-37,35
742,-1893,3,96,-4752,23,-89,-37,34
743,-1889,1,91,-4749,23,-86,-37,36
744,-1893,0,84,-4755,23,-87,-38,34
745,-1887,7,91,-4754,23,-84,-39,32
746,-1895,4,96,-4757,23,-85,-36,34
747,-1896,-1,91,-4750,23,-88,-34,35
748,-1893,-6,86,-4758,23,-86,-40,36
749,-1889,1,96,-4755,23,-88,-37,33
750,-1899,-4,90,-4752,23,-89,-38,35
751,-1890,4,103,-4745,23,-87,-37,35
752,-1888,-10,97,-4744,23,-88,-36,34
753,-1898,-5,88,-4750,23,-89,-38,34
754,-1894,2,97,-4745,23,-86,-41,35
755,-1889,-5,92,-4746,23,-88,-42,35
756,-1888,-1,87,-4744,23,-88,-39,36
757,-1902,3,87,-4749,23,-89,-38,37
758,-1889,-7,86,-4745,23,-89,-38,39
759,-1895,-5,87,-4746,23,-86,-38,32
760,-1893,8,98,-4750,23,-88,-38,32
761,-1897,-7,93,-4749,23,-87,-35,34
762,-1903,-6,91,-4754,23,-88,-40,36
763,-1887,-5,95,-4744,23,-86,-38,34
764,-1891,1,101,-4745,23,-84,-37,35
765,-1892,-4,79,-4758,23,-89,-38,36
766,-1901,1,100,-4756,23,-86,-40,37
767,-1890,4,88,-4755,23,-84,-41,34
768,-1891,-9,94,-4760,22,-88,-39,32
769,-1897,6,108,-4751,23,-87,-37,35
770,-1889,-3,87,-4749,23,-86,-42,36
771,-1897,-6,98,-4752,23,-87,-37,35
772,-1891,-2,88,-4752,23,-88,-39,35
773,-1884,1,94,-4753,23,-84,-38,35
774,-1894,-4,99,-4752,23,-85,-43,33
775,-1891,7,92,-4762,22,-86,-39,37
776,-1893,-7,99,-4748,23,-87,-38,37
777,-1885,2,93,-4753,23,-87,-39,36
778,-1902,-7,88,-4746,23,-88,-36,37
779,-1894,-3,87,-4759,23,-88,-38,37
780,-1900,-4,98,-4754,23,-89,-39,35
781,-1894,0,86,-4752,23,-86,-41,33
782,-1894,1,98,-4748,23,-87,-39,35
783,-1902,1,93,-4745,23,-92,-39,36
784,-1900,-2,87,-4749,23,-88,-40,34
785,-1890,0,82,-4751,23,-89,-39,32
786,-1893,-1,90,-4743,23,-88,-41,37
787,-1896,-8,92,-4740,23,-88,-40,36
788,-1898,-3,89,-4747,23,-89,-38,31
789,-1896,-4,106,-4742,23,-85,-40,37
790,-1894,4,90,-4751,23,-88,-41,33
791,-1894,-3,91,-4752,23,-86,-41,33
792,-1894,-1,97,-4743,23,-86,-39,34
793,-1896,1,98,-4753,23,-88,-33,32
794,-1897,-11,90,-4746,23,-85,-36,33
795,-1889,6,95,-4753,23,-86,-40,39
796,-1896,-5,87,-4744,23,-87,-39,34
797,-1896,0,98,-4748,23,-89,-40,32
798,-1897,-1,95,-4753,23,-88,-38,34
799,-1896,-7,86,-4750,23,-85,-37,35
800,-1888,2,104,-4745,23,-84,-40,34
801,-1899,-7,96,-4743,23,-84,-36,34
802,-1889,2,93,-4755,23,-89,-41,34
803,-1899,-1,93,-4751,23,-88,-39,35
804,-1895,-1,93,-4740,23,-87,-39,36
805,-1895,0,104,-4753,23,-90,-41,33
806,-1893,-6,99,-4747,23,-87,-38,35
807,-1893,-3,100,-4758,23,-85,-38,37
808,-1896,-2,92,-4759,23,-87,-41,35
809,-1893,0,91,-4757,23,-91,-34,38
810,-1902,-3,91,-4745,23,-88,-41,35
811,-1893,-5,80,-4750,23,-87,-37,36
812,-1891,-8,85,-4751,23,-86,-36,32
813,-1894,-1,90,-4742,23,-88,-37,37
814,-1888,-5,91,-4749,23,-86,-35,33
815,-1899,-2,94,-4746,23,-87,-39,36
816,-1891,2,93,-4743,23,-87,-37,35
817,-1889,6,77,-4751,23,-86,-37,32
818,-1904,0,99,-4754,23,-85,-38,36
819,-1887,0,92,-4749,23,-89,-40,39
820,-1889,-1,105,-4739,23,-87,-38,37
821,-1888,-5,97,-4752,23,-88,-37,36
822,-1891,-8,97,-4743,23,-89,-39,36
823,-1893,-8,103,-4745,23,-86,-40,31
824,-1893,-4,89,-4748,23,-85,-40,35
825,-1891,-4,94,-4744,23,-86,-38,32
826,-1896,-2,96,-4755,23,-88,-36,34
827,-1901,4,99,-4749,23,-87,-37,35
828,-1895,5,99,-4749,23,-87,-39,35
829,-1889,0,97,-4737,23,-90,-40,35
830,-1901,-6,95,-4752,23,-84,-38,32
831,-1896,-4,87,-4746,23,-83,-42,33
832,-1897,-1,88,-4753,23,-90,-32,34
833,-1900,5,85,-4743,23,-87,-35,35
834,-1900,-4,88,-4743,23,-83,-40,31
835,-1897,-4,92,-4750,23,-86,-35,34
836,-1899,-9,102,-4744,23,-86,-39,36
837,-1896,-1,82,-4751,23,-86,-39,34
838,-1898,-3,93,-4734,23,-85,-35,38
839,-1890,4,89,-4749,23,-89,-38,35
840,-1895,-1,93,-4761,22,-88,-39,36
841,-1893,-4,89,-4749,23,-86,-42,33
842,-1891,-1,99,-4753,23,-90,-37,32
843,-1904,-5,90,-4761,22,-87,-38,34
844,-1900,-9,81,-4754,23,-87,-39,37
845,-1892,-7,89,-4751,23,-88,-42,34
846,-1898,0,92,-4734,23,-87,-40,35
847,-1896,7,90,-4748,23,-86,-41,31
848,-1895,3,94,-4751,23,-90,-42,37
849,-1899,0,95,-4750,23,-88,-39,35
850,-1895,-1,89,-4746,23,-88,-41,35
851,-1896,1,92,-4745,23,-86,-37,35
852,-1896,-4,86,-4749,23,-92,-35,35
853,-1896,-1,93,-4753,23,-86,-40,34
854,-1897,-1,85,-4751,23,-83,-39,36
855,-1887,0,91,-4763,22,-88,-38,36
856,-1891,-2,99,-4759,23,-89,-38,34
857,-1896,-1,93,-4747,23,-85,-37,35
858,-1899,-10,102,-4752,23,-86,-37,33
859,-1894,-4,98,-4751,23,-82,-38,34
860,-1888,0,82,-4750,23,-86,-36,34
861,-1895,-7,90,-4755,23,-87,-40,30
862,-1893,-6,84,-4754,23,-88,-37,33
863,-1889,-6,102,-4757,23,-86,-38,37
864,-1901,-7,83,-4753,23,-88,-41,34
865,-1902,-1,97,-4757,23,-88,-38,36
866,-1898,-4,94,-4740,23,-85,-40,36
867,-1888,-7,89,-4751,23,-85,-40,36
868,-1899,-7,88,-4763,22,-84,-41,36
869,-1899,-7,85,-4753,23,-87,-38,34
870,-1898,-3,87,-4750,23,-86,-40,34
871,-1897,-2,94,-4744,23,-88,-40,34
872,-1899,2,94,-4753,23,-90,-38,33
873,-1891,-7,97,-4746,23,-86,-38,35
874,-1894,-3,94,-4755,23,-86,-39,33
875,-1887,-10,91,-4752,23,-89,-39,35
876,-1897,-2,88,-4762,22,-86,-38,31
877,-1897,-5,88,-4747,23,-89,-39,35
878,-1893,2,94,-4753,23,-88,-39,33
879,-1890,-5,92,-4751,23,-87,-37,35
880,-1900,-4,84,-4745,23,-85,-40,33
881,-1899,-9,102,-4759,23,-86,-39,36
882,-1892,-6,88,-4745,23,-85,-39,33
883,-1890,-1,82,-4753,23,-86,-39,30
884,-1898,1,98,-4761,22,-87,-38,34
885,-1898,-10,95,-4751,23,-86,-36,34
886,-1893,0,89,-4746,23,-87,-40,36
887,-1887,-1,89,-4744,23,-90,-37,34
888,-1894,-5,87,-4745,23,-84,-42,36
889,-1896,-7,98,-4748,23,-87,-42,32
890,-1894,-6,96,-4759,23,-87,-40,35
891,-1887,-2,89,-4735,23,-86,-41,37
892,-1887,-6,85,-4753,23,-85,-39,31
893,-1895,-7,96,-4757,23,-83,-36,33
894,-1892,1,94,-4752,23,-86,-37,35
895,-1897,-5,93,-4744,23,-86,-37,35
896,-1901,-12,92,-4749,23,-88,-35,31
897,-1896,-1,103,-4753,23,-87,-36,36
898,-1890,-7,105,-4749,23,-86,-38,38
899,-1895,-2,92,-4737,23,-86,-37,35
900,-1891,-1,88,-4743,23,-87,-42,35
901,-1893,-10,87,-4748,23,-86,-39,36
902,-1895,-2,93,-4742,23,-88,-40,36
903,-1897,0,99,-4740,23,-85,-37,34
904,-1893,6,99,-4748,23,-87,-39,35
905,-1900,1,92,-4744,23,-84,-40,31
906,-1901,0,93,-4745,23,-89,-37,36
907,-1901,-6,97,-4740,23,-88,-36,33
908,-1892,0,82,-4758,23,-89,-39,34
909,-1905,-9,93,-4738,23,-88,-37,33
910,-1892,5,91,-4743,23,-89,-37,30
911,-1891,-5,87,-4744,23,-88,-41,34
912,-1893,-5,95,-4750,23,-88,-38,36
913,-1898,0,85,-4736,23,-90,-38,35
914,-1893,1,94,-4741,23,-88,-38,36
915,-1895,-7,97,-4752,23,-88,-40,35
916,-1887,-9,88,-4760,22,-86,-36,32
917,-1896,1,92,-4744,23,-86,-36,33
918,-1892,6,95,-4751,23,-89,-41,32
919,-1896,-3,94,-4736,23,-87,-39,34
920,-1897,1,78,-4749,23,-85,-40,35
921,-1893,-1,86,-4750,23,-87,-36,35
922,-1892,-7,100,-4753,23,-85,-38,34
923,-1890,-2,92,-4746,23,-85,-38,34
924,-1897,-1,84,-4743,23,-86,-37,32
925,-1899,-5,82,-4748,23,-89,-38,34
926,-1896,-7,89,-4744,23,-90,-37,34
927,-1898,-3,86,-4747,23,-86,-39,36
928,-1893,-2,92,-4748,23,-88,-39,35
929,-1898,-6,95,-4748,23,-90,-38,33
930,-1890,-4,95,-4745,23,-86,-35,34
931,-1891,-2,95,-4753,23,-85,-37,35
932,-1902,-7,106,-4742,23,-84,-37,37
933,-1894,-8,84,-4749,23,-88,-38,35
934,-1892,3,96,-4752,23,-87,-42,33
935,-1898,0,86,-4740,23,-86,-40,35
936,-1897,-7,79,-4737,23,-87,-39,32
937,-1886,2,108,-4757,23,-86,-39,35
938,-1885,0,101,-4744,23,-88,-39,33
939,-1895,-16,89,-4744,23,-86,-38,36
940,-1895,-8,95,-4745,23,-85,-37,29
941,-1894,0,90,-4748,23,-85,-37,33
942,-1894,-2,90,-4756,23,-89,-35,33
943,-1892,-2,71,-4751,23,-87,-35,33
944,-1895,-1,86,-4748,23,-86,-38,34
945,-1899,0,87,-4748,23,-87,-39,35
946,-1889,-3,85,-4749,23,-89,-45,33
947,-1891,2,105,-4752,23,-88,-38,33
948,-1896,-3,92,-4754,23,-87,-39,34
949,-1886,-8,94,-4753,23,-86,-38,34
950,-1888,0,98,-4748,23,-88,-39,35
951,-1890,-11,89,-4760,22,-85,-38,32
952,-1903,-2,108,-4743,23,-89,-39,35
953,-1896,-4,90,-4752,23,-87,-38,34
954,-1905,-3,92,-4746,23,-88,-41,36
955,-1892,-8,97,-4753,23,-85,-35,36
956,-1898,-7,92,-4742,23,-85,-41,33
957,-1893,-7,87,-4758,23,-87,-39,38
958,-1901,-10,85,-4743,23,-85,-38,36
959,-1895,-2,96,-4738,23,-85,-38,36
960,-1899,-7,93,-4756,23,-88,-42,34
961,-1901,0,94,-4750,23,-86,-36,34
962,-1893,2,89,-4749,23,-84,-38,35
963,-1898,-4,99,-4730,23,-88,-37,36
964,-1893,-3,86,-4754,23,-88,-37,34
965,-1902,-2,97,-4747,23,-89,-39,30
966,-1889,-1,88,-4742,23,-86,-42,31
967,-1894,-6,93,-4740,23,-86,-37,32
968,-1901,3,89,-4750,23,-87,-41,35
969,-1900,-3,88,-4750,23,-89,-40,35
970,-1901,-4,100,-4741,23,-88,-39,34
971,-1900,-4,85,-4741,23,-84,-37,36
972,-1893,-1,89,-4756,23,-85,-39,36
973,-1900,3,89,-4747,23,-86,-37,33
974,-1901,7,90,-4749,23,-88,-38,36
975,-1887,-3,96,-4758,23,-88,-40,34
976,-1891,-4,97,-4745,23,-89,-37,34
977,-1894,5,92,-4742,23,-86,-38,33
978,-1885,-4,96,-4746,23,-90,-37,36
979,-1897,0,94,-4749,23,-85,-37,37
980,-1893,9,89,-4741,23,-86,-42,32
981,-1896,0,92,-4737,23,-88,-37,36
982,-1900,0,94,-4737,23,-85,-38,34
983,-1891,-5,83,-4751,23,-87,-36,35
984,-1894,0,89,-4751,23,-84,-35,36
985,-1905,-8,90,-4752,23,-84,-37,35
986,-1900,-3,89,-4750,23,-89,-37,31
987,-1893,0,85,-4749,23,-87,-40,33
988,-1894,5,80,-4747,23,-89,-40,35
989,-1896,3,93,-4743,23,-84,-36,36
990,-1894,-4,97,-4759,23,-86,-40,33
991,-1901,0,85,-4742,23,-84,-40,39
992,-1892,2,97,-4749,23,-83,-39,36
993,-1902,-3,94,-4752,23,-83,-39,32
994,-1887,1,80,-4743,23,-88,-42,35
995,-1895,3,90,-4746,23,-82,-40,37
996,-1897,-4,93,-4738,23,-85,-40,33
997,-1892,-3,95,-4749,23,-92,-36,31
998,-1894,-5,95,-4753,23,-90,-36,33
