,acc_X,acc_Y,acc_Z,temp,tempC,gyr_X,gyr_Y,gyr_Z
0,-3789,-7,187,-4760,22,-44,-20,17
1,-3788,-8,186,-4761,22,-44,-20,17
2,-3788,-5,189,-4760,22,-44,-20,17
3,-3790,-3,189,-4760,22,-44,-20,17
4,-3790,-4,188,-4760,22,-44,-20,17
5,-3790,-4,188,-4758,23,-44,-20,17
6,-3791,-3,188,-4759,23,-44,-20,17
7,-3791,-3,187,-4760,22,-44,-20,17
8,-3790,-4,187,-4759,23,-44,-20,17
9,-3788,-4,186,-4758,23,-44,-20,17
10,-3786,-4,188,-4757,23,-44,-20,17
11,-3787,-4,191,-4757,23,-44,-20,17
12,-3786,-5,189,-4757,23,-44,-20,17
13,-3786,-4,193,-4759,23,-44,-20,17
14,-3786,-3,196,-4758,23,-44,-19,17
15,-3788,-4,190,-4760,22,-44,-19,17
16,-3789,-3,188,-4760,22,-44,-19,17
17,-3787,-3,190,-4759,23,-44,-19,17
18,-3788,-4,189,-4759,23,-44,-20,17
19,-3788,-4,185,-4760,22,-44,-20,17
20,-3790,-4,182,-4759,23,-44,-20,17
21,-3788,-5,180,-4758,23,-44,-20,17
22,-3789,-4,183,-4757,23,-44,-20,17
23,-3787,-4,183,-4758,23,-44,-20,17
24,-3790,-6,185,-4758,23,-44,-20,17
25,-3789,-7,186,-4760,22,-44,-20,17
26,-3789,-8,187,-4760,22,-44,-20,17
27,-3789,-8,186,-4761,22,-44,-20,17
28,-3789,-9,189,-4761,22,-44,-20,17
29,-3792,-8,188,-4761,22,-44,-20,17
30,-3792,-7,187,-4761,22,-43,-20,17
31,-3791,-6,188,-4759,23,-43,-20,17
32,-3788,-6,187,-4757,23,-44,-20,17
33,-3787,-6,183,-4757,23,-44,-20,17
34,-3789,-3,186,-4758,23,-43,-20,17
35,-3789,-4,188,-4757,23,-44,-20,17
36,-3790,-5,185,-4757,23,-44,-20,17
37,-3789,-5,189,-4758,23,-44,-20,17
38,-3789,-5,189,-4757,23,-44,-20,17
39,-3788,-6,190,-4757,23,-44,-20,17
40,-3788,-3,191,-4758,23,-44,-20,17
41,-3788,-6,187,-4759,23,-44,-20,17
42,-3789,-6,185,-4759,23,-44,-19,17
43,-3790,-6,187,-4758,23,-44,-20,17
44,-3787,-5,189,-4757,23,-44,-20,17
45,-3788,-4,187,-4757,23,-44,-20,17
46,-3788,-5,185,-4756,23,-44,-20,17
47,-3791,-5,185,-4756,23,-44,-20,17
48,-3793,-5,186,-4757,23,-44,-19,17
49,-3790,-7,188,-4756,23,-44,-19,17
50,-3789,-6,192,-4756,23,-44,-19,17
51,-3788,-4,191,-4756,23,-44,-19,17
52,-3787,-4,193,-4758,23,-44,-20,17
53,-3786,-5,193,-4759,23,-44,-20,17
54,-3790,-7,190,-4760,22,-43,-19,17
55,-3791,-6,191,-4758,23,-44,-20,17
56,-3792,-3,193,-4757,23,-44,-19,17
57,-3791,-5,188,-4756,23,-43,-20,17
58,-3791,-4,189,-4756,23,-43,-20,17
59,-3792,-3,185,-4757,23,-43,-20,17
60,-3794,-3,184,-4757,23,-43,-19,17
61,-3795,-4,187,-4758,23,-43,-20,17
62,-3794,-5,189,-4757,23,-44,-19,17
63,-3795,-7,189,-4756,23,-44,-19,16
64,-3795,-6,191,-4758,23,-44,-20,17
65,-3793,-7,188,-4757,23,-44,-20,16
66,-3793,-9,188,-4757,23,-43,-20,17
67,-3793,-9,184,-4757,23,-44,-20,17
68,-3792,-5,186,-4757,23,-44,-20,17
69,-3790,-6,188,-4756,23,-44,-20,17
70,-3792,-4,189,-4755,23,-44,-20,17
71,-3790,-3,190,-4755,23,-44,-20,17
72,-3788,-3,190,-4755,23,-44,-20,17
73,-3789,-2,189,-4758,23,-44,-20,17
74,-3792,-3,187,-4758,23,-44,-20,17
75,-3793,-1,185,-4757,23,-44,-19,17
76,-3793,-2,186,-4756,23,-44,-20,17
77,-3792,-3,186,-4757,23,-44,-20,17
78,-3794,-2,188,-4757,23,-44,-20,17
79,-3793,-2,185,-4757,23,-44,-20,17
80,-3795,-1,185,-4757,23,-44,-20,17
81,-3792,-3,182,-4757,23,-44,-19,17
82,-3794,-5,179,-4758,23,-44,-19,17
83,-3794,-2,181,-4757,23,-44,-20,17
84,-3793,-3,179,-4756,23,-44,-20,17
85,-3791,-6,181,-4757,23,-44,-20,17
86,-3789,-5,184,-4757,23,-44,-20,17
87,-3788,-6,181,-4757,23,-44,-20,17
88,-3786,-8,181,-4757,23,-43,-20,17
89,-3786,-7,184,-4757,23,-43,-20,17
90,-3785,-5,183,-4757,23,-43,-20,17
91,-3788,-3,186,-4757,23,-44,-19,17
92,-3789,-3,185,-4756,23,-43,-19,17
93,-3790,-3,183,-4756,23,-43,-19,17
94,-3791,-3,181,-4755,23,-43,-19,17
95,-3790,-5,180,-4756,23,-43,-19,17
96,-3792,-6,185,-4757,23,-43,-19,17
97,-3792,-3,184,-4756,23,-44,-19,17
98,-3792,-6,186,-4755,23,-44,-19,17
99,-3794,-5,187,-4755,23,-44,-19,18
100,-3794,-7,185,-4756,23,-44,-19,17
101,-3792,-6,186,-4756,23,-44,-20,17
102,-3791,-3,185,-4756,23,-44,-20,17
103,-3792,-3,186,-4757,23,-44,-20,17
104,-3791,-3,188,-4757,23,-44,-19,17
105,-3790,-1,188,-4757,23,-44,-20,17
106,-3790,-2,190,-4757,23,-44,-20,17
107,-3791,-4,190,-4758,23,-44,-20,17
108,-3789,-3,187,-4757,23,-44,-20,16
109,-3791,-4,186,-4758,23,-44,-20,16
110,-3789,-4,188,-4758,23,-44,-19,16
111,-3788,-3,187,-4759,23,-44,-19,16
112,-3785,-5,182,-4758,23,-44,-19,16
113,-3788,-6,186,-4758,23,-44,-20,16
114,-3786,-6,186,-4756,23,-44,-19,17
115,-3787,-6,183,-4757,23,-44,-20,17
116,-3789,-5,187,-4755,23,-44,-19,17
117,-3789,-4,184,-4755,23,-44,-19,17
118,-3787,-2,183,-4756,23,-44,-20,17
119,-3787,0,185,-4755,23,-44,-20,17
120,-3786,0,185,-4755,23,-44,-20,17
121,-3788,1,184,-4756,23,-44,-20,17
122,-3787,0,185,-4755,23,-44,-20,17
123,-3788,-2,184,-4756,23,-44,-20,17
124,-3789,-3,184,-4756,23,-44,-20,17
125,-3789,-5,186,-4757,23,-44,-20,17
126,-3790,-6,183,-4755,23,-44,-20,17
127,-3789,-6,186,-4757,23,-44,-20,17
128,-3789,-8,187,-4757,23,-44,-20,17
129,-3787,-8,187,-4756,23,-44,-20,17
130,-3787,-8,187,-4752,23,-44,-20,17
131,-3787,-7,185,-4754,23,-44,-19,17
132,-3789,-9,183,-4758,23,-44,-20,17
133,-3789,-6,184,-4759,23,-44,-19,17
134,-3790,-4,183,-4760,22,-44,-19,17
135,-3791,-4,184,-4760,22,-44,-19,17
136,-3791,-6,185,-4759,23,-44,-19,17
137,-3789,-6,184,-4760,22,-44,-19,17
138,-3790,-6,183,-4757,23,-44,-20,17
139,-3790,-5,183,-4757,23,-44,-20,17
140,-3793,-4,185,-4757,23,-44,-20,17
141,-3792,-4,188,-4756,23,-44,-20,17
142,-3790,-5,190,-4755,23,-44,-20,17
143,-3789,-7,192,-4756,23,-44,-20,17
144,-3787,-7,194,-4755,23,-44,-20,17
145,-3790,-5,196,-4753,23,-44,-20,17
146,-3789,-4,194,-4754,23,-44,-20,17
147,-3789,-3,195,-4753,23,-44,-20,17
148,-3788,-3,192,-4753,23,-44,-20,17
149,-3789,-3,189,-4754,23,-44,-20,17
150,-3790,-2,194,-4755,23,-44,-20,17
151,-3788,1,188,-4754,23,-44,-20,17
152,-3789,0,189,-4755,23,-45,-20,17
153,-3790,0,186,-4755,23,-44,-20,17
154,-3791,-1,183,-4755,23,-44,-20,17
155,-3792,-3,181,-4756,23,-44,-20,17
156,-3790,-4,183,-4756,23,-44,-20,17
157,-3791,-5,183,-4756,23,-44,-20,17
158,-3792,-7,184,-4756,23,-44,-20,17
159,-3790,-6,183,-4756,23,-44,-20,17
160,-3791,-5,186,-4756,23,-44,-20,17
161,-3790,-4,186,-4758,23,-44,-20,17
162,-3791,-3,183,-4759,23,-43,-20,17
163,-3792,-4,185,-4758,23,-43,-20,17
164,-3789,-5,185,-4759,23,-44,-20,17
165,-3789,-5,187,-4760,22,-44,-20,17
166,-3789,-4,190,-4759,23,-44,-20,17
167,-3791,-4,190,-4758,23,-44,-20,17
168,-3790,-3,187,-4756,23,-44,-20,17
169,-3791,-3,188,-4754,23,-43,-20,17
170,-3791,-5,189,-4753,23,-43,-20,17
171,-3791,-6,188,-4754,23,-43,-19,17
172,-3793,-8,189,-4755,23,-44,-19,17
173,-3793,-6,185,-4756,23,-44,-20,17
174,-3789,-4,184,-4756,23,-43,-19,17
175,-3791,-5,185,-4757,23,-43,-20,17
176,-3792,-4,181,-4756,23,-44,-20,17
177,-3791,-4,184,-4757,23,-44,-20,17
178,-3789,-4,186,-4757,23,-44,-20,17
179,-3788,-3,186,-4757,23,-44,-20,17
180,-3788,-3,186,-4757,23,-44,-20,17
181,-3787,-4,184,-4757,23,-44,-20,17
182,-3787,-4,182,-4757,23,-44,-20,17
183,-3788,-2,180,-4756,23,-44,-20,17
184,-3792,-3,181,-4756,23,-44,-20,17
185,-3791,-4,180,-4757,23,-44,-20,17
186,-3789,-6,185,-4758,23,-44,-20,18
187,-3790,-6,185,-4757,23,-44,-20,18
188,-3790,-7,186,-4757,23,-44,-20,17
189,-3789,-7,181,-4756,23,-44,-20,17
190,-3790,-6,182,-4756,23,-44,-20,17
191,-3792,-5,181,-4756,23,-44,-20,17
192,-3792,-5,184,-4756,23,-44,-20,17
193,-3790,-4,182,-4758,23,-43,-20,17
194,-3791,-4,182,-4759,23,-44,-20,17
195,-3790,-3,184,-4756,23,-44,-20,17
196,-3792,-1,185,-4756,23,-44,-20,17
197,-3792,-3,187,-4756,23,-44,-20,17
198,-3789,-5,188,-4756,23,-44,-20,17
199,-3788,-7,184,-4755,23,-43,-20,17
200,-3789,-5,184,-4753,23,-43,-20,17
201,-3789,-2,184,-4753,23,-44,-20,17
202,-3790,-3,184,-4754,23,-44,-20,17
203,-3790,-1,184,-4756,23,-44,-20,17
204,-3791,0,186,-4754,23,-43,-19,17
205,-3790,-1,184,-4753,23,-44,-19,17
206,-3791,-3,184,-4754,23,-44,-19,17
207,-3791,-4,185,-4753,23,-44,-19,17
208,-3791,-3,188,-4754,23,-44,-20,17
209,-3790,-4,188,-4753,23,-44,-20,17
210,-3787,-3,185,-4753,23,-44,-20,17
211,-3789,-4,182,-4753,23,-44,-20,17
212,-3789,-4,184,-4755,23,-44,-20,17
213,-3786,-4,185,-4755,23,-44,-20,17
214,-3786,-1,187,-4754,23,-44,-20,17
215,-3789,0,188,-4755,23,-44,-20,17
216,-3789,-4,188,-4754,23,-44,-20,17
217,-3789,-3,186,-4754,23,-44,-20,17
218,-3787,-1,184,-4755,23,-43,-20,17
219,-3787,-1,181,-4754,23,-43,-20,17
220,-3788,-1,182,-4753,23,-44,-20,17
221,-3788,-1,182,-4754,23,-44,-19,17
222,-3789,-1,186,-4753,23,-44,-20,17
223,-3789,-2,185,-4753,23,-44,-20,17
224,-3788,-3,182,-4752,23,-44,-20,17
225,-3790,-3,182,-4753,23,-43,-20,17
226,-3789,-4,182,-4752,23,-43,-20,17
227,-3790,-5,183,-4752,23,-44,-20,17
228,-3791,-5,186,-4756,23,-44,-20,17
229,-3790,-5,187,-4757,23,-44,-20,17
230,-3790,-7,184,-4755,23,-44,-19,17
231,-3790,-5,185,-4755,23,-44,-20,17
232,-3788,-4,186,-4754,23,-44,-20,17
233,-3787,-3,187,-4753,23,-44,-20,17
234,-3786,-2,184,-4754,23,-44,-20,17
235,-3785,-2,182,-4753,23,-44,-20,17
236,-3786,-4,177,-4755,23,-44,-20,17
237,-3788,-5,181,-4754,23,-44,-19,16
238,-3788,-4,184,-4756,23,-43,-20,16
239,-3786,-3,182,-4755,23,-43,-20,16
240,-3786,-2,181,-4755,23,-44,-19,17
241,-3787,-1,174,-4755,23,-44,-19,17
242,-3789,-1,175,-4754,23,-44,-19,17
243,-3791,-2,177,-4754,23,-44,-19,17
244,-3791,-1,179,-4753,23,-44,-19,17
245,-3790,-1,183,-4752,23,-43,-20,17
246,-3789,0,187,-4753,23,-44,-20,16
247,-3790,1,188,-4751,23,-44,-20,17
248,-3789,0,185,-4751,23,-43,-19,17
249,-3790,-1,186,-4753,23,-44,-20,17
250,-3791,-1,188,-4753,23,-44,-20,17
251,-3790,0,186,-4753,23,-44,-20,17
252,-3789,1,186,-4753,23,-43,-20,17
253,-3787,-1,187,-4752,23,-43,-20,17
254,-3790,-3,189,-4751,23,-43,-20,17
255,-3792,-3,189,-4752,23,-43,-20,17
256,-3791,-4,186,-4752,23,-44,-20,17
257,-3791,-4,187,-4752,23,-43,-20,18
258,-3791,-4,186,-4752,23,-44,-20,17
259,-3792,-5,185,-4753,23,-43,-20,17
260,-3792,-8,182,-4752,23,-44,-19,17
261,-3789,-8,183,-4752,23,-44,-20,17
262,-3791,-9,182,-4752,23,-44,-19,17
263,-3789,-8,184,-4753,23,-43,-20,17
264,-3791,-6,185,-4755,23,-43,-20,17
265,-3789,-8,186,-4753,23,-44,-20,17
266,-3788,-6,184,-4753,23,-44,-20,17
267,-3787,-4,182,-4754,23,-44,-20,17
268,-3786,-4,177,-4753,23,-44,-20,17
269,-3789,-4,179,-4753,23,-44,-20,17
270,-3790,-5,178,-4751,23,-44,-20,17
271,-3790,-6,179,-4750,23,-44,-20,17
272,-3789,-5,178,-4751,23,-44,-20,17
273,-3791,-5,177,-4751,23,-44,-20,17
274,-3791,-3,177,-4750,23,-44,-20,17
275,-3787,-4,180,-4750,23,-43,-19,17
276,-3788,-3,185,-4749,23,-43,-19,17
277,-3787,-3,188,-4752,23,-44,-20,17
278,-3788,-2,190,-4752,23,-44,-20,17
279,-3790,-3,191,-4751,23,-44,-20,17
280,-3791,-3,191,-4753,23,-44,-20,17
281,-3790,-4,190,-4754,23,-44,-20,17
282,-3793,-5,189,-4755,23,-44,-19,17
283,-3794,-4,190,-4754,23,-44,-20,17
284,-3791,-1,184,-4753,23,-43,-20,17
285,-3791,-1,182,-4753,23,-44,-20,17
286,-3793,1,181,-4752,23,-44,-20,17
287,-3793,-2,177,-4754,23,-44,-20,17
288,-3790,-5,177,-4754,23,-44,-20,17
289,-3791,-3,179,-4756,23,-44,-20,17
290,-3790,-1,180,-4757,23,-44,-20,17
291,-3788,-4,180,-4756,23,-44,-20,17
292,-3787,-2,180,-4755,23,-44,-20,17
293,-3787,-2,181,-4754,23,-44,-20,17
294,-3788,-3,179,-4755,23,-44,-20,17
295,-3788,-2,186,-4754,23,-44,-20,17
296,-3785,-1,183,-4754,23,-44,-20,17
297,-3786,-1,183,-4753,23,-44,-20,17
298,-3788,-1,184,-4752,23,-44,-20,17
299,-3789,-1,185,-4752,23,-44,-20,17
300,-3790,-2,185,-4753,23,-44,-20,17
301,-3788,-1,187,-4753,23,-44,-20,17
302,-3791,-1,186,-4752,23,-44,-20,17
303,-3794,-1,189,-4752,23,-44,-20,17
304,-3792,-1,188,-4751,23,-43,-20,17
305,-3790,0,186,-4753,23,-44,-19,17
306,-3791,-1,188,-4752,23,-44,-19,17
307,-3792,0,186,-4753,23,-44,-20,17
308,-3792,-2,186,-4752,23,-44,-20,17
309,-3792,-3,189,-4753,23,-44,-20,17
310,-3791,-2,188,-4752,23,-44,-20,17
311,-3788,0,188,-4754,23,-44,-20,16
312,-3785,-3,190,-4754,23,-44,-20,17
313,-3787,-1,187,-4755,23,-44,-20,17
314,-3787,2,186,-4755,23,-44,-20,17
315,-3789,2,188,-4756,23,-44,-20,17
316,-3789,0,185,-4755,23,-44,-20,17
317,-3788,1,186,-4754,23,-44,-19,17
318,-3786,0,185,-4754,23,-44,-20,17
319,-3788,0,186,-4755,23,-44,-20,17
320,-3785,-3,186,-4756,23,-44,-20,16
321,-3786,-2,187,-4755,23,-44,-20,16
322,-3785,-5,186,-4756,23,-44,-19,17
323,-3784,-8,186,-4755,23,-43,-19,16
324,-3789,-6,185,-4754,23,-43,-20,17
325,-3789,-7,185,-4753,23,-44,-20,17
326,-3793,-6,188,-4754,23,-43,-20,17
327,-3791,-6,187,-4756,23,-44,-20,17
328,-3790,-8,187,-4757,23,-44,-20,17
329,-3788,-10,188,-4757,23,-44,-20,17
330,-3786,-9,189,-4755,23,-44,-20,17
331,-3787,-8,188,-4756,23,-44,-20,17
332,-3786,-7,185,-4756,23,-44,-20,17
333,-3785,-6,183,-4756,23,-44,-20,17
334,-3785,-4,181,-4755,23,-44,-20,17
335,-3788,-4,182,-4753,23,-44,-20,17
336,-3790,-3,185,-4755,23,-44,-20,17
337,-3789,-5,181,-4754,23,-44,-20,17
338,-3791,-5,183,-4754,23,-44,-20,17
339,-3792,-5,181,-4753,23,-44,-20,17
340,-3791,-4,183,-4752,23,-44,-20,17
341,-3787,-4,185,-4750,23,-43,-20,17
342,-3787,-3,186,-4750,23,-43,-20,17
343,-3788,-3,188,-4752,23,-44,-20,17
344,-3789,-4,185,-4752,23,-44,-20,17
345,-3790,-4,184,-4755,23,-44,-20,17
346,-3791,-2,184,-4754,23,-44,-20,17
347,-3790,-3,184,-4753,23,-44,-20,17
348,-3789,-5,187,-4752,23,-44,-19,17
349,-3790,-4,189,-4753,23,-44,-19,17
350,-3793,-3,191,-4754,23,-43,-20,17
351,-3792,-3,191,-4753,23,-43,-20,17
352,-3790,-3,191,-4754,23,-43,-19,17
353,-3788,-3,193,-4755,23,-43,-19,17
354,-3787,-4,191,-4755,23,-43,-19,17
355,-3789,-3,194,-4753,23,-43,-20,17
356,-3790,-3,192,-4754,23,-44,-20,17
357,-3792,-3,188,-4754,23,-44,-20,17
358,-3791,-4,190,-4754,23,-44,-20,17
359,-3790,-4,191,-4754,23,-44,-20,17
360,-3790,-3,187,-4755,23,-44,-20,17
361,-3791,0,188,-4755,23,-44,-20,17
362,-3791,0,190,-4755,23,-43,-20,17
363,-3791,-1,191,-4756,23,-44,-20,17
364,-3789,0,195,-4756,23,-44,-20,17
365,-3790,1,192,-4755,23,-44,-20,17
366,-3791,0,192,-4754,23,-44,-20,17
367,-3793,-1,192,-4754,23,-44,-20,17
368,-3793,-4,189,-4754,23,-44,-20,17
369,-3792,-2,190,-4755,23,-44,-20,17
370,-3792,-4,187,-4754,23,-44,-20,17
371,-3789,-3,186,-4753,23,-44,-20,17
372,-3790,-5,187,-4753,23,-44,-20,17
373,-3790,-4,181,-4754,23,-44,-20,17
374,-3789,-4,178,-4754,23,-44,-20,17
375,-3789,-5,179,-4755,23,-44,-20,17
376,-3788,-4,181,-4754,23,-44,-20,17
377,-3789,-5,183,-4752,23,-44,-20,17
378,-3789,-5,181,-4753,23,-44,-20,17
379,-3791,-2,181,-4753,23,-43,-20,17
380,-3791,-2,183,-4753,23,-43,-20,17
381,-3789,-1,183,-4752,23,-43,-20,17
382,-3789,-1,182,-4753,23,-43,-20,17
383,-3791,-1,183,-4755,23,-43,-19,17
384,-3790,-1,182,-4754,23,-44,-19,17
385,-3791,-2,182,-4756,23,-44,-20,17
386,-3791,-1,184,-4754,23,-44,-20,17
387,-3788,-3,185,-4754,23,-44,-20,17
388,-3788,-5,184,-4752,23,-44,-20,17
389,-3786,-5,186,-4752,23,-44,-20,17
390,-3785,-2,185,-4752,23,-44,-20,17
391,-3785,-4,186,-4752,23,-44,-20,17
392,-3787,-5,186,-4750,23,-44,-20,17
393,-3789,-6,183,-4751,23,-43,-20,17
394,-3791,-6,181,-4749,23,-44,-20,17
395,-3791,-6,184,-4750,23,-44,-20,17
396,-3792,-4,185,-4750,23,-44,-20,17
397,-3793,-4,186,-4751,23,-44,-20,17
398,-3791,-4,187,-4751,23,-44,-20,17
399,-3788,-3,191,-4751,23,-44,-20,17
400,-3789,-3,194,-4751,23,-44,-20,17
401,-3791,-3,194,-4752,23,-44,-20,17
402,-3789,-4,194,-4752,23,-44,-20,17
403,-3785,-4,189,-4752,23,-44,-19,17
404,-3786,-6,188,-4751,23,-44,-20,17
405,-3785,-3,186,-4749,23,-44,-19,17
406,-3788,-1,184,-4750,23,-44,-20,17
407,-3786,-1,184,-4751,23,-44,-20,17
408,-3785,1,185,-4750,23,-44,-20,16
409,-3786,5,188,-4749,23,-43,-20,17
410,-3788,1,185,-4749,23,-43,-20,17
411,-3789,-1,187,-4749,23,-43,-20,17
412,-3789,-2,184,-4751,23,-43,-20,17
413,-3790,-4,183,-4751,23,-44,-19,17
414,-3792,-4,186,-4752,23,-44,-19,17
415,-3792,-7,185,-4751,23,-44,-20,17
416,-3789,-6,187,-4752,23,-44,-19,17
417,-3789,-7,185,-4753,23,-44,-19,17
418,-3789,-6,184,-4754,23,-44,-20,17
419,-3790,-6,183,-4754,23,-44,-19,17
420,-3786,-6,181,-4753,23,-44,-20,17
421,-3788,-4,184,-4753,23,-44,-20,17
422,-3787,-6,183,-4753,23,-44,-20,17
423,-3788,-3,181,-4752,23,-44,-20,17
424,-3789,-3,183,-4753,23,-44,-20,17
425,-3787,-4,183,-4754,23,-44,-20,17
426,-3787,-2,184,-4753,23,-44,-20,17
427,-3785,-2,189,-4751,23,-44,-19,17
428,-3785,-1,187,-4750,23,-44,-20,17
429,-3784,-1,188,-4751,23,-43,-20,17
430,-3788,-1,189,-4751,23,-43,-20,17
431,-3790,0,188,-4752,23,-44,-20,17
432,-3792,-2,189,-4751,23,-44,-20,17
433,-3790,-3,189,-4749,23,-43,-20,17
434,-3789,-3,190,-4751,23,-44,-20,17
435,-3790,-3,188,-4750,23,-44,-20,17
436,-3787,-4,188,-4751,23,-44,-20,17
437,-3788,-4,186,-4750,23,-44,-20,17
438,-3787,-4,182,-4750,23,-43,-19,17
439,-3789,-3,181,-4750,23,-44,-20,17
440,-3788,-4,183,-4750,23,-44,-19,17
441,-3789,-4,181,-4749,23,-44,-19,17
442,-3788,-7,184,-4751,23,-44,-20,17
443,-3788,-6,185,-4751,23,-44,-19,17
444,-3785,-6,184,-4751,23,-44,-19,17
445,-3786,-5,183,-4752,23,-44,-19,17
446,-3789,-6,184,-4752,23,-44,-19,17
447,-3787,-5,179,-4753,23,-44,-19,17
448,-3784,-2,182,-4752,23,-44,-20,17
449,-3785,-2,181,-4751,23,-43,-20,17
450,-3787,-2,185,-4750,23,-44,-20,17
451,-3787,-2,187,-4751,23,-44,-20,17
452,-3788,-3,187,-4751,23,-44,-20,17
453,-3787,-4,191,-4751,23,-44,-20,17
454,-3787,-4,190,-4751,23,-44,-20,17
455,-3789,-6,186,-4752,23,-44,-20,17
456,-3792,-7,188,-4754,23,-43,-20,17
457,-3790,-8,184,-4754,23,-44,-20,17
458,-3790,-9,181,-4753,23,-44,-20,17
459,-3789,-8,181,-4752,23,-44,-20,17
460,-3785,-6,186,-4753,23,-44,-20,17
461,-3786,-6,186,-4751,23,-44,-20,17
462,-3787,-4,184,-4754,23,-44,-20,17
463,-3787,-2,185,-4754,23,-44,-20,17
464,-3787,-1,181,-4754,23,-44,-20,18
465,-3788,-1,183,-4754,23,-44,-20,17
466,-3789,1,187,-4753,23,-44,-20,17
467,-3788,0,185,-4752,23,-44,-20,17
468,-3789,0,188,-4752,23,-44,-20,17
469,-3788,-1,191,-4752,23,-44,-20,17
470,-3789,0,193,-4751,23,-44,-20,17
471,-3787,-1,189,-4752,23,-44,-20,17
472,-3786,2,187,-4751,23,-44,-20,17
473,-3786,1,187,-4753,23,-44,-20,17
474,-3786,-4,185,-4754,23,-44,-20,17
475,-3788,-3,187,-4754,23,-44,-20,17
476,-3791,-3,186,-4755,23,-44,-20,17
477,-3791,-4,183,-4753,23,-44,-20,17
478,-3793,-3,187,-4754,23,-44,-20,17
479,-3790,-3,186,-4752,23,-44,-20,17
480,-3790,-2,186,-4752,23,-44,-20,17
481,-3791,-2,182,-4753,23,-43,-20,17
482,-3790,-2,184,-4753,23,-44,-20,17
483,-3789,-2,183,-4753,23,-44,-20,17
484,-3787,-2,183,-4753,23,-44,-20,17
485,-3788,-2,184,-4754,23,-44,-20,17
486,-3789,-3,183,-4753,23,-44,-20,17
487,-3789,-4,184,-4753,23,-44,-20,17
488,-3788,-7,187,-4752,23,-44,-20,17
489,-3790,-4,189,-4752,23,-44,-19,17
490,-3790,-3,186,-4752,23,-44,-19,17
491,-3793,-3,187,-4752,23,-44,-19,17
492,-3791,-4,188,-4752,23,-44,-19,17
493,-3788,-3,186,-4754,23,-44,-19,17
494,-3787,-3,182,-4756,23,-44,-19,17
495,-3788,-3,184,-4757,23,-44,-19,17
496,-3785,-2,186,-4756,23,-44,-20,17
497,-3785,-4,183,-4755,23,-44,-20,17
498,-3788,-5,185,-4753,23,-44,-20,17
499,-3791,-7,188,-4753,23,-44,-20,17
500,-3789,-8,192,-4752,23,-44,-20,17
501,-3789,-9,191,-4751,23,-44,-20,17
502,-3788,-9,190,-4750,23,-44,-20,17
503,-3787,-8,188,-4749,23,-44,-20,17
504,-3788,-7,191,-4748,23,-44,-19,17
505,-3789,-6,190,-4748,23,-44,-19,17
506,-3789,-4,188,-4748,23,-44,-19,17
507,-3786,-4,185,-4749,23,-44,-20,17
508,-3790,-3,185,-4752,23,-44,-20,17
509,-3788,-3,187,-4753,23,-44,-20,17
510,-3789,-3,182,-4753,23,-44,-20,17
511,-3788,-3,180,-4755,23,-44,-20,17
512,-3789,-6,182,-4756,23,-44,-20,17
513,-3788,-5,186,-4757,23,-45,-20,17
514,-3788,-3,187,-4754,23,-44,-20,16
515,-3788,-2,186,-4754,23,-44,-19,17
516,-3788,-3,189,-4754,23,-44,-20,17
517,-3789,-2,193,-4755,23,-44,-20,17
518,-3788,-2,195,-4754,23,-44,-20,17
519,-3790,-3,192,-4754,23,-44,-20,17
520,-3790,-1,192,-4753,23,-44,-20,17
521,-3791,0,191,-4753,23,-44,-20,17
522,-3792,-1,192,-4754,23,-44,-20,17
523,-3791,-3,191,-4755,23,-44,-20,17
524,-3789,-3,190,-4752,23,-44,-20,17
525,-3787,-3,192,-4753,23,-44,-20,17
526,-3788,-2,189,-4755,23,-44,-20,17
527,-3788,-2,192,-4753,23,-44,-20,17
528,-3790,-4,193,-4752,23,-44,-20,17
529,-3789,-4,193,-4752,23,-44,-20,17
530,-3789,-2,191,-4752,23,-44,-20,17
531,-3792,-1,188,-4753,23,-44,-20,17
532,-3789,-2,185,-4750,23,-44,-19,17
533,-3790,-4,186,-4752,23,-44,-20,17
534,-3788,-3,186,-4753,23,-44,-19,17
535,-3788,-5,184,-4753,23,-44,-20,17
536,-3789,-4,185,-4752,23,-44,-20,17
537,-3790,-5,183,-4749,23,-44,-20,17
538,-3789,-5,184,-4750,23,-44,-20,17
539,-3789,-2,187,-4749,23,-44,-20,17
540,-3789,-1,190,-4750,23,-44,-20,16
541,-3789,0,190,-4749,23,-44,-19,17
542,-3790,-2,185,-4750,23,-44,-20,17
543,-3788,-2,184,-4750,23,-44,-20,17
544,-3787,-5,185,-4749,23,-44,-20,17
545,-3786,-5,181,-4749,23,-43,-20,17
546,-3787,-5,183,-4750,23,-44,-20,17
547,-3787,-6,187,-4749,23,-44,-20,17
548,-3787,-5,187,-4752,23,-44,-20,17
549,-3787,-5,187,-4752,23,-44,-20,17
550,-3788,-5,186,-4751,23,-44,-20,17
551,-3788,-5,184,-4752,23,-44,-20,17
552,-3786,-4,182,-4753,23,-44,-20,17
553,-3789,0,182,-4753,23,-44,-20,17
554,-3789,0,184,-4753,23,-44,-20,17
555,-3786,0,183,-4752,23,-44,-20,17
556,-3786,0,182,-4751,23,-44,-20,17
557,-3785,-2,184,-4753,23,-44,-20,17
558,-3785,0,184,-4754,23,-44,-20,17
559,-3783,0,186,-4755,23,-44,-20,17
560,-3784,-2,188,-4753,23,-44,-20,17
561,-3784,0,188,-4752,23,-44,-20,17
562,-3784,-1,188,-4752,23,-44,-20,17
563,-3786,-2,187,-4750,23,-44,-20,17
564,-3788,-3,184,-4750,23,-44,-19,17
565,-3787,-1,184,-4750,23,-44,-19,17
566,-3788,0,183,-4750,23,-44,-19,17
567,-3790,1,182,-4751,23,-44,-19,17
568,-3790,2,182,-4751,23,-44,-19,17
569,-3791,3,182,-4750,23,-44,-19,17
570,-3791,5,186,-4751,23,-44,-19,17
571,-3792,4,183,-4751,23,-44,-19,17
572,-3790,1,184,-4751,23,-44,-20,17
573,-3791,0,185,-4752,23,-44,-20,17
574,-3790,2,185,-4752,23,-44,-19,17
575,-3787,3,186,-4752,23,-44,-20,17
576,-3789,0,185,-4753,23,-44,-20,17
577,-3787,-3,185,-4754,23,-44,-19,17
578,-3789,-4,185,-4752,23,-44,-19,17
579,-3787,-3,186,-4752,23,-44,-19,17
580,-3786,-4,186,-4753,23,-44,-20,17
581,-3785,-6,183,-4753,23,-44,-20,17
582,-3783,-6,184,-4752,23,-44,-20,17
583,-3784,-4,184,-4751,23,-44,-19,17
584,-3783,-2,188,-4753,23,-44,-19,17
585,-3786,-3,189,-4752,23,-44,-20,17
586,-3787,-4,193,-4751,23,-44,-20,17
587,-3789,-5,190,-4752,23,-44,-19,16
588,-3789,-5,190,-4752,23,-44,-19,17
589,-3786,-4,193,-4752,23,-44,-20,17
590,-3787,-5,193,-4751,23,-44,-20,17
591,-3790,-1,193,-4751,23,-44,-20,17
592,-3786,-2,190,-4752,23,-44,-20,17
593,-3787,0,189,-4751,23,-44,-20,17
594,-3790,0,188,-4752,23,-44,-20,17
595,-3789,0,186,-4751,23,-44,-20,17
596,-3789,-1,184,-4752,23,-44,-20,17
597,-3788,-1,186,-4751,23,-43,-20,17
598,-3790,0,187,-4752,23,-44,-20,17
599,-3788,1,189,-4753,23,-44,-20,17
600,-3788,1,188,-4752,23,-44,-19,17
601,-3789,0,189,-4752,23,-44,-19,17
602,-3789,-3,187,-4749,23,-43,-20,17
603,-3789,-4,184,-4749,23,-43,-19,17
604,-3789,-3,183,-4749,23,-43,-20,17
605,-3789,0,184,-4748,23,-43,-20,17
606,-3785,-2,188,-4749,23,-44,-20,17
607,-3786,-2,191,-4751,23,-44,-20,17
608,-3787,0,191,-4752,23,-44,-20,17
609,-3788,0,192,-4752,23,-44,-20,17
610,-3788,0,191,-4754,23,-44,-20,17
611,-3786,1,190,-4754,23,-44,-20,17
612,-3785,1,190,-4753,23,-44,-20,17
613,-3785,-2,189,-4754,23,-44,-20,17
614,-3785,-3,190,-4755,23,-44,-20,17
615,-3785,0,193,-4755,23,-44,-20,17
616,-3784,0,191,-4754,23,-44,-20,17
617,-3783,-2,189,-4754,23,-44,-20,17
618,-3785,-1,191,-4752,23,-44,-19,17
619,-3787,-2,190,-4753,23,-44,-19,17
620,-3786,-5,189,-4753,23,-44,-19,17
621,-3785,-5,190,-4752,23,-44,-19,17
622,-3787,-7,187,-4752,23,-44,-20,17
623,-3787,-6,189,-4751,23,-44,-19,17
624,-3787,-7,189,-4751,23,-44,-19,17
625,-3785,-6,185,-4750,23,-43,-20,17
626,-3786,-5,183,-4752,23,-43,-20,17
627,-3786,-3,181,-4754,23,-43,-20,17
628,-3786,-2,184,-4754,23,-44,-20,17
629,-3787,-2,185,-4753,23,-44,-19,17
630,-3787,-3,186,-4756,23,-44,-20,17
631,-3787,-4,183,-4755,23,-43,-20,17
632,-3787,-5,183,-4756,23,-43,-19,17
633,-3786,-5,182,-4757,23,-44,-20,17
634,-3787,-4,184,-4755,23,-44,-20,17
635,-3787,-4,183,-4754,23,-44,-20,17
636,-3789,-3,184,-4753,23,-44,-20,17
637,-3789,-4,186,-4753,23,-44,-20,17
638,-3790,-2,183,-4752,23,-44,-20,17
639,-3790,-5,185,-4753,23,-44,-20,17
640,-3789,-5,187,-4754,23,-44,-20,17
641,-3789,-3,187,-4754,23,-44,-20,17
642,-3791,-3,188,-4754,23,-43,-20,17
643,-3788,-3,187,-4755,23,-44,-20,17
644,-3787,-5,186,-4755,23,-43,-19,17
645,-3787,-6,191,-4755,23,-43,-19,17
646,-3789,-5,191,-4755,23,-43,-19,17
647,-3789,-4,194,-4756,23,-43,-19,17
648,-3791,-4,191,-4756,23,-43,-19,17
649,-3791,-5,183,-4755,23,-43,-19,17
650,-3790,-6,185,-4754,23,-44,-19,17
651,-3788,-6,181,-4753,23,-43,-20,17
652,-3789,-7,183,-4752,23,-43,-20,17
653,-3789,-7,183,-4752,23,-43,-20,17
654,-3790,-7,182,-4753,23,-44,-20,17
655,-3791,-8,185,-4751,23,-44,-20,16
656,-3790,-5,183,-4752,23,-44,-20,16
657,-3790,-3,180,-4751,23,-44,-20,17
658,-3787,-3,182,-4749,23,-44,-20,17
659,-3788,-1,185,-4749,23,-44,-20,16
660,-3788,-1,182,-4749,23,-44,-20,16
661,-3789,-1,184,-4749,23,-44,-20,16
662,-3791,-3,186,-4750,23,-44,-20,17
663,-3793,-5,188,-4750,23,-44,-20,17
664,-3794,-8,189,-4751,23,-44,-20,17
665,-3794,-8,187,-4750,23,-44,-20,17
666,-3791,-5,187,-4752,23,-44,-20,17
667,-3792,-5,187,-4752,23,-44,-20,17
668,-3792,-5,192,-4751,23,-44,-20,17
669,-3795,-5,186,-4751,23,-44,-20,17
670,-3792,-6,186,-4751,23,-44,-20,17
671,-3793,-6,187,-4751,23,-44,-20,17
672,-3791,-5,188,-4753,23,-44,-20,17
673,-3788,-4,188,-4752,23,-44,-20,17
674,-3789,-4,188,-4751,23,-44,-20,17
675,-3790,-5,191,-4750,23,-44,-20,17
676,-3788,-6,190,-4752,23,-44,-20,17
677,-3790,-3,190,-4752,23,-44,-19,17
678,-3791,-3,186,-4751,23,-44,-20,17
679,-3791,-3,184,-4751,23,-44,-20,17
680,-3789,-3,181,-4751,23,-44,-20,17
681,-3789,-2,183,-4752,23,-44,-19,17
682,-3789,-3,186,-4752,23,-44,-19,17
683,-3791,-3,190,-4752,23,-44,-20,17
684,-3791,-1,189,-4750,23,-44,-20,17
685,-3790,-2,187,-4750,23,-44,-20,17
686,-3792,-2,189,-4749,23,-44,-20,17
687,-3790,-1,185,-4748,23,-44,-20,17
688,-3788,-2,184,-4748,23,-44,-20,17
689,-3788,-2,186,-4748,23,-44,-20,17
690,-3788,-5,184,-4749,23,-44,-20,17
691,-3787,-4,182,-4750,23,-44,-20,17
692,-3786,-3,180,-4750,23,-43,-20,17
693,-3787,-3,180,-4751,23,-44,-19,17
694,-3786,-2,181,-4753,23,-44,-20,17
695,-3784,-1,181,-4753,23,-44,-20,17
696,-3786,-3,181,-4754,23,-44,-20,17
697,-3788,0,178,-4752,23,-44,-20,17
698,-3788,0,178,-4753,23,-44,-20,17
699,-3789,1,178,-4754,23,-43,-20,17
700,-3788,0,179,-4753,23,-43,-20,17
701,-3791,0,177,-4751,23,-43,-20,17
702,-3789,-3,178,-4751,23,-44,-20,17
703,-3788,-5,179,-4750,23,-43,-20,17
704,-3787,-6,177,-4751,23,-43,-20,17
705,-3786,-6,181,-4752,23,-43,-20,17
706,-3787,-5,180,-4750,23,-43,-20,17
707,-3786,-3,183,-4749,23,-43,-20,17
708,-3787,-1,185,-4750,23,-43,-20,17
709,-3787,-1,185,-4749,23,-43,-20,18
710,-3788,0,180,-4750,23,-44,-20,17
711,-3788,-4,176,-4751,23,-44,-20,17
712,-3789,-3,178,-4753,23,-44,-20,17
713,-3787,-2,180,-4752,23,-44,-20,16
714,-3787,0,179,-4751,23,-44,-20,17
715,-3787,-1,182,-4752,23,-44,-20,17
716,-3791,-2,185,-4752,23,-44,-20,17
717,-3791,-2,189,-4752,23,-44,-20,17
718,-3789,-4,188,-4752,23,-44,-20,17
719,-3787,-2,188,-4750,23,-44,-20,17
720,-3791,-2,184,-4751,23,-44,-20,17
721,-3790,-4,187,-4751,23,-44,-20,17
722,-3789,-4,187,-4749,23,-44,-20,17
723,-3787,-3,188,-4749,23,-44,-20,17
724,-3789,-2,190,-4748,23,-43,-20,17
725,-3787,-1,187,-4748,23,-43,-19,17
726,-3786,0,184,-4750,23,-43,-19,17
727,-3786,-1,185,-4751,23,-43,-20,17
728,-3786,-1,185,-4750,23,-43,-20,17
729,-3784,-1,184,-4750,23,-44,-19,17
730,-3783,-2,187,-4750,23,-44,-19,17
731,-3784,-3,185,-4749,23,-44,-20,17
732,-3788,-2,185,-4749,23,-44,-20,17
733,-3788,-4,187,-4749,23,-44,-20,17
734,-3788,-5,188,-4749,23,-44,-20,17
735,-3788,-4,188,-4749,23,-44,-20,17
736,-3786,-5,183,-4749,23,-44,-20,17
737,-3783,-5,180,-4749,23,-44,-20,17
738,-3787,0,183,-4749,23,-44,-20,17
739,-3789,-1,187,-4750,23,-44,-20,17
740,-3790,0,186,-4748,23,-44,-20,17
741,-3789,-1,184,-4747,23,-44,-20,17
742,-3789,0,189,-4750,23,-44,-20,17
743,-3790,0,188,-4750,23,-44,-20,17
744,-3788,-1,189,-4749,23,-44,-20,17
745,-3787,-2,192,-4748,23,-44,-20,17
746,-3788,-2,189,-4748,23,-44,-20,17
747,-3786,-3,190,-4748,23,-44,-19,17
748,-3786,-4,188,-4748,23,-44,-20,17
749,-3786,-2,187,-4747,23,-44,-19,17
750,-3786,-3,184,-4747,23,-43,-19,17
751,-3784,-5,185,-4747,23,-44,-20,17
752,-3785,-6,185,-4746,23,-43,-19,17
753,-3785,-6,186,-4747,23,-44,-19,16
754,-3786,-6,186,-4748,23,-44,-19,17
755,-3787,-4,184,-4747,23,-44,-20,17
756,-3786,-4,186,-4747,23,-44,-20,17
757,-3785,-5,188,-4746,23,-44,-19,16
758,-3786,-6,189,-4746,23,-44,-19,17
759,-3786,-2,186,-4746,23,-44,-20,17
760,-3788,-4,184,-4745,23,-44,-20,17
761,-3788,-5,186,-4748,23,-44,-19,17
762,-3788,-7,187,-4746,23,-44,-20,17
763,-3786,-6,189,-4747,23,-44,-20,17
764,-3787,-6,186,-4747,23,-44,-20,17
765,-3786,-5,186,-4746,23,-44,-20,16
766,-3784,-7,191,-4749,23,-44,-20,17
767,-3787,-5,190,-4748,23,-44,-20,17
768,-3789,-4,187,-4749,23,-44,-20,16
769,-3788,-3,187,-4748,23,-43,-20,17
770,-3791,-4,184,-4748,23,-44,-20,17
771,-3790,-2,184,-4748,23,-43,-20,17
772,-3789,-2,188,-4749,23,-43,-20,17
773,-3788,-1,186,-4748,23,-43,-19,17
774,-3790,-2,188,-4748,23,-44,-19,17
775,-3789,-3,185,-4747,23,-44,-20,17
776,-3789,-2,184,-4747,23,-44,-20,17
777,-3787,-3,185,-4749,23,-43,-20,17
778,-3789,0,187,-4749,23,-43,-20,17
779,-3790,-2,185,-4748,23,-44,-19,18
780,-3789,-1,185,-4748,23,-44,-19,17
781,-3790,-2,181,-4750,23,-44,-19,17
782,-3790,-2,182,-4750,23,-44,-19,17
783,-3790,-1,186,-4751,23,-44,-19,17
784,-3787,-1,186,-4751,23,-44,-19,17
785,-3787,-1,187,-4750,23,-44,-19,17
786,-3789,-2,183,-4749,23,-44,-19,17
787,-3788,-1,186,-4749,23,-44,-19,17
788,-3789,0,184,-4748,23,-44,-19,17
789,-3791,0,182,-4746,23,-44,-20,17
790,-3791,-2,181,-4747,23,-44,-19,17
791,-3789,-3,184,-4746,23,-44,-19,17
792,-3787,-3,184,-4747,23,-44,-19,16
793,-3787,-3,182,-4747,23,-44,-20,16
794,-3785,-3,184,-4747,23,-44,-20,16
795,-3787,-5,180,-4748,23,-44,-20,17
796,-3786,-6,178,-4749,23,-44,-20,17
797,-3787,-6,180,-4749,23,-44,-20,17
798,-3786,-7,183,-4750,23,-44,-20,17
799,-3787,-8,184,-4750,23,-44,-20,17
800,-3787,-5,187,-4752,23,-44,-20,17
801,-3786,-3,187,-4752,23,-44,-20,17
802,-3788,-6,191,-4750,23,-44,-20,17
803,-3789,-6,188,-4750,23,-44,-20,17
804,-3790,-6,188,-4751,23,-43,-20,17
805,-3791,-6,190,-4749,23,-44,-20,17
806,-3792,-4,190,-4749,23,-44,-20,17
807,-3791,-4,191,-4750,23,-44,-20,17
808,-3789,-5,195,-4748,23,-44,-20,17
809,-3789,-4,194,-4748,23,-44,-20,17
810,-3789,-5,193,-4747,23,-44,-20,17
811,-3786,-6,192,-4748,23,-44,-20,17
812,-3785,-7,189,-4749,23,-44,-20,17
813,-3786,-5,191,-4748,23,-44,-20,17
814,-3787,-4,188,-4749,23,-44,-20,17
815,-3786,-3,186,-4748,23,-44,-20,17
816,-3788,-2,189,-4750,23,-44,-20,17
817,-3787,-4,192,-4749,23,-44,-20,17
818,-3787,-3,193,-4750,23,-44,-20,17
819,-3788,-1,192,-4751,23,-44,-20,17
820,-3787,-2,189,-4751,23,-44,-20,17
821,-3787,-3,189,-4750,23,-44,-20,17
822,-3787,-4,188,-4751,23,-44,-20,17
823,-3787,-2,191,-4751,23,-44,-19,17
824,-3786,-3,190,-4750,23,-44,-19,17
825,-3788,-3,189,-4750,23,-44,-19,17
826,-3789,-2,191,-4751,23,-44,-19,17
827,-3789,0,191,-4751,23,-43,-19,17
828,-3788,0,191,-4750,23,-44,-19,17
829,-3787,-1,193,-4751,23,-44,-19,17
830,-3785,-3,190,-4752,23,-44,-20,17
831,-3786,-1,189,-4750,23,-44,-20,17
832,-3787,-2,184,-4750,23,-44,-20,17
833,-3790,-2,188,-4749,23,-44,-20,17
834,-3789,-2,186,-4747,23,-44,-20,17
835,-3792,-4,184,-4748,23,-44,-20,17
836,-3792,-5,184,-4750,23,-44,-20,17
837,-3789,-6,185,-4750,23,-44,-20,17
838,-3788,-6,183,-4751,23,-43,-20,17
839,-3789,-5,186,-4750,23,-43,-20,17
840,-3791,-5,185,-4749,23,-43,-20,17
841,-3791,-4,183,-4750,23,-44,-20,17
842,-3790,-6,184,-4751,23,-44,-20,17
843,-3791,-2,186,-4750,23,-43,-20,17
844,-3791,-2,182,-4750,23,-44,-20,17
845,-3790,-1,182,-4752,23,-44,-20,17
846,-3791,-2,176,-4752,23,-44,-20,17
847,-3788,-3,178,-4752,23,-44,-20,17
848,-3785,-3,180,-4750,23,-44,-20,17
849,-3787,-3,180,-4749,23,-44,-20,17
850,-3785,-2,179,-4748,23,-44,-20,17
851,-3784,-4,179,-4748,23,-44,-20,17
852,-3785,-1,181,-4749,23,-44,-20,17
853,-3786,-1,179,-4751,23,-44,-20,17
854,-3786,-2,179,-4750,23,-44,-20,16
855,-3785,-2,181,-4749,23,-44,-20,17
856,-3784,-1,185,-4751,23,-44,-20,17
857,-3785,0,183,-4751,23,-44,-20,16
858,-3785,0,184,-4752,23,-44,-20,17
859,-3786,0,186,-4750,23,-44,-20,17
860,-3786,-3,184,-4749,23,-44,-20,17
861,-3788,-4,185,-4746,23,-44,-20,16
862,-3789,-3,185,-4746,23,-43,-19,17
863,-3789,-3,184,-4747,23,-43,-20,17
864,-3791,-5,181,-4748,23,-43,-20,16
865,-3789,-3,182,-4749,23,-43,-20,16
866,-3788,-4,181,-4750,23,-43,-20,16
867,-3789,-4,182,-4750,23,-44,-20,17
868,-3789,-5,182,-4750,23,-44,-19,17
869,-3788,-5,185,-4749,23,-44,-19,17
870,-3788,-6,187,-4749,23,-44,-19,17
871,-3787,-5,186,-4749,23,-44,-19,17
872,-3789,-4,184,-4747,23,-44,-20,17
873,-3788,-2,182,-4748,23,-44,-20,17
874,-3786,-1,187,-4750,23,-44,-20,16
875,-3788,-3,186,-4750,23,-44,-20,17
876,-3786,-3,186,-4749,23,-44,-20,17
877,-3787,-3,187,-4749,23,-44,-19,17
878,-3788,-1,185,-4749,23,-44,-20,17
879,-3791,-3,186,-4749,23,-44,-20,17
880,-3789,-4,182,-4751,23,-44,-20,17
881,-3789,-4,184,-4751,23,-44,-20,17
882,-3787,-3,185,-4751,23,-44,-20,17
883,-3786,-2,184,-4752,23,-44,-20,17
884,-3790,-2,186,-4750,23,-44,-20,17
885,-3788,-5,185,-4750,23,-44,-20,17
886,-3788,-5,183,-4751,23,-44,-20,17
887,-3790,-5,186,-4751,23,-44,-20,17
888,-3788,-2,185,-4750,23,-44,-20,17
889,-3789,-1,185,-4750,23,-44,-20,17
890,-3789,0,183,-4750,23,-44,-20,17
891,-3789,0,183,-4749,23,-44,-20,16
892,-3790,0,179,-4750,23,-44,-20,17
893,-3790,-2,184,-4749,23,-44,-20,17
894,-3790,-3,186,-4747,23,-44,-20,17
895,-3793,-4,183,-4746,23,-44,-20,17
896,-3792,-5,184,-4747,23,-44,-20,17
897,-3791,-8,187,-4748,23,-44,-20,17
898,-3793,-6,191,-4750,23,-44,-20,17
899,-3790,-5,192,-4751,23,-44,-19,17
900,-3790,-6,188,-4750,23,-44,-20,17
901,-3791,-6,194,-4751,23,-44,-19,17
902,-3789,-4,191,-4750,23,-44,-19,17
903,-3789,-4,190,-4750,23,-44,-20,17
904,-3792,-4,193,-4751,23,-44,-20,17
905,-3792,-3,192,-4749,23,-44,-20,16
906,-3791,-4,192,-4749,23,-44,-19,17
907,-3790,-2,191,-4749,23,-44,-19,17
908,-3790,-2,192,-4748,23,-44,-19,17
909,-3790,-5,190,-4750,23,-44,-19,17
910,-3787,-7,189,-4751,23,-44,-19,17
911,-3787,-6,188,-4752,23,-44,-19,17
912,-3787,-6,188,-4753,23,-44,-20,17
913,-3786,-4,187,-4751,23,-43,-20,17
914,-3788,-4,187,-4752,23,-44,-20,17
915,-3786,1,190,-4753,23,-44,-20,17
916,-3783,-2,191,-4751,23,-44,-20,17
917,-3784,-3,192,-4749,23,-44,-20,16
918,-3786,-3,190,-4750,23,-44,-20,16
919,-3788,-3,189,-4750,23,-44,-20,17
920,-3788,-4,189,-4750,23,-44,-20,17
921,-3791,-4,190,-4750,23,-44,-20,17
922,-3789,-7,188,-4750,23,-44,-20,17
923,-3788,-6,188,-4751,23,-44,-20,17
924,-3787,-2,188,-4751,23,-44,-20,17
925,-3788,-2,187,-4753,23,-44,-20,17
926,-3788,-2,189,-4754,23,-44,-20,17
927,-3789,1,186,-4753,23,-44,-20,17
928,-3787,-2,185,-4751,23,-44,-20,17
929,-3786,-2,182,-4751,23,-44,-20,17
930,-3786,-4,186,-4749,23,-44,-20,17
931,-3785,-2,184,-4749,23,-44,-20,17
932,-3785,-2,185,-4748,23,-44,-20,17
933,-3789,-1,186,-4749,23,-44,-19,17
934,-3789,-3,185,-4749,23,-44,-20,17
935,-3789,-2,183,-4750,23,-44,-20,17
936,-3790,0,186,-4749,23,-44,-20,17
937,-3789,-1,184,-4748,23,-44,-20,17
938,-3789,-3,184,-4748,23,-44,-20,17
939,-3789,-3,182,-4748,23,-44,-20,17
940,-3789,-3,185,-4749,23,-45,-19,17
941,-3790,-3,184,-4750,23,-44,-19,17
942,-3789,-1,187,-4749,23,-44,-19,17
943,-3788,-3,186,-4749,23,-44,-19,17
944,-3786,-4,190,-4749,23,-44,-19,17
945,-3787,-4,186,-4747,23,-44,-19,17
946,-3788,-4,186,-4749,23,-44,-19,17
947,-3787,-6,185,-4749,23,-44,-20,17
948,-3788,-6,186,-4748,23,-44,-20,17
949,-3792,-6,184,-4748,23,-44,-20,17
950,-3794,-6,185,-4749,23,-44,-20,17
951,-3792,-7,184,-4750,23,-44,-20,17
952,-3791,-4,184,-4751,23,-44,-20,17
953,-3793,-5,184,-4752,23,-44,-20,17
954,-3791,-5,184,-4753,23,-44,-19,17
955,-3791,-3,187,-4753,23,-44,-20,17
956,-3789,-1,187,-4753,23,-44,-20,17
957,-3790,-1,186,-4753,23,-44,-20,17
958,-3790,-4,189,-4752,23,-43,-20,17
959,-3791,-4,186,-4752,23,-43,-20,17
960,-3790,-3,189,-4753,23,-43,-20,17
961,-3791,-3,185,-4752,23,-43,-20,17
962,-3791,-3,185,-4751,23,-43,-20,16
963,-3790,-3,185,-4751,23,-43,-20,17
964,-3790,-4,184,-4752,23,-44,-20,17
965,-3790,-4,183,-4751,23,-44,-20,17
966,-3791,-3,183,-4750,23,-44,-20,17
967,-3792,-4,187,-4750,23,-44,-20,17
968,-3793,-2,189,-4750,23,-44,-20,17
969,-3790,-4,189,-4751,23,-44,-20,17
970,-3789,-3,189,-4752,23,-44,-20,17
971,-3790,-2,188,-4752,23,-44,-19,17
972,-3788,-2,187,-4752,23,-44,-20,17
973,-3788,-4,185,-4751,23,-44,-20,17
974,-3788,-3,185,-4750,23,-44,-20,17
975,-3789,-4,187,-4751,23,-44,-20,17
976,-3788,-3,186,-4750,23,-44,-20,17
977,-3790,-4,184,-4749,23,-44,-19,17
978,-3787,-5,183,-4749,23,-44,-19,17
979,-3787,-4,184,-4749,23,-44,-20,17
980,-3786,-4,182,-4750,23,-44,-20,17
981,-3787,-3,183,-4750,23,-44,-19,17
982,-3787,-6,182,-4749,23,-44,-19,17
983,-3786,-5,182,-4748,23,-44,-19,17
984,-3788,-3,185,-4748,23,-43,-19,17
985,-3787,-2,187,-4749,23,-43,-19,17
986,-3787,-3,184,-4747,23,-43,-20,17
987,-3787,0,180,-4748,23,-43,-20,17
988,-3786,0,177,-4748,23,-43,-19,17
989,-3786,-2,178,-4749,23,-44,-20,17
990,-3788,-2,179,-4749,23,-44,-20,17
991,-3788,-1,184,-4749,23,-44,-20,17
992,-3787,0,186,-4749,23,-44,-20,17
993,-3788,-1,188,-4749,23,-44,-20,17
994,-3790,-2,190,-4750,23,-44,-20,17
995,-3790,-5,188,-4751,23,-44,-20,17
996,-3789,-4,191,-4753,23,-44,-20,17
997,-3788,-2,191,-4752,23,-44,-20,17
998,-3787,-2,190,-4752,23,-44,-20,17
