,acc_X,acc_Y,acc_Z,temp,tempC,gyr_X,gyr_Y,gyr_Z
0,-1889,-1,97,-4720,23,-88,-38,36
1,-1891,-6,107,-4722,23,-90,-37,33
2,-1898,-4,92,-4717,23,-85,-41,35
3,-1896,-4,84,-4725,23,-83,-37,37
4,-1894,-15,100,-4729,23,-86,-38,38
5,-1899,-1,96,-4717,23,-92,-37,34
6,-1896,-1,82,-4725,23,-84,-38,37
7,-1896,2,95,-4722,23,-84,-42,35
8,-1892,-6,94,-4735,23,-86,-40,35
9,-1902,0,92,-4720,23,-86,-39,32
10,-1884,0,83,-4720,23,-88,-39,35
11,-1901,-6,93,-4723,23,-85,-39,36
12,-1898,-4,94,-4730,23,-87,-37,35
13,-1904,5,87,-4726,23,-87,-36,34
14,-1895,1,101,-4717,23,-87,-36,34
15,-1897,-2,100,-4729,23,-86,-41,33
16,-1898,-4,105,-4725,23,-89,-41,32
17,-1893,-6,97,-4723,23,-86,-39,33
18,-1902,2,89,-4721,23,-89,-42,34
19,-1897,-3,94,-4726,23,-86,-37,34
20,-1898,-14,98,-4728,23,-88,-38,36
21,-1894,1,98,-4727,23,-86,-37,33
22,-1893,0,97,-4718,23,-88,-41,36
23,-1894,-3,94,-4718,23,-84,-37,38
24,-1892,5,89,-4716,23,-83,-38,37
25,-1890,-1,88,-4726,23,-87,-39,36
26,-1898,0,101,-4721,23,-88,-38,37
27,-1899,1,99,-4726,23,-86,-43,33
28,-1895,-5,86,-4723,23,-89,-40,36
29,-1885,-3,86,-4721,23,-87,-37,38
30,-1900,-5,84,-4709,23,-86,-40,36
31,-1886,-1,85,-4726,23,-86,-38,33
32,-1886,2,97,-4719,23,-85,-38,34
33,-1898,-6,91,-4733,23,-85,-37,39
34,-1898,-9,93,-4720,23,-87,-37,35
35,-1895,-3,91,-4724,23,-85,-39,33
36,-1893,4,93,-4729,23,-87,-38,33
37,-1899,1,94,-4717,23,-88,-42,38
38,-1892,-1,93,-4725,23,-86,-39,37
39,-1896,-2,93,-4718,23,-88,-39,34
40,-1895,-1,90,-4720,23,-86,-38,35
41,-1894,7,91,-4714,23,-86,-40,36
42,-1896,-4,84,-4719,23,-87,-39,34
43,-1896,3,104,-4715,23,-87,-38,32
44,-1893,-7,91,-4727,23,-89,-39,34
45,-1890,-5,93,-4705,23,-82,-41,33
46,-1900,1,80,-4716,23,-86,-39,36
47,-1895,-4,101,-4717,23,-87,-38,38
48,-1894,-6,92,-4726,23,-94,-37,34
49,-1895,0,95,-4723,23,-87,-40,35
50,-1892,-7,105,-4718,23,-90,-40,36
51,-1894,-9,94,-4720,23,-87,-38,33
52,-1897,-4,100,-4716,23,-89,-42,38
53,-1890,1,92,-4716,23,-90,-41,31
54,-1893,-6,102,-4730,23,-89,-42,35
55,-1897,-10,96,-4732,23,-84,-41,33
56,-1899,-2,101,-4718,23,-87,-40,33
57,-1892,-6,86,-4719,23,-88,-39,36
58,-1888,-2,105,-4726,23,-87,-38,35
59,-1888,-9,94,-4727,23,-86,-40,32
60,-1895,-11,95,-4723,23,-85,-42,33
61,-1893,-2,92,-4721,23,-88,-37,33
62,-1896,-4,88,-4733,23,-83,-36,36
63,-1894,1,100,-4726,23,-88,-41,35
64,-1893,2,98,-4717,23,-87,-37,37
65,-1891,-3,96,-4727,23,-84,-38,34
66,-1899,1,99,-4730,23,-85,-38,33
67,-1900,0,102,-4726,23,-87,-40,35
68,-1890,-3,89,-4727,23,-86,-41,33
69,-1889,-3,81,-4717,23,-89,-39,32
70,-1896,-4,93,-4728,23,-88,-38,35
71,-1902,2,91,-4718,23,-87,-40,34
72,-1900,-3,99,-4722,23,-83,-36,35
73,-1891,-2,89,-4724,23,-85,-39,34
74,-1904,-3,92,-4720,23,-89,-43,33
75,-1904,2,102,-4721,23,-89,-43,34
76,-1902,2,104,-4722,23,-88,-39,33
77,-1898,-3,100,-4722,23,-86,-42,36
78,-1894,-6,99,-4725,23,-89,-40,36
79,-1892,1,91,-4715,23,-88,-36,36
80,-1895,0,100,-4723,23,-85,-37,36
81,-1897,-3,84,-4722,23,-88,-40,35
82,-1898,3,92,-4713,23,-86,-44,34
83,-1893,-6,89,-4721,23,-88,-38,35
84,-1890,-4,104,-4728,23,-88,-40,37
85,-1902,3,85,-4722,23,-83,-37,38
86,-1894,-6,88,-4731,23,-84,-37,35
87,-1891,4,94,-4734,23,-87,-37,34
88,-1900,-2,92,-4715,23,-88,-38,35
89,-1894,-4,91,-4721,23,-88,-41,35
90,-1891,2,98,-4725,23,-85,-41,38
91,-1895,3,96,-4729,23,-90,-32,33
92,-1900,3,94,-4719,23,-85,-38,34
93,-1890,-4,91,-4725,23,-88,-41,38
94,-1895,-4,94,-4716,23,-86,-36,39
95,-1893,-4,104,-4714,23,-86,-40,34
96,-1899,3,88,-4723,23,-87,-36,37
97,-1896,-3,92,-4723,23,-90,-38,35
98,-1892,-3,93,-4725,23,-90,-35,34
99,-1896,5,101,-4721,23,-85,-40,35
100,-1901,-3,95,-4715,23,-85,-39,35
101,-1896,-9,109,-4723,23,-88,-41,33
102,-1898,-5,89,-4719,23,-84,-40,35
103,-1898,3,87,-4721,23,-86,-39,35
104,-1897,-2,86,-4720,23,-86,-34,33
105,-1899,-4,96,-4721,23,-88,-37,33
106,-1894,1,90,-4719,23,-89,-37,35
107,-1894,-1,99,-4726,23,-83,-37,33
108,-1898,3,97,-4723,23,-90,-36,37
109,-1889,-9,85,-4716,23,-85,-39,34
110,-1890,-5,86,-4725,23,-89,-41,34
111,-1893,-2,86,-4726,23,-86,-41,35
112,-1895,-2,95,-4723,23,-86,-37,34
113,-1894,2,101,-4730,23,-88,-40,35
114,-1898,0,96,-4733,23,-86,-40,36
115,-1895,1,92,-4723,23,-91,-42,35
116,-1892,2,107,-4717,23,-87,-44,36
117,-1891,2,83,-4733,23,-88,-37,31
118,-1896,-4,85,-4737,23,-88,-38,35
119,-1896,4,86,-4725,23,-85,-43,33
120,-1893,-3,89,-4727,23,-88,-40,33
121,-1893,-7,94,-4734,23,-89,-36,34
122,-1898,2,88,-4719,23,-85,-40,34
123,-1892,-2,90,-4729,23,-84,-42,31
124,-1893,-6,91,-4731,23,-87,-38,35
125,-1894,-1,93,-4729,23,-83,-37,35
126,-1900,4,99,-4719,23,-86,-41,31
127,-1887,1,101,-4709,23,-87,-39,35
128,-1890,-3,93,-4716,23,-86,-38,33
129,-1894,-3,94,-4720,23,-86,-37,33
130,-1897,3,95,-4726,23,-86,-38,30
131,-1893,1,90,-4722,23,-87,-36,34
132,-1893,-2,93,-4730,23,-87,-36,32
133,-1894,-5,93,-4720,23,-84,-39,37
134,-1893,-7,84,-4729,23,-86,-40,34
135,-1893,-1,103,-4721,23,-87,-36,35
136,-1897,-6,90,-4724,23,-87,-38,35
137,-1894,3,93,-4714,23,-89,-42,35
138,-1899,-2,93,-4726,23,-86,-40,33
139,-1894,-4,97,-4728,23,-87,-42,31
140,-1900,-6,79,-4728,23,-84,-41,37
141,-1898,9,107,-4732,23,-86,-40,35
142,-1894,-6,101,-4722,23,-87,-38,36
143,-1901,-2,93,-4717,23,-86,-39,35
144,-1889,-4,97,-4718,23,-86,-39,34
145,-1890,4,94,-4713,23,-86,-42,37
146,-1894,2,90,-4716,23,-89,-41,35
147,-1889,-11,94,-4728,23,-89,-36,32
148,-1895,6,89,-4723,23,-89,-39,34
149,-1899,-8,104,-4719,23,-86,-37,36
150,-1895,-4,98,-4727,23,-88,-41,37
151,-1892,6,100,-4726,23,-85,-36,36
152,-1885,-2,86,-4716,23,-89,-41,32
153,-1898,-2,98,-4737,23,-84,-39,36
154,-1891,-3,97,-4715,23,-90,-41,30
155,-1891,5,99,-4730,23,-90,-38,34
156,-1900,2,97,-4726,23,-89,-39,34
157,-1896,4,92,-4724,23,-87,-37,34
158,-1884,-1,97,-4726,23,-85,-38,34
159,-1896,-1,95,-4719,23,-86,-38,32
160,-1895,-3,91,-4730,23,-90,-37,37
161,-1897,-3,88,-4718,23,-83,-37,32
162,-1890,3,94,-4713,23,-87,-38,37
163,-1895,2,95,-4728,23,-88,-36,37
164,-1901,3,91,-4729,23,-88,-39,37
165,-1887,0,92,-4716,23,-90,-38,32
166,-1892,1,96,-4725,23,-86,-40,35
167,-1894,3,97,-4725,23,-87,-40,36
168,-1887,1,91,-4721,23,-86,-37,36
169,-1897,0,99,-4722,23,-89,-36,36
170,-1896,-2,88,-4719,23,-88,-40,34
171,-1893,-5,94,-4708,23,-84,-36,36
172,-1896,-3,92,-4713,23,-88,-36,38
173,-1891,-1,84,-4727,23,-89,-36,35
174,-1890,-11,94,-4734,23,-86,-41,35
175,-1893,-3,103,-4727,23,-87,-40,34
176,-1897,-7,100,-4719,23,-89,-35,35
177,-1897,-1,96,-4726,23,-86,-39,36
178,-1888,0,93,-4716,23,-90,-38,31
179,-1894,-7,95,-4717,23,-87,-39,34
180,-1889,-2,90,-4717,23,-88,-36,36
181,-1899,-2,87,-4726,23,-88,-41,34
182,-1890,-7,99,-4727,23,-89,-36,31
183,-1893,4,98,-4722,23,-87,-40,35
184,-1893,2,103,-4726,23,-90,-38,34
185,-1884,-7,94,-4724,23,-90,-39,34
186,-1895,4,96,-4724,23,-88,-41,35
187,-1898,-3,91,-4719,23,-87,-40,38
188,-1895,1,81,-4725,23,-86,-37,34
189,-1895,-3,95,-4708,23,-88,-38,33
190,-1899,-9,88,-4731,23,-90,-38,35
191,-1898,-7,92,-4719,23,-86,-44,35
192,-1893,-7,87,-4714,23,-87,-40,36
193,-1893,2,88,-4725,23,-88,-40,32
194,-1903,-9,93,-4733,23,-87,-40,34
195,-1889,0,78,-4727,23,-88,-34,31
196,-1888,-9,94,-4720,23,-88,-38,34
197,-1894,3,105,-4717,23,-86,-39,34
198,-1899,-7,95,-4714,23,-88,-39,33
199,-1892,0,95,-4723,23,-89,-39,33
200,-1889,-11,96,-4728,23,-87,-40,35
201,-1897,-1,100,-4712,23,-87,-36,36
202,-1896,-5,87,-4722,23,-85,-39,33
203,-1893,2,96,-4711,23,-86,-38,32
204,-1892,-3,84,-4716,23,-87,-41,36
205,-1893,-5,104,-4722,23,-89,-39,32
206,-1892,-2,89,-4716,23,-85,-40,35
207,-1895,-6,91,-4721,23,-87,-39,38
208,-1900,-12,101,-4723,23,-86,-37,35
209,-1892,-3,97,-4718,23,-88,-40,34
210,-1890,-2,92,-4721,23,-90,-37,37
211,-1892,2,84,-4720,23,-85,-40,36
212,-1889,0,88,-4707,23,-84,-41,36
213,-1893,-3,94,-4722,23,-89,-32,32
214,-1890,-7,102,-4718,23,-86,-38,33
215,-1892,-1,97,-4743,23,-87,-41,34
216,-1891,-3,94,-4732,23,-92,-39,37
217,-1905,1,93,-4734,23,-88,-38,38
218,-1893,-6,97,-4722,23,-86,-40,33
219,-1890,-1,90,-4719,23,-86,-44,37
220,-1895,-6,100,-4721,23,-90,-41,37
221,-1893,-11,94,-4719,23,-88,-40,35
222,-1896,-2,89,-4710,23,-87,-42,36
223,-1891,-1,109,-4717,23,-92,-40,36
224,-1892,-1,80,-4710,23,-86,-36,35
225,-1888,3,90,-4722,23,-86,-42,34
226,-1892,-2,98,-4713,23,-89,-40,34
227,-1891,0,79,-4715,23,-89,-35,33
228,-1897,2,89,-4716,23,-89,-39,37
229,-1897,2,98,-4712,23,-91,-40,35
230,-1898,-6,85,-4718,23,-90,-39,34
231,-1896,1,95,-4718,23,-88,-38,36
232,-1892,-3,87,-4720,23,-86,-40,37
233,-1895,-5,94,-4722,23,-86,-36,34
234,-1893,-5,95,-4726,23,-88,-41,33
235,-1901,1,93,-4720,23,-89,-40,37
236,-1888,-8,89,-4722,23,-90,-39,36
237,-1898,2,83,-4727,23,-88,-40,35
238,-1898,-3,103,-4725,23,-87,-40,33
239,-1893,-2,90,-4727,23,-88,-36,32
240,-1897,-3,83,-4720,23,-86,-41,35
241,-1894,0,100,-4723,23,-89,-36,34
242,-1898,8,97,-4730,23,-87,-39,34
243,-1897,-9,99,-4721,23,-88,-40,34
244,-1891,1,81,-4734,23,-87,-38,36
245,-1891,-6,90,-4721,23,-87,-41,32
246,-1895,-5,90,-4708,23,-87,-39,31
247,-1898,-4,96,-4712,23,-87,-39,29
248,-1894,-4,94,-4713,23,-84,-33,34
249,-1903,1,90,-4718,23,-87,-39,37
250,-1898,-4,97,-4713,23,-91,-40,35
251,-1896,-1,100,-4718,23,-86,-36,36
252,-1896,-11,94,-4727,23,-85,-42,34
253,-1890,5,92,-4708,23,-85,-41,36
254,-1893,-8,84,-4724,23,-81,-42,34
255,-1895,4,96,-4718,23,-86,-38,36
256,-1901,-6,89,-4729,23,-85,-36,35
257,-1896,-8,93,-4715,23,-90,-39,35
258,-1886,-2,92,-4725,23,-89,-36,36
259,-1893,-5,100,-4724,23,-87,-38,31
260,-1900,4,88,-4716,23,-89,-37,36
261,-1899,-1,95,-4725,23,-89,-39,31
262,-1892,-1,96,-4701,23,-83,-37,32
263,-1888,-11,79,-4711,23,-83,-41,36
264,-1896,-1,94,-4718,23,-87,-40,29
265,-1895,-6,89,-4718,23,-87,-43,34
266,-1894,1,98,-4722,23,-89,-39,35
267,-1891,-2,85,-4721,23,-86,-39,36
268,-1895,-2,90,-4710,23,-91,-44,36
269,-1895,-3,104,-4721,23,-86,-39,36
270,-1894,-1,86,-4709,23,-86,-36,34
271,-1892,-5,85,-4714,23,-86,-37,36
272,-1896,5,92,-4721,23,-86,-41,34
273,-1889,2,104,-4719,23,-85,-41,32
274,-1897,-6,88,-4722,23,-87,-38,35
275,-1902,-7,83,-4717,23,-85,-38,35
276,-1890,-7,87,-4724,23,-89,-36,36
277,-1898,7,95,-4716,23,-87,-39,36
278,-1899,0,87,-4722,23,-87,-40,37
279,-1895,2,84,-4716,23,-87,-38,34
280,-1897,6,80,-4724,23,-85,-43,35
281,-1892,-2,99,-4717,23,-89,-42,35
282,-1898,-2,90,-4718,23,-86,-39,38
283,-1898,-3,103,-4730,23,-90,-39,34
284,-1899,-7,87,-4722,23,-87,-41,33
285,-1901,4,95,-4717,23,-88,-41,34
286,-1894,2,97,-4722,23,-88,-36,34
287,-1890,-2,94,-4717,23,-86,-36,38
288,-1893,-3,92,-4726,23,-87,-35,33
289,-1894,3,92,-4719,23,-87,-39,35
290,-1896,-13,85,-4719,23,-86,-38,34
291,-1898,-2,93,-4718,23,-86,-41,32
292,-1897,-7,94,-4716,23,-84,-38,34
293,-1896,0,96,-4718,23,-89,-41,34
294,-1892,1,87,-4712,23,-86,-38,34
295,-1898,-2,89,-4724,23,-85,-38,34
296,-1891,-4,97,-4723,23,-87,-40,36
297,-1905,-1,102,-4724,23,-87,-39,35
298,-1896,3,89,-4724,23,-85,-40,36
299,-1894,2,88,-4715,23,-85,-41,35
300,-1900,-4,97,-4723,23,-87,-40,36
301,-1886,-7,92,-4716,23,-89,-35,33
302,-1893,-5,82,-4721,23,-86,-41,36
303,-1896,1,104,-4716,23,-88,-38,36
304,-1889,-6,98,-4713,23,-87,-38,34
305,-1897,-3,102,-4720,23,-88,-39,36
306,-1890,2,99,-4732,23,-89,-40,31
307,-1901,-7,99,-4726,23,-87,-37,34
308,-1891,0,97,-4714,23,-85,-36,34
309,-1890,-7,84,-4723,23,-91,-44,33
310,-1896,-4,78,-4718,23,-84,-36,33
311,-1894,-3,85,-4727,23,-88,-38,40
312,-1893,-2,102,-4715,23,-88,-39,34
313,-1896,4,98,-4718,23,-86,-41,34
314,-1892,-5,97,-4711,23,-85,-35,35
315,-1894,3,80,-4722,23,-86,-41,34
316,-1897,-8,84,-4722,23,-86,-36,33
317,-1896,-4,102,-4712,23,-87,-39,35
318,-1901,0,89,-4719,23,-87,-37,39
319,-1895,2,81,-4714,23,-86,-40,36
320,-1895,5,97,-4717,23,-86,-40,36
321,-1901,-1,88,-4726,23,-86,-36,33
322,-1896,-1,89,-4714,23,-89,-37,36
323,-1895,-1,92,-4709,23,-85,-38,34
324,-1893,0,105,-4722,23,-88,-39,33
325,-1902,-1,85,-4711,23,-85,-34,37
326,-1901,-1,93,-4721,23,-88,-39,35
327,-1888,-2,87,-4713,23,-89,-39,35
328,-1894,-5,86,-4720,23,-89,-38,36
329,-1890,4,83,-4714,23,-87,-37,34
330,-1896,-1,97,-4716,23,-86,-36,35
331,-1901,-4,89,-4721,23,-86,-38,36
332,-1893,-14,95,-4722,23,-90,-39,34
333,-1887,-2,83,-4720,23,-87,-38,36
334,-1889,-2,90,-4709,23,-88,-36,35
335,-1897,-1,95,-4725,23,-84,-40,36
336,-1899,-3,90,-4722,23,-88,-36,33
337,-1895,0,95,-4718,23,-86,-39,32
338,-1892,2,96,-4714,23,-88,-39,35
339,-1892,5,87,-4724,23,-89,-41,34
340,-1894,11,93,-4724,23,-90,-35,37
341,-1896,-2,91,-4713,23,-88,-40,36
342,-1893,1,82,-4712,23,-89,-41,33
343,-1891,-3,89,-4709,23,-87,-40,33
344,-1887,2,107,-4713,23,-91,-38,33
345,-1893,-8,90,-4721,23,-84,-39,36
346,-1895,-7,90,-4728,23,-85,-38,36
347,-1894,-4,105,-4731,23,-90,-40,36
348,-1891,-1,93,-4724,23,-85,-41,38
349,-1893,-2,98,-4711,23,-86,-39,34
350,-1897,-1,98,-4721,23,-85,-37,34
351,-1892,-9,93,-4722,23,-88,-39,36
352,-1891,-3,90,-4718,23,-85,-38,36
353,-1891,-2,79,-4716,23,-83,-38,35
354,-1890,-1,96,-4720,23,-86,-40,37
355,-1897,8,94,-4719,23,-85,-40,37
356,-1898,0,86,-4721,23,-88,-35,36
357,-1893,-2,93,-4721,23,-87,-39,36
358,-1899,-5,100,-4718,23,-89,-40,38
359,-1901,6,91,-4727,23,-86,-38,34
360,-1899,-8,84,-4708,23,-88,-39,33
361,-1897,-9,82,-4715,23,-88,-36,34
362,-1891,9,89,-4714,23,-90,-37,36
363,-1895,-1,92,-4712,23,-86,-44,33
364,-1892,0,95,-4716,23,-90,-39,36
365,-1891,-1,97,-4705,23,-90,-38,36
366,-1900,-1,88,-4725,23,-88,-38,35
367,-1888,3,79,-4718,23,-89,-39,35
368,-1893,5,99,-4722,23,-85,-40,34
369,-1895,4,92,-4729,23,-89,-41,35
370,-1896,-1,95,-4717,23,-88,-38,35
371,-1897,-8,94,-4712,23,-86,-40,36
372,-1891,-6,88,-4731,23,-85,-39,33
373,-1899,1,89,-4712,23,-87,-40,35
374,-1897,-7,91,-4720,23,-88,-38,35
375,-1895,3,92,-4725,23,-87,-38,35
376,-1886,4,87,-4723,23,-85,-38,36
377,-1888,0,106,-4722,23,-87,-38,36
378,-1896,-6,98,-4716,23,-83,-40,33
379,-1898,3,100,-4721,23,-85,-38,37
380,-1896,0,94,-4721,23,-87,-39,35
381,-1895,0,95,-4720,23,-84,-38,34
382,-1899,4,91,-4728,23,-87,-41,34
383,-1898,6,91,-4722,23,-90,-37,35
384,-1897,-3,85,-4721,23,-86,-41,36
385,-1897,1,91,-4724,23,-86,-39,32
386,-1891,3,98,-4720,23,-85,-38,34
387,-1891,4,84,-4715,23,-88,-37,34
388,-1898,-3,86,-4725,23,-87,-37,33
389,-1902,3,96,-4717,23,-89,-37,33
390,-1893,-7,92,-4725,23,-86,-40,36
391,-1893,0,96,-4722,23,-92,-39,36
392,-1895,-1,91,-4718,23,-87,-35,32
393,-1898,2,85,-4720,23,-88,-39,35
394,-1893,4,92,-4718,23,-85,-42,32
395,-1899,-3,87,-4723,23,-84,-35,32
396,-1888,-3,87,-4721,23,-89,-36,35
397,-1894,1,94,-4711,23,-88,-36,38
398,-1893,1,95,-4718,23,-87,-35,33
399,-1896,-7,86,-4731,23,-85,-40,30
400,-1894,-6,94,-4718,23,-87,-41,37
401,-1903,-7,90,-4713,23,-86,-39,35
402,-1888,-2,95,-4718,23,-88,-37,36
403,-1895,-1,98,-4719,23,-86,-37,36
404,-1887,-2,89,-4712,23,-87,-37,35
405,-1893,2,100,-4726,23,-86,-38,35
406,-1894,2,94,-4724,23,-89,-40,36
407,-1897,0,102,-4716,23,-85,-39,35
408,-1903,-11,103,-4713,23,-88,-41,35
409,-1897,-2,87,-4716,23,-87,-36,36
410,-1900,-5,94,-4722,23,-88,-36,38
411,-1891,-1,92,-4718,23,-89,-38,34
412,-1902,-2,99,-4721,23,-87,-44,33
413,-1890,-3,95,-4718,23,-86,-39,36
414,-1894,-1,94,-4726,23,-87,-37,35
415,-1897,-9,89,-4717,23,-89,-37,37
416,-1901,-5,92,-4724,23,-87,-39,35
417,-1890,2,92,-4727,23,-88,-37,36
418,-1895,-3,90,-4723,23,-87,-38,34
419,-1894,-1,98,-4710,23,-86,-42,37
420,-1895,5,91,-4724,23,-87,-39,36
421,-1892,-1,96,-4722,23,-87,-40,36
422,-1895,4,90,-4717,23,-87,-40,36
423,-1898,0,105,-4720,23,-90,-41,34
424,-1896,-2,88,-4721,23,-88,-39,35
425,-1892,-1,93,-4722,23,-86,-40,32
426,-1891,-1,92,-4726,23,-86,-40,34
427,-1897,-4,91,-4722,23,-86,-42,38
428,-1897,2,87,-4728,23,-82,-38,35
429,-1897,-10,99,-4720,23,-89,-40,36
430,-1891,-4,102,-4715,23,-88,-40,35
431,-1900,0,96,-4719,23,-85,-37,38
432,-1885,-1,88,-4718,23,-84,-36,35
433,-1900,2,97,-4717,23,-86,-41,32
434,-1894,-5,90,-4712,23,-89,-42,35
435,-1896,3,96,-4717,23,-87,-40,34
436,-1894,-6,86,-4714,23,-86,-38,35
437,-1898,-1,90,-4719,23,-87,-36,34
438,-1892,3,97,-4715,23,-90,-40,36
439,-1894,-8,96,-4714,23,-86,-40,35
440,-1891,-8,86,-4705,23,-89,-37,34
441,-1898,-1,88,-4711,23,-86,-35,33
442,-1898,-7,96,-4713,23,-86,-37,36
443,-1887,1,84,-4719,23,-90,-41,36
444,-1895,-1,92,-4713,23,-88,-39,35
445,-1892,-5,89,-4728,23,-90,-37,34
446,-1898,-6,105,-4711,23,-87,-38,38
447,-1896,-6,92,-4717,23,-88,-41,33
448,-1895,1,91,-4729,23,-88,-36,36
449,-1899,0,87,-4712,23,-86,-38,34
450,-1901,-4,105,-4721,23,-87,-40,35
451,-1895,-6,93,-4710,23,-90,-38,39
452,-1901,-8,79,-4715,23,-89,-40,35
453,-1891,3,99,-4709,23,-87,-41,34
454,-1898,1,104,-4713,23,-85,-37,35
455,-1893,4,89,-4723,23,-88,-42,34
456,-1901,2,91,-4722,23,-86,-38,33
457,-1895,2,99,-4706,23,-87,-37,32
458,-1897,3,93,-4710,23,-90,-40,35
459,-1891,4,87,-4709,23,-86,-40,36
460,-1895,6,98,-4718,23,-83,-36,36
461,-1898,3,88,-4720,23,-88,-39,33
462,-1894,-6,101,-4723,23,-88,-35,36
463,-1890,0,97,-4714,23,-90,-33,36
464,-1893,6,92,-4723,23,-87,-36,35
465,-1893,-2,90,-4723,23,-87,-38,37
466,-1897,-1,99,-4723,23,-86,-38,34
467,-1893,2,93,-4719,23,-84,-41,33
468,-1890,0,96,-4718,23,-84,-42,35
469,-1895,3,89,-4726,23,-86,-39,34
470,-1895,1,92,-4722,23,-85,-40,33
471,-1894,-4,91,-4715,23,-88,-37,37
472,-1893,1,90,-4717,23,-85,-38,34
473,-1902,0,100,-4724,23,-89,-39,34
474,-1892,-7,108,-4713,23,-87,-38,33
475,-1899,-1,96,-4727,23,-86,-40,34
476,-1886,0,106,-4715,23,-86,-39,35
477,-1896,-2,102,-4717,23,-87,-36,35
478,-1899,-11,88,-4714,23,-84,-39,33
479,-1897,-8,85,-4714,23,-84,-39,38
480,-1893,2,97,-4712,23,-88,-42,35
481,-1896,1,93,-4711,23,-85,-41,35
482,-1898,-3,101,-4706,23,-88,-39,35
483,-1896,2,98,-4714,23,-89,-39,34
484,-1893,0,87,-4713,23,-88,-40,39
485,-1902,1,94,-4717,23,-86,-38,33
486,-1893,5,104,-4708,23,-86,-41,33
487,-1894,15,83,-4724,23,-87,-39,31
488,-1888,-3,87,-4706,23,-89,-35,38
489,-1892,1,93,-4720,23,-83,-37,36
490,-1890,6,95,-4718,23,-87,-39,34
491,-1894,-1,92,-4714,23,-85,-38,32
492,-1894,-1,90,-4717,23,-90,-42,33
493,-1892,-4,89,-4716,23,-89,-40,36
494,-1895,2,86,-4724,23,-85,-38,36
495,-1896,6,88,-4718,23,-90,-38,33
496,-1895,-2,94,-4717,23,-89,-37,32
497,-1895,-1,91,-4718,23,-84,-39,31
498,-1897,-6,97,-4724,23,-87,-39,34
499,-1892,-2,95,-4719,23,-90,-41,36
500,-1898,-9,98,-4713,23,-84,-37,35
501,-1892,2,85,-4717,23,-86,-40,35
502,-1901,-2,102,-4718,23,-89,-40,34
503,-1893,1,85,-4726,23,-85,-39,35
504,-1895,7,90,-4718,23,-85,-39,34
505,-1889,-4,92,-4716,23,-90,-40,34
506,-1890,0,102,-4725,23,-86,-37,33
507,-1900,-5,101,-4711,23,-90,-37,33
508,-1898,3,84,-4715,23,-88,-37,36
509,-1892,-6,89,-4720,23,-91,-36,33
510,-1893,-1,94,-4719,23,-87,-40,32
511,-1894,0,95,-4716,23,-87,-41,34
512,-1900,3,101,-4717,23,-87,-41,37
513,-1896,1,85,-4720,23,-87,-35,33
514,-1899,-4,93,-4723,23,-83,-40,37
515,-1887,0,89,-4725,23,-84,-38,34
516,-1894,-6,105,-4714,23,-89,-37,35
517,-1895,-7,81,-4708,23,-88,-35,35
518,-1891,0,105,-4721,23,-90,-43,35
519,-1889,-2,102,-4715,23,-87,-42,35
520,-1895,-11,93,-4719,23,-88,-40,37
521,-1894,0,106,-4714,23,-87,-37,35
522,-1889,1,105,-4707,23,-87,-36,34
523,-1900,9,89,-4719,23,-86,-35,35
524,-1896,-9,89,-4708,23,-88,-38,34
525,-1895,-4,82,-4717,23,-85,-38,37
526,-1886,-5,91,-4716,23,-89,-41,36
527,-1896,-2,90,-4705,23,-87,-37,37
528,-1894,-3,86,-4718,23,-89,-39,37
529,-1896,-5,91,-4721,23,-88,-35,38
530,-1903,1,84,-4721,23,-86,-37,33
531,-1898,2,92,-4712,23,-88,-42,35
532,-1904,-10,95,-4727,23,-86,-41,35
533,-1892,5,93,-4720,23,-90,-41,35
534,-1889,-3,91,-4711,23,-85,-38,35
535,-1893,-3,88,-4704,23,-89,-39,37
536,-1893,-3,99,-4720,23,-83,-42,34
537,-1891,7,98,-4714,23,-87,-40,34
538,-1894,0,93,-4709,23,-86,-37,36
539,-1889,1,89,-4722,23,-88,-41,33
540,-1895,0,94,-4717,23,-89,-41,34
541,-1895,1,95,-4714,23,-87,-36,33
542,-1897,-8,95,-4707,23,-91,-40,34
543,-1895,1,102,-4724,23,-87,-38,32
544,-1892,5,92,-4725,23,-87,-40,35
545,-1899,0,87,-4716,23,-84,-44,34
546,-1896,-1,103,-4718,23,-86,-37,35
547,-1888,-2,98,-4716,23,-90,-37,33
548,-1893,-1,80,-4719,23,-91,-40,35
549,-1899,-4,93,-4713,23,-87,-40,34
550,-1897,-1,89,-4715,23,-86,-41,34
551,-1892,-1,82,-4717,23,-87,-38,35
552,-1896,-2,94,-4703,23,-89,-42,37
553,-1892,-3,95,-4727,23,-86,-43,32
554,-1895,0,89,-4722,23,-87,-40,38
555,-1893,7,102,-4711,23,-88,-37,34
556,-1895,2,94,-4721,23,-87,-40,33
557,-1889,3,95,-4711,23,-89,-37,37
558,-1900,1,104,-4717,23,-87,-36,36
559,-1893,4,83,-4715,23,-86,-37,36
560,-1891,-3,94,-4723,23,-89,-39,37
561,-1893,-7,90,-4726,23,-86,-43,35
562,-1897,-6,96,-4713,23,-87,-39,37
563,-1889,-7,97,-4717,23,-88,-36,32
564,-1889,2,93,-4714,23,-86,-36,33
565,-1896,2,91,-4711,23,-86,-36,31
566,-1885,-2,97,-4714,23,-87,-39,35
567,-1886,0,102,-4717,23,-86,-37,34
568,-1897,3,94,-4712,23,-88,-38,34
569,-1901,4,83,-4714,23,-86,-37,36
570,-1896,-9,85,-4720,23,-88,-42,36
571,-1892,8,92,-4726,23,-90,-40,34
572,-1896,-5,98,-4706,23,-90,-44,37
573,-1894,-1,77,-4717,23,-85,-40,33
574,-1897,5,93,-4714,23,-89,-38,38
575,-1890,-1,92,-4717,23,-84,-39,35
576,-1897,5,88,-4711,23,-86,-37,35
577,-1891,-5,87,-4712,23,-88,-36,33
578,-1889,-5,91,-4720,23,-89,-40,34
579,-1892,-6,96,-4723,23,-84,-41,33
580,-1895,-3,94,-4723,23,-86,-39,37
581,-1895,7,92,-4719,23,-86,-39,32
582,-1894,-3,91,-4712,23,-88,-34,33
583,-1895,-1,87,-4710,23,-85,-35,34
584,-1902,-6,95,-4716,23,-82,-39,32
585,-1896,0,97,-4705,23,-91,-39,34
586,-1894,-2,93,-4710,23,-88,-40,36
587,-1893,0,93,-4713,23,-89,-37,33
588,-1895,7,90,-4712,23,-88,-39,33
589,-1892,2,100,-4713,23,-87,-40,34
590,-1890,0,89,-4712,23,-84,-43,35
591,-1897,3,89,-4708,23,-81,-39,34
592,-1902,7,93,-4715,23,-83,-39,35
593,-1891,-8,104,-4723,23,-91,-38,36
594,-1895,-3,94,-4719,23,-90,-40,36
595,-1901,-7,87,-4704,23,-87,-43,35
596,-1893,-1,96,-4717,23,-86,-38,38
597,-1888,-6,91,-4721,23,-85,-40,37
598,-1890,-5,97,-4715,23,-89,-37,35
599,-1901,6,88,-4716,23,-88,-40,37
600,-1893,-1,95,-4704,23,-84,-41,33
601,-1896,-11,91,-4715,23,-87,-41,37
602,-1890,6,99,-4718,23,-87,-38,33
603,-1893,2,94,-4711,23,-88,-37,38
604,-1893,2,80,-4712,23,-86,-37,33
605,-1894,-1,81,-4721,23,-86,-41,35
606,-1895,-2,98,-4723,23,-83,-35,34
607,-1896,-6,85,-4714,23,-88,-37,35
608,-1900,7,96,-4711,23,-85,-40,37
609,-1899,0,99,-4722,23,-85,-40,35
610,-1892,1,92,-4714,23,-87,-39,33
611,-1901,-2,86,-4713,23,-88,-42,36
612,-1883,-7,87,-4711,23,-86,-38,36
613,-1888,-7,92,-4729,23,-88,-41,32
614,-1895,-4,91,-4722,23,-85,-37,35
615,-1896,-3,91,-4712,23,-89,-36,36
616,-1893,6,109,-4718,23,-87,-39,35
617,-1886,2,95,-4720,23,-84,-42,34
618,-1896,-4,84,-4724,23,-88,-37,35
619,-1894,-11,100,-4716,23,-87,-39,35
620,-1896,1,79,-4722,23,-87,-40,35
621,-1892,3,100,-4722,23,-87,-38,36
622,-1894,-2,87,-4714,23,-87,-39,35
623,-1894,-7,98,-4708,23,-87,-33,34
624,-1895,-1,88,-4703,23,-88,-39,35
625,-1893,-2,99,-4713,23,-88,-38,35
626,-1893,3,89,-4710,23,-85,-40,38
627,-1893,3,97,-4714,23,-89,-38,34
628,-1895,-2,93,-4714,23,-88,-37,34
629,-1889,4,92,-4726,23,-86,-40,36
630,-1894,0,90,-4722,23,-87,-38,37
631,-1895,0,89,-4723,23,-88,-39,36
632,-1898,3,96,-4717,23,-86,-42,35
633,-1902,-4,81,-4724,23,-88,-39,39
634,-1898,1,92,-4715,23,-85,-39,34
635,-1896,-3,85,-4702,23,-88,-40,35
636,-1897,0,90,-4709,23,-88,-38,37
637,-1895,-1,91,-4714,23,-87,-40,33
638,-1887,-1,92,-4708,23,-88,-38,35
639,-1895,-4,93,-4716,23,-88,-36,33
640,-1907,0,90,-4723,23,-89,-37,35
641,-1904,-5,83,-4713,23,-87,-36,36
642,-1894,-4,95,-4707,23,-87,-40,36
643,-1895,-2,97,-4724,23,-86,-36,35
644,-1897,-4,96,-4715,23,-88,-38,33
645,-1897,-3,83,-4716,23,-88,-39,34
646,-1899,2,94,-4722,23,-90,-37,33
647,-1899,1,95,-4720,23,-88,-39,33
648,-1893,-1,99,-4713,23,-84,-41,33
649,-1900,1,82,-4715,23,-85,-38,34
650,-1896,-6,90,-4718,23,-86,-37,35
651,-1894,-5,86,-4709,23,-86,-35,36
652,-1888,-9,108,-4719,23,-87,-40,33
653,-1901,-1,99,-4722,23,-87,-39,32
654,-1887,3,86,-4716,23,-81,-41,32
655,-1890,3,96,-4716,23,-85,-35,34
656,-1884,-1,102,-4715,23,-89,-42,35
657,-1895,-8,98,-4724,23,-87,-40,36
658,-1894,-1,96,-4719,23,-87,-39,36
659,-1898,-1,91,-4712,23,-86,-39,36
660,-1895,-6,99,-4715,23,-87,-40,34
661,-1897,1,102,-4714,23,-87,-39,37
662,-1890,-8,94,-4712,23,-88,-38,37
663,-1892,-4,92,-4721,23,-88,-36,36
664,-1898,-4,98,-4717,23,-89,-39,34
665,-1902,2,87,-4714,23,-92,-37,34
666,-1899,-4,88,-4723,23,-90,-39,31
667,-1898,-3,97,-4724,23,-89,-38,32
668,-1890,-3,90,-4715,23,-85,-40,33
669,-1893,2,97,-4722,23,-88,-40,34
670,-1894,2,92,-4712,23,-87,-37,38
671,-1891,-3,99,-4723,23,-87,-38,35
672,-1893,-6,96,-4714,23,-87,-41,37
673,-1897,-3,93,-4708,23,-84,-39,33
674,-1899,0,95,-4721,23,-93,-38,34
675,-1899,-12,94,-4710,23,-89,-38,34
676,-1897,-5,88,-4717,23,-87,-40,33
677,-1896,-9,96,-4704,23,-90,-40,37
678,-1895,-3,99,-4720,23,-89,-38,33
679,-1886,-2,99,-4707,23,-86,-37,35
680,-1889,-3,96,-4713,23,-89,-39,37
681,-1894,6,103,-4717,23,-88,-39,34
682,-1897,-7,99,-4722,23,-86,-40,37
683,-1894,-7,91,-4717,23,-85,-36,37
684,-1906,-1,87,-4713,23,-86,-39,35
685,-1894,0,91,-4715,23,-82,-37,37
686,-1898,2,100,-4718,23,-85,-41,36
687,-1893,-1,92,-4716,23,-89,-39,37
688,-1892,-1,93,-4709,23,-87,-38,35
689,-1902,4,93,-4718,23,-88,-34,35
690,-1890,-3,97,-4720,23,-89,-39,35
691,-1902,6,99,-4722,23,-86,-39,34
692,-1895,-3,99,-4725,23,-86,-40,33
693,-1898,-3,97,-4715,23,-89,-38,34
694,-1890,-2,101,-4701,23,-87,-40,35
695,-1896,4,79,-4718,23,-90,-38,37
696,-1897,-11,79,-4717,23,-86,-36,36
697,-1894,-9,94,-4711,23,-85,-39,36
698,-1892,3,88,-4716,23,-86,-39,36
699,-1899,-3,88,-4723,23,-85,-40,38
700,-1886,-4,100,-4722,23,-85,-38,34
701,-1888,-7,97,-4723,23,-88,-39,35
702,-1897,-2,100,-4719,23,-89,-42,33
703,-1893,-1,101,-4699,23,-84,-37,33
704,-1890,-3,95,-4717,23,-87,-36,33
705,-1889,1,101,-4710,23,-88,-36,35
706,-1906,-5,99,-4719,23,-86,-40,34
707,-1895,4,80,-4718,23,-88,-39,34
708,-1891,-3,89,-4711,23,-86,-36,35
709,-1892,0,100,-4715,23,-88,-42,33
710,-1891,-3,79,-4711,23,-84,-39,36
711,-1894,-1,88,-4707,23,-86,-39,34
712,-1894,0,91,-4714,23,-87,-42,35
713,-1889,-4,90,-4718,23,-87,-40,32
714,-1898,-2,86,-4710,23,-87,-42,36
715,-1898,-7,85,-4719,23,-88,-38,34
716,-1896,-2,94,-4717,23,-85,-37,34
717,-1897,-4,100,-4717,23,-87,-39,34
718,-1896,-3,101,-4725,23,-92,-39,36
719,-1891,5,96,-4703,23,-83,-38,35
720,-1886,3,91,-4720,23,-86,-39,33
721,-1893,3,101,-4709,23,-90,-40,34
722,-1895,-4,86,-4703,23,-89,-39,36
723,-1898,-9,94,-4712,23,-85,-36,37
724,-1890,-5,88,-4719,23,-90,-38,35
725,-1895,-3,91,-4716,23,-82,-39,36
726,-1896,-4,88,-4716,23,-87,-37,35
727,-1891,-5,95,-4721,23,-86,-40,36
728,-1898,-5,89,-4712,23,-87,-37,34
729,-1887,-4,93,-4719,23,-87,-38,34
730,-1897,-2,98,-4709,23,-85,-38,34
731,-1902,-4,96,-4715,23,-88,-40,35
732,-1891,1,86,-4717,23,-83,-40,36
733,-1892,-4,86,-4712,23,-89,-35,35
734,-1896,-8,83,-4711,23,-86,-41,35
735,-1904,2,97,-4720,23,-88,-41,34
736,-1900,-6,90,-4716,23,-90,-40,37
737,-1903,1,90,-4710,23,-88,-37,34
738,-1889,-1,95,-4704,23,-88,-39,34
739,-1889,-4,83,-4705,23,-85,-37,34
740,-1895,1,93,-4707,23,-84,-41,37
741,-1897,-3,96,-4711,23,-83,-38,33
742,-1904,-8,92,-4708,23,-88,-39,33
743,-1890,0,83,-4705,23,-90,-38,37
744,-1896,-4,93,-4711,23,-88,-38,33
745,-1894,0,88,-4705,23,-86,-42,34
746,-1889,1,89,-4723,23,-88,-38,35
747,-1901,1,84,-4703,23,-87,-39,34
748,-1896,-5,91,-4720,23,-87,-38,34
749,-1896,-1,89,-4714,23,-85,-39,34
750,-1890,2,106,-4712,23,-83,-37,33
751,-1899,0,87,-4715,23,-86,-39,32
752,-1890,3,93,-4711,23,-86,-39,37
753,-1887,0,103,-4714,23,-85,-38,37
754,-1890,-1,93,-4722,23,-88,-41,34
755,-1895,-7,93,-4705,23,-86,-43,35
756,-1894,-2,90,-4715,23,-84,-39,31
757,-1886,-3,90,-4706,23,-87,-37,36
758,-1894,-4,89,-4706,23,-88,-35,35
759,-1903,-6,97,-4705,23,-85,-39,33
760,-1892,-2,94,-4710,23,-87,-40,34
761,-1901,-4,99,-4707,23,-85,-36,33
762,-1897,1,88,-4709,23,-85,-41,34
763,-1896,0,90,-4711,23,-85,-38,36
764,-1892,4,84,-4702,23,-84,-40,34
765,-1903,-7,86,-4718,23,-88,-41,36
766,-1890,-6,94,-4711,23,-86,-39,34
767,-1888,-2,94,-4717,23,-87,-41,34
768,-1903,-3,100,-4704,23,-91,-39,34
769,-1888,0,101,-4717,23,-87,-37,34
770,-1895,-5,100,-4713,23,-87,-40,36
771,-1892,-1,88,-4718,23,-88,-37,35
772,-1897,-5,101,-4723,23,-88,-41,34
773,-1893,0,95,-4716,23,-85,-41,29
774,-1896,-2,88,-4728,23,-91,-36,34
775,-1886,-3,94,-4712,23,-85,-35,35
776,-1898,-2,94,-4708,23,-86,-37,37
777,-1893,-6,99,-4711,23,-86,-40,37
778,-1888,-7,102,-4711,23,-87,-40,39
779,-1892,0,94,-4706,23,-90,-42,36
780,-1888,-4,93,-4712,23,-86,-38,34
781,-1896,0,85,-4713,23,-86,-38,34
782,-1888,-5,86,-4734,23,-87,-42,33
783,-1896,-7,96,-4712,23,-86,-37,36
784,-1895,-1,91,-4708,23,-84,-38,32
785,-1899,-5,83,-4712,23,-84,-38,37
786,-1890,-2,93,-4706,23,-89,-40,33
787,-1891,-3,96,-4716,23,-86,-40,35
788,-1904,5,96,-4708,23,-87,-40,34
789,-1893,-5,90,-4707,23,-86,-39,34
790,-1899,-4,105,-4717,23,-85,-34,34
791,-1895,10,95,-4708,23,-86,-40,37
792,-1895,-7,92,-4714,23,-89,-39,35
793,-1892,-1,87,-4711,23,-87,-36,34
794,-1891,-4,89,-4726,23,-86,-40,37
795,-1890,2,86,-4714,23,-90,-38,35
796,-1885,-10,91,-4719,23,-87,-36,32
797,-1899,-3,88,-4712,23,-83,-40,37
798,-1894,-4,95,-4718,23,-85,-39,36
799,-1895,0,86,-4706,23,-88,-42,31
800,-1894,0,95,-4709,23,-86,-39,34
801,-1892,-4,83,-4713,23,-88,-37,37
802,-1897,-4,89,-4715,23,-86,-40,35
803,-1898,-1,92,-4709,23,-89,-37,37
804,-1891,-5,103,-4717,23,-88,-42,33
805,-1890,-5,89,-4718,23,-88,-39,38
806,-1893,0,88,-4713,23,-90,-40,35
807,-1895,-5,85,-4724,23,-90,-40,34
808,-1895,7,88,-4722,23,-89,-36,34
809,-1907,-1,99,-4712,23,-85,-42,34
810,-1900,-6,97,-4710,23,-87,-43,32
811,-1896,-3,87,-4706,23,-86,-40,36
812,-1898,2,95,-4708,23,-89,-40,29
813,-1898,-2,90,-4717,23,-88,-36,34
814,-1890,-5,96,-4711,23,-88,-37,34
815,-1896,-1,93,-4709,23,-90,-40,34
816,-1896,-1,79,-4705,23,-89,-39,35
817,-1902,-2,93,-4716,23,-83,-41,36
818,-1889,-3,94,-4715,23,-88,-36,34
819,-1899,2,96,-4706,23,-89,-40,34
820,-1897,-8,93,-4713,23,-87,-41,33
821,-1891,-5,98,-4706,23,-85,-39,33
822,-1884,-10,87,-4715,23,-88,-36,33
823,-1900,0,85,-4710,23,-87,-37,34
824,-1890,-1,90,-4712,23,-87,-37,33
825,-1890,4,100,-4717,23,-87,-40,36
826,-1894,3,98,-4721,23,-86,-39,34
827,-1893,3,97,-4719,23,-88,-39,36
828,-1888,-7,94,-4716,23,-89,-39,36
829,-1899,-1,94,-4706,23,-87,-42,32
830,-1894,-7,93,-4707,23,-84,-38,36
831,-1895,-6,88,-4709,23,-89,-40,37
832,-1901,-5,104,-4714,23,-85,-39,34
833,-1895,8,88,-4717,23,-86,-38,35
834,-1899,-4,96,-4712,23,-86,-39,33
835,-1886,-6,88,-4715,23,-87,-37,37
836,-1893,-2,101,-4718,23,-83,-37,35
837,-1899,-6,95,-4711,23,-86,-32,32
838,-1888,-6,96,-4715,23,-88,-39,35
839,-1890,-7,85,-4719,23,-91,-39,33
840,-1895,-11,98,-4706,23,-86,-36,38
841,-1890,-2,88,-4706,23,-84,-38,35
842,-1891,1,88,-4703,23,-87,-39,34
843,-1894,-5,92,-4708,23,-87,-43,33
844,-1901,-3,95,-4715,23,-87,-40,35
845,-1901,-2,84,-4721,23,-87,-41,35
846,-1894,5,88,-4716,23,-90,-36,33
847,-1898,1,89,-4712,23,-88,-37,37
848,-1894,1,102,-4707,23,-92,-38,35
849,-1892,-6,90,-4715,23,-85,-37,35
850,-1895,-8,96,-4717,23,-88,-38,36
851,-1894,0,91,-4717,23,-88,-38,36
852,-1897,-1,92,-4708,23,-88,-43,33
853,-1895,6,93,-4716,23,-87,-36,32
854,-1898,-4,87,-4707,23,-88,-37,34
855,-1895,3,97,-4711,23,-85,-40,38
856,-1897,-3,94,-4718,23,-91,-39,32
857,-1897,4,85,-4721,23,-86,-40,36
858,-1895,-2,86,-4716,23,-86,-39,35
859,-1897,-3,96,-4704,23,-87,-38,37
860,-1894,-2,92,-4722,23,-84,-40,35
861,-1895,2,102,-4712,23,-83,-36,34
862,-1897,-7,87,-4716,23,-87,-38,38
863,-1896,0,94,-4712,23,-86,-40,37
864,-1892,-5,99,-4716,23,-86,-37,35
865,-1895,0,78,-4711,23,-88,-39,35
866,-1891,-1,90,-4714,23,-86,-40,34
867,-1900,5,93,-4713,23,-87,-40,36
868,-1893,3,87,-4713,23,-89,-40,34
869,-1889,-2,88,-4715,23,-85,-39,32
870,-1893,-6,91,-4719,23,-89,-36,29
871,-1889,3,95,-4708,23,-84,-40,34
872,-1897,2,92,-4716,23,-87,-39,32
873,-1897,4,91,-4713,23,-90,-40,33
874,-1897,-7,96,-4708,23,-87,-35,36
875,-1896,-1,109,-4715,23,-87,-38,35
876,-1897,-2,100,-4708,23,-87,-38,35
877,-1893,-8,91,-4709,23,-85,-38,33
878,-1896,-6,87,-4704,23,-90,-40,37
879,-1898,4,87,-4716,23,-87,-37,32
880,-1896,-4,82,-4709,23,-88,-36,37
881,-1900,0,87,-4705,23,-90,-39,34
882,-1898,2,88,-4712,23,-87,-39,37
883,-1895,-2,101,-4724,23,-86,-38,34
884,-1896,-5,96,-4715,23,-84,-35,37
885,-1893,2,98,-4714,23,-89,-40,32
886,-1894,-3,96,-4711,23,-89,-39,35
887,-1896,1,92,-4704,23,-85,-39,35
888,-1895,1,90,-4719,23,-89,-38,34
889,-1895,-6,97,-4709,23,-87,-41,36
890,-1899,-4,92,-4713,23,-85,-39,36
891,-1887,0,92,-4709,23,-88,-38,38
892,-1894,-3,95,-4714,23,-87,-40,38
893,-1898,-7,87,-4717,23,-88,-38,36
894,-1894,2,90,-4706,23,-90,-40,35
895,-1895,-5,92,-4715,23,-91,-41,35
896,-1895,3,88,-4713,23,-89,-37,35
897,-1896,-5,88,-4714,23,-86,-40,34
898,-1896,2,90,-4713,23,-89,-37,29
899,-1893,-3,104,-4712,23,-89,-41,37
900,-1894,-2,96,-4708,23,-84,-38,36
901,-1894,-5,88,-4712,23,-89,-40,35
902,-1893,-1,88,-4717,23,-87,-39,37
903,-1898,2,96,-4718,23,-90,-41,34
904,-1892,5,98,-4717,23,-90,-38,32
905,-1896,-3,95,-4713,23,-86,-39,36
906,-1889,-3,82,-4719,23,-86,-40,31
907,-1892,2,90,-4716,23,-90,-39,37
908,-1895,-1,84,-4708,23,-83,-38,34
909,-1894,-6,99,-4710,23,-88,-40,36
910,-1891,1,108,-4720,23,-86,-41,33
911,-1897,6,97,-4723,23,-89,-40,35
912,-1898,-5,91,-4710,23,-85,-40,34
913,-1897,6,92,-4709,23,-90,-39,33
914,-1897,-3,91,-4717,23,-86,-36,34
915,-1894,3,86,-4704,23,-86,-40,35
916,-1899,-4,92,-4717,23,-85,-38,36
917,-1896,-3,85,-4714,23,-84,-41,33
918,-1893,-10,94,-4714,23,-87,-38,33
919,-1906,4,98,-4710,23,-86,-37,34
920,-1893,5,99,-4702,23,-90,-39,38
921,-1898,5,94,-4707,23,-89,-39,32
922,-1891,-5,97,-4710,23,-87,-39,37
923,-1891,-3,102,-4702,23,-88,-40,34
924,-1897,6,94,-4714,23,-86,-39,35
925,-1890,4,98,-4693,23,-84,-38,34
926,-1892,3,98,-4706,23,-86,-39,34
927,-1894,2,88,-4704,23,-86,-38,35
928,-1892,0,95,-4708,23,-86,-35,32
929,-1892,-4,98,-4720,23,-85,-38,33
930,-1902,-5,96,-4716,23,-87,-37,34
931,-1894,-1,93,-4704,23,-87,-40,37
932,-1897,1,91,-4706,23,-86,-40,37
933,-1896,-5,89,-4699,23,-87,-41,37
934,-1899,-2,90,-4710,23,-89,-37,37
935,-1895,-3,90,-4710,23,-85,-37,36
936,-1896,-3,99,-4713,23,-84,-39,31
937,-1889,-1,90,-4721,23,-86,-42,36
938,-1893,4,95,-4714,23,-84,-41,32
939,-1893,2,87,-4713,23,-87,-39,36
940,-1888,-9,94,-4709,23,-84,-37,34
941,-1889,5,87,-4712,23,-88,-37,32
942,-1900,-4,100,-4707,23,-86,-39,32
943,-1890,5,89,-4708,23,-86,-41,33
944,-1889,-9,91,-4707,23,-86,-43,33
945,-1886,0,87,-4715,23,-87,-37,35
946,-1895,-4,100,-4714,23,-86,-38,38
947,-1889,-3,93,-4692,23,-90,-35,36
948,-1895,0,91,-4724,23,-87,-37,30
949,-1896,0,90,-4712,23,-90,-38,35
950,-1894,-2,90,-4708,23,-87,-38,34
951,-1900,-6,95,-4723,23,-86,-37,32
952,-1895,-4,95,-4713,23,-89,-39,33
953,-1892,-1,89,-4714,23,-84,-36,37
954,-1891,-6,92,-4710,23,-82,-39,36
955,-1895,-2,98,-4701,23,-88,-41,33
956,-1897,4,90,-4718,23,-88,-40,33
957,-1895,3,96,-4710,23,-86,-41,31
958,-1899,-4,97,-4715,23,-90,-37,32
959,-1888,2,92,-4708,23,-88,-38,35
960,-1899,11,90,-4717,23,-90,-38,36
961,-1897,-4,95,-4719,23,-87,-36,35
962,-1896,2,96,-4705,23,-86,-44,34
963,-1893,6,91,-4716,23,-88,-42,35
964,-1901,9,90,-4709,23,-86,-39,37
965,-1895,1,95,-4705,23,-87,-39,35
966,-1900,-1,92,-4715,23,-84,-40,37
967,-1895,-2,86,-4707,23,-84,-38,36
968,-1903,4,102,-4708,23,-88,-38,33
969,-1892,-13,104,-4717,23,-90,-40,34
970,-1892,-3,86,-4714,23,-85,-37,33
971,-1900,-7,101,-4706,23,-89,-40,35
972,-1892,-6,98,-4710,23,-84,-41,34
973,-1895,-1,98,-4709,23,-86,-40,37
974,-1890,0,96,-4707,23,-86,-38,36
975,-1890,-12,90,-4707,23,-88,-34,34
976,-1899,-10,105,-4708,23,-88,-40,34
977,-1891,-5,94,-4719,23,-84,-40,35
978,-1899,-3,89,-4704,23,-89,-36,36
979,-1890,-2,91,-4708,23,-91,-39,34
980,-1889,-3,90,-4716,23,-89,-42,35
981,-1891,-8,95,-4711,23,-89,-36,33
982,-1889,-6,96,-4715,23,-89,-38,34
983,-1893,1,102,-4710,23,-87,-40,33
984,-1889,2,106,-4713,23,-89,-41,33
985,-1884,1,92,-4719,23,-89,-38,39
986,-1896,-7,81,-4709,23,-89,-37,35
987,-1895,-3,90,-4711,23,-85,-39,35
988,-1892,-6,109,-4708,23,-88,-40,36
989,-1900,-4,91,-4712,23,-87,-39,37
990,-1897,2,97,-4716,23,-88,-36,37
991,-1892,0,94,-4705,23,-90,-38,33
992,-1900,-8,103,-4714,23,-88,-36,34
993,-1902,1,93,-4713,23,-88,-37,37
994,-1893,-8,98,-4710,23,-86,-41,33
995,-1886,-1,103,-4706,23,-88,-37,37
996,-1903,-10,95,-4713,23,-87,-40,37
997,-1899,2,91,-4716,23,-86,-42,32
998,-1900,5,89,-4714,23,-86,-39,36
