,acc_X,acc_Y,acc_Z,temp,tempC,gyr_X,gyr_Y,gyr_Z
0,-15204,24,740,-4726,23,-173,-80,67
1,-15100,4,718,-4733,23,-173,-81,64
2,-15130,68,696,-4750,23,-161,-82,67
3,-15108,-26,734,-4743,23,-173,-72,75
4,-15118,30,828,-4737,23,-166,-83,63
5,-15160,-68,632,-4754,23,-173,-77,67
6,-15118,-64,752,-4745,23,-168,-71,72
7,-15202,-18,678,-4749,23,-171,-71,65
8,-15192,-32,778,-4727,23,-176,-74,65
9,-15156,6,784,-4746,23,-179,-80,74
10,-15076,6,628,-4742,23,-174,-76,74
11,-15158,-56,948,-4751,23,-175,-71,69
12,-15154,-10,784,-4748,23,-164,-72,74
13,-15092,-12,732,-4747,23,-161,-72,63
14,-15146,10,738,-4736,23,-167,-84,67
15,-15172,30,670,-4734,23,-173,-76,53
16,-15156,-22,762,-4743,23,-170,-80,64
17,-15178,-16,666,-4742,23,-169,-69,71
18,-15190,-38,734,-4731,23,-178,-79,71
19,-15064,-32,676,-4756,23,-170,-72,72
20,-15126,-22,724,-4734,23,-165,-79,75
21,-15104,-66,644,-4748,23,-176,-74,66
22,-15176,-12,748,-4738,23,-179,-86,69
23,-15152,-2,708,-4747,23,-179,-74,74
24,-15080,-46,656,-4744,23,-172,-74,74
25,-15186,-36,834,-4731,23,-176,-80,68
26,-15140,-102,754,-4735,23,-181,-74,75
27,-15092,4,824,-4739,23,-172,-80,68
28,-15228,-60,588,-4738,23,-179,-81,69
29,-15216,-6,758,-4736,23,-172,-71,63
30,-15126,-32,826,-4748,23,-174,-76,69
31,-15202,-74,782,-4737,23,-166,-71,76
32,-15114,-22,824,-4730,23,-179,-74,64
33,-15182,-28,808,-4738,23,-175,-67,67
34,-15216,54,720,-4737,23,-174,-81,60
35,-15060,-84,718,-4744,23,-176,-73,72
36,-15204,-72,878,-4746,23,-173,-74,68
37,-15098,-30,636,-4745,23,-169,-82,65
38,-15126,-26,834,-4751,23,-182,-72,65
39,-15142,-10,650,-4741,23,-176,-77,70
40,-15242,32,692,-4754,23,-172,-76,82
41,-15074,38,650,-4734,23,-167,-72,69
42,-15140,42,732,-4755,23,-170,-76,72
43,-15142,18,766,-4729,23,-168,-65,69
44,-15114,66,758,-4745,23,-177,-77,63
45,-15162,4,824,-4741,23,-172,-78,70
46,-15230,-24,746,-4744,23,-174,-73,70
47,-15164,40,748,-4737,23,-175,-79,75
48,-15160,-30,670,-4746,23,-170,-72,69
49,-15146,20,908,-4740,23,-170,-87,72
50,-15170,32,720,-4743,23,-178,-73,73
51,-15134,56,618,-4748,23,-181,-72,69
52,-15214,20,668,-4744,23,-175,-75,66
53,-15152,-100,890,-4749,23,-169,-75,66
54,-15176,-108,798,-4741,23,-177,-80,67
55,-15148,-32,682,-4734,23,-173,-77,74
56,-15176,12,826,-4722,23,-181,-75,69
57,-15132,4,714,-4740,23,-176,-74,67
58,-15186,-20,794,-4734,23,-162,-79,68
59,-15178,-132,716,-4736,23,-177,-74,77
60,-15174,18,652,-4744,23,-169,-71,67
61,-15176,-86,760,-4734,23,-166,-68,68
62,-15112,12,726,-4753,23,-178,-83,70
63,-15202,-98,716,-4757,23,-175,-74,65
64,-15114,-12,744,-4734,23,-173,-84,66
65,-15152,86,670,-4737,23,-167,-83,71
66,-15118,-10,884,-4746,23,-175,-77,71
67,-15194,-72,792,-4748,23,-173,-71,68
68,-15128,-2,696,-4740,23,-179,-76,69
69,-15262,38,776,-4719,23,-165,-82,76
70,-15214,-30,612,-4745,23,-165,-88,70
71,-15156,-6,746,-4732,23,-184,-73,66
72,-15206,58,724,-4747,23,-169,-81,77
73,-15122,-82,688,-4735,23,-167,-78,77
74,-15102,-76,742,-4741,23,-172,-76,58
75,-15132,-68,734,-4740,23,-169,-80,71
76,-15118,44,786,-4741,23,-176,-78,70
77,-15178,-96,832,-4727,23,-178,-79,74
78,-15194,-14,588,-4742,23,-172,-74,63
79,-15160,12,714,-4741,23,-173,-77,74
80,-15224,6,798,-4737,23,-169,-77,75
81,-15124,12,686,-4742,23,-168,-79,64
82,-15160,-50,694,-4748,23,-171,-72,71
83,-15096,-8,800,-4738,23,-174,-72,61
84,-15152,-42,818,-4743,23,-172,-69,65
85,-15136,26,712,-4734,23,-167,-74,65
86,-15194,40,752,-4739,23,-171,-76,68
87,-15164,-32,756,-4746,23,-165,-78,69
88,-15228,20,846,-4740,23,-172,-74,67
89,-15228,92,712,-4732,23,-168,-71,70
90,-15054,-70,780,-4723,23,-176,-79,68
91,-15158,70,744,-4713,23,-186,-71,77
92,-15154,-48,824,-4750,23,-169,-81,69
93,-15108,-4,692,-4735,23,-177,-67,66
94,-15188,8,800,-4721,23,-171,-68,65
95,-15116,-22,732,-4730,23,-164,-74,72
96,-15120,-24,764,-4740,23,-170,-79,70
97,-15174,-24,752,-4737,23,-180,-73,62
98,-15068,26,672,-4728,23,-173,-84,72
99,-15120,-12,734,-4734,23,-180,-83,74
100,-15108,-30,838,-4737,23,-178,-76,66
101,-15204,-56,772,-4730,23,-179,-77,70
102,-15186,-4,782,-4736,23,-174,-72,68
103,-15246,-22,774,-4745,23,-174,-82,67
104,-15128,-18,744,-4733,23,-179,-76,69
105,-15090,-52,810,-4729,23,-182,-83,71
106,-15156,26,786,-4740,23,-173,-72,69
107,-15202,-18,780,-4747,23,-173,-80,71
108,-15104,56,740,-4739,23,-175,-76,77
109,-15134,26,598,-4736,23,-166,-70,65
110,-15120,-70,586,-4745,23,-177,-77,62
111,-15172,-60,836,-4734,23,-167,-78,70
112,-15170,-40,784,-4741,23,-171,-77,67
113,-15128,6,776,-4742,23,-175,-74,69
114,-15114,-50,758,-4747,23,-176,-78,77
115,-15158,-56,808,-4731,23,-175,-72,69
116,-15138,-22,594,-4736,23,-174,-75,69
117,-15088,-84,644,-4738,23,-170,-68,61
118,-15170,-20,760,-4737,23,-174,-87,66
119,-15128,-20,806,-4734,23,-169,-77,64
120,-15184,32,818,-4736,23,-166,-74,65
121,-15162,-24,848,-4739,23,-173,-66,71
122,-15064,2,700,-4734,23,-170,-82,76
123,-15174,-6,810,-4724,23,-175,-85,69
124,-15212,-28,826,-4741,23,-172,-77,69
125,-15142,-10,770,-4728,23,-171,-80,72
126,-15192,-28,742,-4725,23,-170,-68,68
127,-15192,70,722,-4739,23,-169,-73,76
128,-15098,30,652,-4751,23,-168,-73,74
129,-15164,-42,818,-4748,23,-175,-76,71
130,-15110,-12,654,-4726,23,-172,-77,75
131,-15142,38,714,-4745,23,-167,-74,69
132,-15132,16,800,-4737,23,-167,-86,59
133,-15122,-110,738,-4747,23,-170,-77,70
134,-15176,50,708,-4734,23,-170,-81,66
135,-15146,-28,732,-4752,23,-173,-81,64
136,-15144,2,678,-4729,23,-175,-79,78
137,-15186,50,884,-4739,23,-184,-76,62
138,-15182,14,776,-4746,23,-171,-78,67
139,-15202,-4,704,-4738,23,-168,-71,70
140,-15154,-66,732,-4728,23,-175,-77,71
141,-15208,-16,724,-4748,23,-174,-83,71
142,-15232,-2,704,-4737,23,-174,-89,73
143,-15180,-50,688,-4752,23,-172,-80,70
144,-15166,-50,752,-4742,23,-168,-75,68
145,-15192,0,726,-4751,23,-180,-85,66
146,-15196,-24,718,-4744,23,-178,-82,70
147,-15106,-24,666,-4737,23,-176,-80,67
148,-15088,-58,820,-4743,23,-168,-70,76
149,-15156,-16,824,-4747,23,-168,-80,70
150,-15200,-6,808,-4743,23,-180,-74,76
151,-15264,-32,726,-4743,23,-170,-71,58
152,-15110,24,698,-4734,23,-170,-83,76
153,-15092,-110,760,-4732,23,-170,-76,61
154,-15074,-6,764,-4749,23,-185,-79,69
155,-15136,-52,750,-4748,23,-170,-77,66
156,-15088,-42,762,-4747,23,-172,-75,67
157,-15188,44,710,-4741,23,-178,-73,66
158,-15142,-46,664,-4735,23,-174,-78,73
159,-15162,-8,716,-4728,23,-178,-68,76
160,-15206,70,742,-4724,23,-169,-69,64
161,-15230,-40,758,-4741,23,-168,-70,66
162,-15126,40,672,-4728,23,-180,-72,68
163,-15170,-36,630,-4740,23,-176,-75,69
164,-15172,-32,672,-4738,23,-169,-76,65
165,-15154,22,596,-4737,23,-173,-75,72
166,-15114,0,856,-4725,23,-172,-85,70
167,-15170,-62,698,-4739,23,-170,-78,68
168,-15144,82,708,-4736,23,-181,-79,63
169,-15152,-6,684,-4738,23,-175,-81,68
170,-15228,46,726,-4730,23,-167,-89,68
171,-15130,32,790,-4735,23,-176,-83,69
172,-15236,-30,762,-4733,23,-174,-62,73
173,-15160,-46,808,-4740,23,-166,-73,74
174,-15120,0,766,-4732,23,-173,-81,75
175,-15136,-68,832,-4735,23,-169,-73,70
176,-15198,-28,754,-4730,23,-174,-75,63
177,-15224,48,868,-4744,23,-176,-71,71
178,-15152,-16,760,-4745,23,-174,-79,69
179,-15194,36,854,-4744,23,-168,-82,68
180,-15118,-28,846,-4743,23,-169,-70,66
181,-15286,0,704,-4736,23,-178,-79,70
182,-15182,-72,764,-4742,23,-171,-82,70
183,-15154,22,810,-4737,23,-183,-81,62
184,-15124,-34,784,-4736,23,-178,-80,66
185,-15208,-60,810,-4722,23,-171,-76,76
186,-15150,-58,780,-4736,23,-173,-73,71
187,-15098,18,804,-4730,23,-172,-79,72
188,-15182,14,810,-4736,23,-177,-81,73
189,-15164,-76,768,-4733,23,-168,-74,72
190,-15232,-14,708,-4728,23,-165,-76,64
191,-15140,-52,694,-4737,23,-172,-74,62
192,-15152,-66,792,-4735,23,-160,-76,65
193,-15210,36,682,-4733,23,-174,-70,72
194,-15146,16,740,-4732,23,-160,-70,71
195,-15208,24,724,-4738,23,-169,-67,65
196,-15092,-42,660,-4731,23,-173,-79,63
197,-15122,0,814,-4731,23,-178,-69,66
198,-15108,6,746,-4742,23,-171,-76,74
199,-15170,56,764,-4744,23,-174,-75,72
200,-15106,70,726,-4729,23,-177,-75,68
201,-15154,-16,782,-4732,23,-171,-77,63
202,-15084,14,722,-4749,23,-166,-77,68
203,-15142,4,774,-4732,23,-179,-88,67
204,-15174,-20,804,-4753,23,-171,-76,79
205,-15118,-42,676,-4742,23,-176,-77,67
206,-15144,-26,816,-4738,23,-184,-73,76
207,-15224,-22,746,-4737,23,-166,-76,74
208,-15130,12,618,-4743,23,-177,-84,69
209,-15036,62,648,-4727,23,-176,-83,66
210,-15138,-38,692,-4742,23,-176,-71,68
211,-15064,40,720,-4740,23,-170,-82,69
212,-15082,-10,714,-4741,23,-176,-81,70
213,-15170,8,788,-4733,23,-172,-79,66
214,-15120,-50,746,-4745,23,-175,-72,81
215,-15132,-24,732,-4740,23,-170,-78,70
216,-15128,86,642,-4739,23,-176,-78,66
217,-15150,-28,836,-4754,23,-163,-83,71
218,-15140,-58,842,-4730,23,-171,-77,65
219,-15104,-34,646,-4740,23,-174,-83,68
220,-15178,54,824,-4734,23,-171,-71,73
221,-15100,0,748,-4737,23,-172,-80,68
222,-15158,6,652,-4740,23,-178,-70,70
223,-15106,18,872,-4741,23,-165,-87,71
224,-15248,-18,800,-4737,23,-165,-69,73
225,-15152,-20,714,-4746,23,-180,-76,73
226,-15136,-50,750,-4733,23,-184,-77,68
227,-15166,30,922,-4739,23,-175,-77,69
228,-15136,-22,628,-4747,23,-174,-72,68
229,-15180,36,836,-4738,23,-166,-62,68
230,-15136,4,712,-4746,23,-169,-79,69
231,-15176,-28,840,-4737,23,-176,-81,65
232,-15188,18,816,-4740,23,-180,-73,63
233,-15082,40,836,-4735,23,-166,-71,68
234,-15074,20,608,-4735,23,-175,-79,71
235,-15190,-58,724,-4725,23,-172,-77,58
236,-15114,-50,672,-4742,23,-178,-79,67
237,-15098,-72,940,-4740,23,-162,-83,63
238,-15192,102,682,-4736,23,-182,-83,68
239,-15136,-92,672,-4727,23,-173,-82,74
240,-15070,14,680,-4731,23,-175,-77,77
241,-15100,-40,712,-4734,23,-173,-88,71
242,-15132,-36,668,-4741,23,-170,-68,70
243,-15106,-34,686,-4740,23,-182,-72,71
244,-15208,28,792,-4737,23,-167,-76,67
245,-15130,14,868,-4738,23,-174,-81,64
246,-15136,24,668,-4736,23,-170,-74,67
247,-15220,-26,812,-4729,23,-177,-76,70
248,-15156,-16,738,-4736,23,-176,-75,67
249,-15122,-18,726,-4735,23,-169,-71,68
250,-15134,-104,792,-4720,23,-168,-80,71
251,-15126,46,832,-4735,23,-175,-80,71
252,-15138,2,702,-4737,23,-168,-83,70
253,-15138,-28,752,-4743,23,-161,-76,70
254,-15156,60,694,-4741,23,-176,-83,67
255,-15124,-72,864,-4737,23,-169,-75,67
256,-15164,10,682,-4757,23,-176,-76,70
257,-15142,0,824,-4739,23,-176,-78,65
258,-15142,14,796,-4741,23,-162,-78,72
259,-15112,-40,776,-4732,23,-178,-74,68
260,-15174,34,640,-4726,23,-173,-87,68
261,-15130,-2,710,-4745,23,-178,-69,71
262,-15142,-46,738,-4742,23,-175,-74,71
263,-15132,-24,748,-4728,23,-168,-81,60
264,-15176,-104,860,-4740,23,-180,-70,66
265,-15096,34,846,-4742,23,-175,-76,67
266,-15140,-76,694,-4720,23,-170,-80,72
267,-15200,20,666,-4726,23,-171,-80,68
268,-15134,-32,798,-4729,23,-173,-77,74
269,-15170,-48,696,-4720,23,-173,-65,71
270,-15214,-48,740,-4736,23,-179,-71,74
271,-15196,0,784,-4729,23,-174,-76,73
272,-15144,-2,716,-4739,23,-166,-88,70
273,-15146,4,714,-4733,23,-175,-77,73
274,-15132,-34,754,-4741,23,-183,-75,68
275,-15236,16,750,-4730,23,-170,-81,65
276,-15138,-56,690,-4735,23,-178,-79,65
277,-15156,-16,806,-4726,23,-180,-72,74
278,-15136,-30,686,-4729,23,-172,-83,62
279,-15188,-12,704,-4725,23,-170,-75,76
280,-15228,-56,692,-4735,23,-178,-82,63
281,-15124,42,806,-4741,23,-172,-71,70
282,-15106,-22,686,-4724,23,-167,-72,71
283,-15164,30,734,-4736,23,-173,-74,71
284,-15182,-6,784,-4736,23,-170,-80,66
285,-15158,-80,720,-4738,23,-167,-80,77
286,-15102,-68,824,-4731,23,-174,-76,72
287,-15160,-66,692,-4733,23,-175,-72,57
288,-15154,-52,704,-4729,23,-169,-73,70
289,-15184,-20,808,-4738,23,-170,-66,70
290,-15200,18,816,-4732,23,-175,-70,70
291,-15136,30,800,-4738,23,-169,-69,78
292,-15208,34,628,-4735,23,-171,-73,71
293,-15232,-4,762,-4743,23,-173,-74,64
294,-15240,22,878,-4735,23,-174,-72,74
295,-15200,46,704,-4736,23,-175,-70,62
296,-15174,-34,776,-4736,23,-172,-80,76
297,-15146,-32,732,-4730,23,-172,-74,75
298,-15108,-32,794,-4732,23,-167,-69,65
299,-15190,-42,728,-4729,23,-171,-59,70
300,-15148,50,784,-4731,23,-167,-81,66
301,-15202,-4,770,-4729,23,-163,-72,74
302,-15198,64,706,-4732,23,-179,-81,69
303,-15084,38,682,-4726,23,-179,-81,68
304,-15162,-54,782,-4741,23,-168,-74,76
305,-15118,-2,924,-4726,23,-171,-84,73
306,-15068,-18,798,-4738,23,-173,-81,68
307,-15154,2,910,-4739,23,-176,-83,76
308,-15098,-22,790,-4734,23,-168,-87,71
309,-15234,-44,744,-4736,23,-168,-78,64
310,-15116,-62,738,-4742,23,-170,-72,72
311,-15172,-22,750,-4721,23,-167,-74,67
312,-15196,-32,808,-4738,23,-165,-72,79
313,-15198,70,760,-4737,23,-168,-70,64
314,-15206,18,724,-4745,23,-172,-72,73
315,-15104,54,794,-4733,23,-166,-84,61
316,-15174,-8,738,-4747,23,-181,-72,71
317,-15134,-42,714,-4739,23,-167,-69,69
318,-15168,-2,732,-4745,23,-174,-75,71
319,-15148,18,716,-4730,23,-166,-83,68
320,-15204,82,822,-4737,23,-186,-73,69
321,-15086,60,804,-4741,23,-179,-73,69
322,-15136,-90,686,-4738,23,-175,-72,75
323,-15204,68,814,-4742,23,-170,-75,71
324,-15140,-30,692,-4727,23,-168,-73,73
325,-15150,80,678,-4738,23,-173,-74,77
326,-15098,-88,624,-4725,23,-167,-73,66
327,-15210,-50,848,-4743,23,-162,-79,65
328,-15134,-88,650,-4753,23,-185,-74,66
329,-15118,2,772,-4738,23,-179,-77,68
330,-15124,-28,776,-4740,23,-173,-83,68
331,-15168,0,866,-4734,23,-176,-74,64
332,-15150,-56,750,-4725,23,-170,-76,68
333,-15208,2,804,-4735,23,-173,-80,68
334,-15184,38,830,-4726,23,-166,-78,69
335,-15300,-6,750,-4738,23,-164,-73,64
336,-15120,-78,686,-4743,23,-171,-78,68
337,-15188,-22,744,-4730,23,-178,-72,66
338,-15180,42,722,-4728,23,-169,-88,76
339,-15132,30,738,-4736,23,-171,-74,73
340,-15176,-2,758,-4742,23,-171,-77,61
341,-15206,6,748,-4740,23,-172,-66,76
342,-15172,-96,740,-4726,23,-169,-73,74
343,-15018,-22,762,-4738,23,-169,-79,77
344,-15176,-30,708,-4744,23,-180,-75,74
345,-15142,-24,684,-4737,23,-181,-80,63
346,-15166,-36,620,-4742,23,-168,-81,69
347,-15060,-14,858,-4731,23,-181,-80,73
348,-15144,-54,666,-4741,23,-162,-80,74
349,-15162,36,748,-4724,23,-182,-85,68
350,-15250,-58,786,-4743,23,-167,-81,60
351,-15190,-74,744,-4734,23,-174,-76,69
352,-15118,-22,634,-4735,23,-176,-71,73
353,-15150,38,778,-4748,23,-179,-79,70
354,-15126,50,738,-4720,23,-176,-85,77
355,-15236,58,862,-4731,23,-178,-78,72
356,-15242,-70,928,-4737,23,-177,-75,71
357,-15088,34,794,-4727,23,-172,-83,64
358,-15182,-34,746,-4738,23,-170,-77,68
359,-15136,28,696,-4740,23,-169,-81,75
360,-15226,26,848,-4734,23,-176,-68,72
361,-15160,-48,718,-4736,23,-167,-90,69
362,-15186,60,768,-4734,23,-165,-83,74
363,-15230,-18,784,-4727,23,-182,-85,71
364,-15282,6,754,-4724,23,-174,-73,70
365,-15222,42,736,-4731,23,-175,-75,71
366,-15146,-64,786,-4732,23,-177,-79,67
367,-15144,-18,678,-4729,23,-177,-69,69
368,-15050,2,686,-4740,23,-170,-78,70
369,-15086,38,802,-4749,23,-173,-76,73
370,-15218,-20,742,-4739,23,-178,-77,63
371,-15136,-80,810,-4728,23,-170,-77,62
372,-15100,-28,748,-4741,23,-167,-73,68
373,-15214,-112,792,-4735,23,-167,-79,75
374,-15128,-64,630,-4732,23,-172,-76,67
375,-15134,-54,772,-4739,23,-178,-71,66
376,-15054,4,748,-4736,23,-182,-69,66
377,-15166,40,780,-4722,23,-169,-78,78
378,-15096,-72,700,-4736,23,-172,-81,65
379,-15116,18,740,-4738,23,-178,-71,70
380,-15092,20,772,-4727,23,-168,-74,64
381,-15182,86,726,-4735,23,-170,-80,63
382,-15162,2,716,-4743,23,-171,-74,71
383,-15160,70,748,-4749,23,-171,-88,73
384,-15194,34,794,-4729,23,-171,-76,63
385,-15160,22,782,-4721,23,-174,-76,65
386,-15242,-38,870,-4749,23,-189,-79,64
387,-15204,98,676,-4730,23,-171,-71,69
388,-15172,44,812,-4744,23,-172,-78,68
389,-15130,-58,712,-4738,23,-181,-61,64
390,-15206,-34,854,-4727,23,-173,-75,69
391,-15120,-138,778,-4740,23,-166,-77,71
392,-15174,-62,818,-4733,23,-172,-80,75
393,-15122,-86,708,-4731,23,-184,-89,68
394,-15194,-16,560,-4734,23,-169,-82,67
395,-15102,-100,690,-4732,23,-169,-79,68
396,-15214,96,886,-4750,23,-175,-70,75
397,-15134,-76,818,-4735,23,-170,-79,70
398,-15122,28,732,-4745,23,-174,-69,71
399,-15284,24,704,-4743,23,-179,-85,64
400,-15140,8,714,-4739,23,-172,-77,68
401,-15176,-16,712,-4745,23,-172,-86,72
402,-15136,-24,700,-4725,23,-177,-69,63
403,-15120,-82,678,-4739,23,-161,-69,66
404,-15180,-22,846,-4753,23,-169,-72,68
405,-15128,-2,738,-4738,23,-171,-71,76
406,-15218,-52,760,-4732,23,-170,-70,63
407,-15174,-64,832,-4744,23,-170,-72,65
408,-15166,-6,754,-4726,23,-179,-78,70
409,-15108,10,758,-4733,23,-172,-74,75
410,-15208,-44,788,-4734,23,-181,-79,68
411,-15148,-14,800,-4743,23,-164,-73,69
412,-15218,-60,694,-4738,23,-167,-82,74
413,-15158,-56,730,-4745,23,-174,-75,65
414,-15098,-8,812,-4743,23,-168,-76,68
415,-15086,44,792,-4726,23,-178,-84,69
416,-15128,-18,720,-4725,23,-175,-79,67
417,-15102,22,710,-4738,23,-176,-76,65
418,-15166,-50,786,-4732,23,-175,-78,78
419,-15196,-84,710,-4736,23,-171,-79,70
420,-15164,-82,610,-4731,23,-169,-73,64
421,-15228,44,784,-4745,23,-171,-73,71
422,-15064,-40,784,-4753,23,-170,-69,70
423,-15112,-44,848,-4734,23,-169,-81,72
424,-15170,-72,792,-4728,23,-167,-76,70
425,-15192,-12,682,-4727,23,-171,-70,61
426,-15134,-38,864,-4744,23,-163,-74,70
427,-15186,10,706,-4748,23,-176,-73,62
428,-15182,14,756,-4743,23,-175,-75,71
429,-15146,30,790,-4748,23,-182,-73,72
430,-15142,30,794,-4740,23,-171,-84,70
431,-15146,-16,706,-4744,23,-166,-76,68
432,-15210,16,660,-4748,23,-168,-73,74
433,-15186,-4,796,-4729,23,-165,-69,71
434,-15160,-6,754,-4728,23,-172,-73,72
435,-15204,2,656,-4747,23,-179,-73,74
436,-15100,-14,710,-4731,23,-173,-86,67
437,-15114,-74,714,-4743,23,-175,-83,73
438,-15132,62,846,-4752,23,-177,-78,74
439,-15174,-44,790,-4733,23,-174,-79,69
440,-15226,36,716,-4739,23,-180,-73,75
441,-15194,12,794,-4736,23,-177,-76,68
442,-15124,-62,808,-4729,23,-174,-86,65
443,-15134,-14,750,-4742,23,-171,-82,65
444,-15142,-4,748,-4734,23,-168,-74,72
445,-15086,0,696,-4747,23,-171,-86,71
446,-15104,-18,628,-4734,23,-166,-76,67
447,-15228,-40,576,-4742,23,-168,-81,67
448,-15142,-22,816,-4728,23,-178,-83,75
449,-15158,8,802,-4744,23,-174,-82,72
450,-15190,-50,734,-4737,23,-170,-62,68
451,-15110,26,738,-4739,23,-167,-66,64
452,-15186,-24,678,-4749,23,-181,-68,64
453,-15220,44,618,-4730,23,-167,-72,68
454,-15186,-32,850,-4739,23,-175,-78,70
455,-15106,-16,746,-4732,23,-168,-79,65
456,-15206,-6,824,-4730,23,-175,-81,71
457,-15202,-62,682,-4740,23,-173,-72,70
458,-15118,-22,740,-4732,23,-172,-72,63
459,-15158,-2,822,-4745,23,-177,-71,61
460,-15122,-46,750,-4724,23,-178,-78,70
461,-15232,-52,722,-4728,23,-179,-75,66
462,-15088,-70,684,-4741,23,-176,-71,69
463,-15198,-22,742,-4737,23,-177,-83,66
464,-15140,72,718,-4736,23,-171,-73,72
465,-15192,-12,932,-4744,23,-176,-76,74
466,-15106,-18,784,-4737,23,-179,-67,67
467,-15208,-32,772,-4729,23,-173,-74,68
468,-15124,48,816,-4727,23,-181,-82,67
469,-15206,-16,688,-4731,23,-169,-71,68
470,-15118,-26,766,-4741,23,-177,-83,69
471,-15212,10,662,-4747,23,-179,-82,69
472,-15112,52,878,-4740,23,-170,-80,67
473,-15110,-4,824,-4725,23,-164,-76,66
474,-15136,38,722,-4728,23,-178,-64,69
475,-15154,-118,762,-4741,23,-181,-72,72
476,-15174,28,784,-4724,23,-173,-72,75
477,-15174,-6,722,-4731,23,-177,-76,71
478,-15174,-14,776,-4743,23,-171,-80,67
479,-15102,34,928,-4741,23,-172,-77,70
480,-15248,-22,754,-4732,23,-174,-71,59
481,-15044,-40,778,-4757,23,-178,-77,68
482,-15164,-30,752,-4747,23,-174,-69,67
483,-15226,-6,748,-4745,23,-173,-85,65
484,-15110,-58,674,-4727,23,-171,-75,69
485,-15078,0,750,-4741,23,-175,-78,74
486,-15154,-70,724,-4732,23,-170,-76,69
487,-15134,-38,766,-4726,23,-179,-70,72
488,-15152,-18,696,-4734,23,-168,-87,70
489,-15190,-8,788,-4722,23,-170,-78,65
490,-15202,58,636,-4737,23,-180,-80,68
491,-15118,-18,898,-4731,23,-169,-82,73
492,-15214,14,838,-4729,23,-178,-75,67
493,-15114,-36,694,-4750,23,-180,-83,69
494,-15152,10,752,-4738,23,-175,-80,66
495,-15138,-26,758,-4750,23,-176,-76,67
496,-15116,-56,804,-4735,23,-167,-76,73
497,-15160,-38,718,-4742,23,-171,-76,65
498,-15158,-8,934,-4730,23,-174,-77,74
499,-15182,-10,686,-4742,23,-174,-78,74
500,-15220,12,928,-4744,23,-173,-79,59
501,-15168,22,888,-4745,23,-169,-71,66
502,-15160,0,876,-4732,23,-168,-80,69
503,-15182,-70,740,-4734,23,-172,-73,67
504,-15178,-8,732,-4736,23,-162,-72,68
505,-15160,34,812,-4736,23,-174,-75,72
506,-15054,-12,752,-4732,23,-171,-72,63
507,-15180,8,820,-4738,23,-174,-74,64
508,-15142,-60,722,-4739,23,-163,-74,69
509,-15112,74,706,-4717,23,-164,-69,68
510,-15062,-62,844,-4725,23,-175,-89,67
511,-15164,22,778,-4730,23,-167,-76,76
512,-15100,20,738,-4725,23,-175,-74,70
513,-15156,-4,764,-4729,23,-172,-75,70
514,-15178,-98,710,-4730,23,-168,-72,72
515,-15110,-58,684,-4737,23,-165,-82,72
516,-15188,14,784,-4730,23,-171,-76,76
517,-15116,18,770,-4739,23,-173,-87,70
518,-15170,-58,744,-4731,23,-171,-78,72
519,-15166,-30,584,-4737,23,-170,-81,65
520,-15130,-82,788,-4728,23,-171,-78,72
521,-15230,-10,794,-4741,23,-170,-87,67
522,-15168,-44,808,-4748,23,-173,-78,66
523,-15188,-12,784,-4732,23,-163,-79,69
524,-15148,-42,848,-4729,23,-181,-77,71
525,-15144,34,704,-4739,23,-168,-80,69
526,-15210,-36,812,-4729,23,-168,-69,66
527,-15066,78,640,-4737,23,-163,-77,67
528,-15216,52,686,-4724,23,-167,-80,63
529,-15172,-22,794,-4730,23,-182,-76,69
530,-15082,4,712,-4739,23,-162,-74,66
531,-15210,-60,792,-4735,23,-184,-79,71
532,-15140,-8,840,-4732,23,-170,-80,67
533,-15138,-18,662,-4740,23,-177,-68,67
534,-15154,36,742,-4723,23,-168,-71,71
535,-15142,-38,662,-4733,23,-170,-76,71
536,-15202,-16,876,-4737,23,-169,-79,72
537,-15164,-40,716,-4744,23,-175,-73,73
538,-15134,-6,752,-4732,23,-179,-76,75
539,-15168,6,724,-4740,23,-170,-76,63
540,-15134,-66,714,-4739,23,-171,-64,71
541,-15068,-42,762,-4732,23,-167,-82,66
542,-15094,-54,716,-4748,23,-170,-77,70
543,-15202,-52,818,-4741,23,-175,-72,70
544,-15088,-76,776,-4744,23,-167,-75,62
545,-15212,-32,716,-4725,23,-167,-82,75
546,-15172,-48,702,-4731,23,-173,-72,72
547,-15154,-40,756,-4730,23,-174,-75,72
548,-15084,12,758,-4728,23,-180,-79,74
549,-15196,-60,740,-4731,23,-177,-72,64
550,-15130,44,760,-4741,23,-189,-80,66
551,-15164,14,774,-4729,23,-168,-88,72
552,-15122,-26,792,-4752,23,-168,-78,70
553,-15178,34,760,-4745,23,-175,-74,68
554,-15116,-62,728,-4710,23,-174,-74,66
555,-15150,-36,786,-4727,23,-174,-68,78
556,-15166,-48,778,-4732,23,-169,-70,72
557,-15138,10,766,-4731,23,-167,-65,61
558,-15102,-36,770,-4738,23,-170,-70,70
559,-15172,16,812,-4731,23,-175,-68,67
560,-15144,-50,664,-4738,23,-179,-75,70
561,-15104,94,754,-4731,23,-172,-74,68
562,-15128,42,750,-4731,23,-172,-82,64
563,-15136,-6,830,-4730,23,-173,-75,77
564,-15188,-14,718,-4730,23,-170,-70,70
565,-15174,-74,702,-4729,23,-183,-80,63
566,-15158,42,796,-4723,23,-170,-74,67
567,-15212,-62,632,-4726,23,-173,-77,70
568,-15196,24,712,-4722,23,-174,-76,71
569,-15108,-18,694,-4734,23,-175,-86,64
570,-15190,-28,712,-4723,23,-177,-76,74
571,-15144,-44,762,-4723,23,-176,-72,65
572,-15204,-34,688,-4730,23,-183,-89,67
573,-15176,-84,580,-4731,23,-178,-75,72
574,-15146,40,694,-4737,23,-172,-75,77
575,-15218,-120,744,-4729,23,-165,-74,64
576,-15206,-8,804,-4735,23,-174,-82,68
577,-15104,4,780,-4728,23,-175,-79,75
578,-15160,8,654,-4727,23,-173,-77,70
579,-15220,-2,892,-4734,23,-176,-72,67
580,-15152,-4,742,-4726,23,-172,-78,68
581,-15112,-52,782,-4731,23,-172,-76,73
582,-15144,-112,774,-4735,23,-174,-65,72
583,-15094,-34,744,-4733,23,-184,-74,73
584,-15128,24,758,-4745,23,-165,-80,62
585,-15184,-128,636,-4725,23,-177,-75,56
586,-15206,-4,708,-4739,23,-176,-79,75
587,-15156,72,766,-4741,23,-176,-83,72
588,-15242,20,778,-4731,23,-172,-77,70
589,-15134,-84,764,-4737,23,-180,-79,55
590,-15176,-84,630,-4736,23,-170,-81,68
591,-15098,-64,790,-4731,23,-178,-72,70
592,-15122,34,836,-4738,23,-166,-75,68
593,-15142,116,682,-4733,23,-170,-76,75
594,-15120,-76,708,-4727,23,-176,-69,67
595,-15120,-50,722,-4740,23,-179,-73,77
596,-15168,-18,688,-4735,23,-167,-73,71
597,-15158,-20,728,-4724,23,-177,-67,63
598,-15114,-6,804,-4729,23,-175,-82,73
599,-15154,-32,750,-4747,23,-174,-88,64
600,-15146,-4,730,-4735,23,-168,-80,66
601,-15158,-70,702,-4723,23,-165,-73,70
602,-15210,-64,760,-4727,23,-170,-86,71
603,-15170,38,822,-4728,23,-172,-83,63
604,-15166,-22,758,-4733,23,-181,-71,75
605,-15240,-6,772,-4743,23,-175,-75,61
606,-15198,-82,686,-4732,23,-165,-72,69
607,-15196,-16,660,-4738,23,-168,-81,61
608,-15162,-48,724,-4720,23,-168,-80,70
609,-15146,-24,752,-4733,23,-173,-81,70
610,-15160,-10,768,-4724,23,-166,-65,70
611,-15104,-40,846,-4733,23,-172,-75,68
612,-15130,18,690,-4733,23,-177,-87,65
613,-15186,-50,710,-4732,23,-179,-74,73
614,-15146,14,792,-4728,23,-176,-73,63
615,-15136,0,764,-4734,23,-165,-70,74
616,-15180,-16,768,-4734,23,-171,-71,61
617,-15118,-12,732,-4732,23,-167,-76,78
618,-15176,-4,748,-4746,23,-178,-76,75
619,-15110,-92,820,-4731,23,-181,-84,71
620,-15250,-8,688,-4720,23,-166,-88,70
621,-15114,-76,808,-4743,23,-168,-78,65
622,-15130,16,826,-4718,23,-172,-82,67
623,-15198,30,714,-4739,23,-176,-81,67
624,-15204,-70,750,-4727,23,-168,-80,74
625,-15136,-48,698,-4733,23,-175,-81,65
626,-15136,-102,664,-4733,23,-163,-76,67
627,-15086,0,742,-4731,23,-175,-82,63
628,-15176,6,744,-4728,23,-169,-82,70
629,-15106,-8,730,-4722,23,-174,-72,74
630,-15172,8,772,-4733,23,-169,-68,71
631,-15116,-20,668,-4742,23,-173,-77,71
632,-15164,-16,846,-4737,23,-170,-69,61
633,-15144,-30,890,-4722,23,-182,-80,70
634,-15056,-6,688,-4738,23,-174,-72,72
635,-15180,4,756,-4722,23,-176,-74,73
636,-15212,-8,770,-4737,23,-174,-87,72
637,-15166,-28,740,-4728,23,-170,-66,69
638,-15140,-34,772,-4734,23,-163,-71,75
639,-15122,38,708,-4730,23,-170,-77,71
640,-15168,-28,622,-4737,23,-170,-78,68
641,-15132,10,726,-4729,23,-178,-75,68
642,-15228,-58,798,-4727,23,-178,-75,76
643,-15052,12,760,-4737,23,-162,-74,63
644,-15170,-50,578,-4741,23,-178,-68,63
645,-15182,24,650,-4730,23,-166,-81,68
646,-15096,-28,784,-4735,23,-179,-82,73
647,-15120,-22,756,-4734,23,-175,-72,72
648,-15144,42,854,-4725,23,-168,-84,81
649,-15210,-44,632,-4724,23,-163,-86,67
650,-15088,38,742,-4732,23,-176,-78,65
651,-15230,-16,782,-4742,23,-173,-62,74
652,-15178,10,846,-4727,23,-166,-82,72
653,-15098,-28,770,-4739,23,-179,-77,72
654,-15174,40,676,-4738,23,-168,-78,74
655,-15192,36,734,-4727,23,-175,-78,71
656,-15142,14,696,-4722,23,-162,-75,57
657,-15198,76,776,-4731,23,-181,-74,71
658,-15106,-62,752,-4724,23,-180,-76,64
659,-15104,58,724,-4738,23,-171,-76,70
660,-15054,-44,840,-4730,23,-173,-69,72
661,-15084,-60,804,-4737,23,-169,-66,68
662,-15142,-2,738,-4731,23,-172,-80,68
663,-15162,10,774,-4730,23,-184,-76,68
664,-15100,6,674,-4735,23,-175,-66,71
665,-15146,-44,664,-4719,23,-174,-75,67
666,-15194,-22,746,-4729,23,-172,-83,72
667,-15118,-28,770,-4720,23,-167,-79,66
668,-15138,-42,714,-4723,23,-173,-73,72
669,-15116,-70,830,-4730,23,-164,-68,65
670,-15078,-30,642,-4731,23,-173,-73,68
671,-15116,6,674,-4734,23,-171,-81,70
672,-15182,-80,738,-4742,23,-164,-76,75
673,-15178,-6,770,-4736,23,-170,-76,74
674,-15124,-52,736,-4729,23,-176,-79,59
675,-15138,-70,810,-4732,23,-171,-82,79
676,-15112,-8,836,-4743,23,-170,-72,70
677,-15054,40,772,-4730,23,-176,-78,72
678,-15134,-32,658,-4734,23,-169,-77,69
679,-15120,2,704,-4721,23,-178,-76,70
680,-15160,-18,722,-4731,23,-173,-73,67
681,-15188,78,806,-4724,23,-172,-78,68
682,-15088,-38,642,-4735,23,-171,-82,73
683,-15100,-34,784,-4727,23,-175,-78,66
684,-15180,-24,740,-4741,23,-173,-79,68
685,-15152,-10,698,-4731,23,-165,-83,73
686,-15186,-42,750,-4745,23,-169,-83,65
687,-15172,-38,778,-4720,23,-173,-77,60
688,-15104,14,798,-4730,23,-171,-70,74
689,-15146,-86,734,-4725,23,-179,-80,68
690,-15226,-92,744,-4728,23,-174,-77,71
691,-15202,-32,726,-4728,23,-169,-81,72
692,-15172,34,750,-4735,23,-171,-82,74
693,-15116,-26,714,-4742,23,-177,-75,66
694,-15164,-64,710,-4732,23,-165,-83,74
695,-15172,40,762,-4726,23,-175,-76,75
696,-15176,50,666,-4728,23,-171,-74,71
697,-15132,-4,764,-4736,23,-166,-71,68
698,-15188,4,838,-4733,23,-170,-78,73
699,-15102,88,870,-4728,23,-167,-66,72
700,-15128,50,754,-4727,23,-164,-75,72
701,-15162,-4,780,-4727,23,-178,-76,65
702,-15208,-46,818,-4740,23,-180,-84,67
703,-15152,-72,570,-4750,23,-180,-80,68
704,-15206,-34,672,-4733,23,-168,-75,72
705,-15222,-72,600,-4730,23,-175,-77,79
706,-15132,14,848,-4727,23,-166,-75,64
707,-15110,16,766,-4722,23,-168,-66,72
708,-15206,30,696,-4734,23,-167,-72,69
709,-15160,84,694,-4742,23,-168,-74,77
710,-15168,-28,794,-4725,23,-183,-80,60
711,-15150,-14,712,-4708,23,-184,-81,69
712,-15116,38,742,-4730,23,-177,-70,70
713,-15036,-56,672,-4737,23,-175,-81,62
714,-15130,-74,790,-4730,23,-177,-71,75
715,-15162,68,772,-4730,23,-170,-74,59
716,-15178,28,612,-4739,23,-175,-75,70
717,-15036,4,776,-4735,23,-172,-78,64
718,-15134,-22,668,-4724,23,-182,-83,70
719,-15120,-36,732,-4725,23,-171,-81,72
720,-15098,-72,748,-4737,23,-176,-76,76
721,-15112,-46,624,-4728,23,-166,-70,69
722,-15134,-8,706,-4728,23,-171,-82,70
723,-15076,50,796,-4729,23,-181,-79,71
724,-15118,-30,752,-4718,23,-170,-82,69
725,-15100,-66,752,-4741,23,-172,-82,74
726,-15046,12,776,-4716,23,-178,-78,73
727,-15170,-40,706,-4727,23,-170,-82,64
728,-15136,-36,706,-4730,23,-176,-76,67
729,-15172,-24,656,-4725,23,-170,-82,63
730,-15106,70,728,-4738,23,-181,-84,63
731,-15134,-54,806,-4729,23,-168,-77,73
732,-15136,-74,798,-4716,23,-182,-84,64
733,-15146,4,652,-4731,23,-172,-77,67
734,-15216,26,692,-4733,23,-177,-71,73
735,-15132,-66,742,-4731,23,-172,-82,75
736,-15092,48,754,-4731,23,-171,-76,69
737,-15206,-14,684,-4733,23,-169,-76,72
738,-15230,-32,832,-4727,23,-169,-81,67
739,-15228,-50,716,-4745,23,-170,-71,68
740,-15184,24,782,-4722,23,-176,-77,65
741,-15072,-2,706,-4731,23,-167,-63,68
742,-15234,16,754,-4719,23,-165,-77,58
743,-15130,-94,890,-4736,23,-176,-79,57
744,-15098,28,582,-4733,23,-179,-82,52
745,-15050,-112,668,-4727,23,-174,-76,72
746,-15136,30,854,-4725,23,-172,-75,68
747,-15120,2,698,-4718,23,-168,-82,70
748,-15184,14,656,-4727,23,-172,-74,67
749,-15068,-6,730,-4729,23,-181,-71,79
750,-15150,-10,770,-4740,23,-176,-68,68
751,-15210,-2,826,-4727,23,-169,-72,72
752,-15116,-18,834,-4736,23,-169,-66,70
753,-15102,16,758,-4729,23,-176,-79,67
754,-15126,88,814,-4733,23,-175,-75,72
755,-15208,18,736,-4736,23,-178,-75,66
756,-15184,-90,626,-4737,23,-168,-70,57
757,-15118,-16,768,-4735,23,-177,-75,71
758,-15120,-56,652,-4722,23,-163,-79,67
759,-15218,34,714,-4722,23,-170,-79,69
760,-15172,-62,738,-4731,23,-180,-83,72
761,-15130,-54,662,-4730,23,-171,-75,66
762,-15122,-34,762,-4733,23,-172,-76,73
763,-15154,-40,792,-4723,23,-179,-73,62
764,-15174,-36,682,-4728,23,-174,-79,70
765,-15092,-46,710,-4739,23,-168,-79,67
766,-15234,-40,818,-4736,23,-171,-88,54
767,-15198,44,776,-4720,23,-174,-69,63
768,-15112,-94,770,-4736,23,-169,-74,73
769,-15148,-48,728,-4740,23,-172,-79,65
770,-15216,26,792,-4720,23,-175,-80,72
771,-15102,10,664,-4731,23,-171,-64,72
772,-15236,-78,738,-4735,23,-171,-74,72
773,-15130,-18,662,-4734,23,-170,-79,68
774,-15148,-32,694,-4724,23,-175,-84,65
775,-15144,68,720,-4731,23,-182,-75,82
776,-15060,16,746,-4733,23,-175,-71,62
777,-15092,-66,824,-4730,23,-165,-80,68
778,-15138,-76,758,-4735,23,-176,-81,73
779,-15144,-116,860,-4725,23,-175,-76,67
780,-15186,0,802,-4732,23,-173,-77,71
781,-15132,-90,676,-4720,23,-161,-81,63
782,-15108,56,742,-4717,23,-172,-78,75
783,-15146,20,766,-4736,23,-188,-80,72
784,-15130,-46,772,-4738,23,-171,-69,68
785,-15156,34,644,-4738,23,-175,-79,71
786,-15154,2,772,-4735,23,-162,-72,76
787,-15198,14,778,-4728,23,-172,-80,70
788,-15120,-8,924,-4732,23,-170,-70,71
789,-15104,-38,752,-4734,23,-169,-80,69
790,-15140,-56,766,-4728,23,-177,-72,68
791,-15140,-16,776,-4726,23,-164,-67,79
792,-15166,36,722,-4734,23,-170,-76,62
793,-15102,-60,808,-4729,23,-175,-81,71
794,-15256,14,726,-4746,23,-172,-71,71
795,-15076,52,724,-4737,23,-173,-66,68
796,-15172,44,676,-4728,23,-174,-82,77
797,-15134,-34,762,-4725,23,-178,-77,73
798,-15174,-12,760,-4723,23,-159,-81,68
799,-15160,-16,734,-4742,23,-173,-76,71
800,-15142,-70,792,-4734,23,-174,-84,68
801,-15214,20,694,-4721,23,-165,-77,69
802,-15240,-120,744,-4731,23,-171,-83,66
803,-15200,28,812,-4731,23,-170,-69,68
804,-15078,44,726,-4720,23,-173,-80,71
805,-15158,-64,808,-4739,23,-177,-82,63
806,-15176,-88,678,-4725,23,-169,-68,69
807,-15100,-82,736,-4729,23,-173,-73,73
808,-15114,26,748,-4736,23,-171,-66,68
809,-15160,-74,842,-4733,23,-176,-77,79
810,-15068,-60,814,-4720,23,-172,-83,66
811,-15188,-30,714,-4713,23,-172,-76,60
812,-15204,50,750,-4733,23,-180,-77,76
813,-15096,-74,870,-4729,23,-177,-64,61
814,-15134,-100,778,-4732,23,-170,-82,66
815,-15096,-10,762,-4729,23,-171,-78,70
816,-15132,30,736,-4728,23,-182,-70,71
817,-15236,-54,702,-4725,23,-171,-71,78
818,-15188,-44,674,-4723,23,-162,-81,62
819,-15100,38,678,-4734,23,-173,-72,70
820,-15134,62,692,-4733,23,-171,-69,71
821,-15170,-74,798,-4723,23,-173,-79,70
822,-15158,-44,666,-4723,23,-170,-69,66
823,-15196,6,758,-4732,23,-161,-79,66
824,-15126,8,752,-4730,23,-170,-81,65
825,-15146,34,880,-4739,23,-177,-71,65
826,-15078,16,862,-4727,23,-169,-76,70
827,-15206,-14,746,-4734,23,-170,-73,68
828,-15090,14,706,-4726,23,-175,-76,60
829,-15114,-10,660,-4720,23,-175,-70,67
830,-15176,-36,776,-4715,23,-168,-80,68
831,-15184,-20,562,-4732,23,-179,-72,72
832,-15152,0,696,-4736,23,-172,-74,63
833,-15210,-68,744,-4736,23,-168,-74,73
834,-15202,-34,744,-4728,23,-168,-80,65
835,-15186,-30,652,-4718,23,-170,-80,78
836,-15144,-38,762,-4735,23,-168,-77,65
837,-15182,-20,758,-4725,23,-167,-69,62
838,-15160,4,752,-4731,23,-171,-75,65
839,-15186,-44,692,-4721,23,-177,-71,71
840,-15158,-34,746,-4720,23,-170,-66,73
841,-15124,-32,736,-4722,23,-179,-79,73
842,-15178,82,798,-4735,23,-172,-67,65
843,-15092,-16,810,-4732,23,-171,-76,70
844,-15132,-58,788,-4719,23,-177,-71,73
845,-15156,40,790,-4725,23,-171,-81,73
846,-15134,4,762,-4725,23,-168,-65,58
847,-15086,-2,658,-4733,23,-172,-88,59
848,-15124,0,714,-4729,23,-170,-80,65
849,-15120,-8,742,-4738,23,-169,-74,78
850,-15106,-8,634,-4720,23,-174,-74,68
851,-15110,-26,780,-4726,23,-172,-76,69
852,-15148,-30,900,-4735,23,-168,-81,68
853,-15164,-28,746,-4731,23,-171,-77,60
854,-15108,2,772,-4719,23,-167,-79,72
855,-15154,-52,892,-4729,23,-175,-79,67
856,-15120,-20,820,-4733,23,-179,-77,71
857,-15108,48,770,-4739,23,-174,-82,72
858,-15100,2,674,-4732,23,-164,-75,73
859,-15176,-28,764,-4729,23,-172,-70,66
860,-15122,-84,814,-4731,23,-174,-76,60
861,-15258,-10,688,-4733,23,-169,-72,63
862,-15192,-62,762,-4729,23,-174,-75,67
863,-15096,18,792,-4731,23,-168,-70,72
864,-15134,-30,670,-4732,23,-170,-84,71
865,-15134,-16,718,-4723,23,-163,-76,65
866,-15172,-56,748,-4728,23,-179,-66,72
867,-15160,60,670,-4734,23,-169,-84,75
868,-15166,-2,714,-4724,23,-166,-72,70
869,-15134,-62,742,-4716,23,-171,-70,75
870,-15198,-40,790,-4735,23,-172,-71,68
871,-15138,42,808,-4731,23,-178,-74,72
872,-15196,66,768,-4717,23,-169,-73,68
873,-15192,12,684,-4728,23,-167,-78,65
874,-15138,46,714,-4740,23,-166,-76,71
875,-15170,58,732,-4729,23,-163,-77,67
876,-15110,-14,772,-4739,23,-173,-74,64
877,-15202,-28,818,-4721,23,-173,-80,61
878,-15108,-38,700,-4735,23,-172,-86,69
879,-15172,-46,856,-4724,23,-165,-75,69
880,-15176,-12,634,-4727,23,-180,-77,69
881,-15096,-94,804,-4736,23,-174,-74,65
882,-15148,-24,638,-4743,23,-167,-77,67
883,-15138,-2,712,-4721,23,-170,-77,80
884,-15240,2,796,-4740,23,-167,-77,66
885,-15068,-14,718,-4725,23,-164,-74,69
886,-15074,-14,670,-4734,23,-166,-77,68
887,-15216,-32,692,-4735,23,-170,-76,67
888,-15124,-12,730,-4739,23,-176,-87,69
889,-15168,-146,748,-4717,23,-177,-81,68
890,-15078,88,800,-4735,23,-167,-68,61
891,-15182,66,670,-4719,23,-163,-85,65
892,-15194,-12,702,-4706,23,-171,-77,68
893,-15198,-26,696,-4745,23,-180,-82,72
894,-15202,34,694,-4723,23,-176,-76,66
895,-15126,-36,818,-4714,23,-173,-76,71
896,-15158,-40,760,-4727,23,-176,-76,63
897,-15084,-2,720,-4726,23,-186,-78,65
898,-15058,-112,734,-4728,23,-172,-71,72
899,-15166,6,726,-4717,23,-170,-80,66
900,-15212,-30,790,-4723,23,-170,-80,69
901,-15124,70,838,-4735,23,-171,-73,64
902,-15200,56,770,-4719,23,-174,-76,71
903,-15112,12,750,-4721,23,-174,-84,72
904,-15180,-24,786,-4723,23,-178,-75,64
905,-15136,-40,738,-4725,23,-169,-67,64
906,-15186,58,790,-4727,23,-171,-74,75
907,-15156,8,686,-4718,23,-181,-72,64
908,-15164,26,682,-4730,23,-183,-74,73
909,-15234,20,702,-4730,23,-167,-76,71
910,-15204,-80,852,-4731,23,-176,-79,73
911,-15140,-18,798,-4738,23,-168,-81,70
912,-15196,20,744,-4724,23,-179,-80,75
913,-15246,-16,662,-4716,23,-178,-73,72
914,-15210,36,782,-4727,23,-177,-82,61
915,-15170,-56,716,-4729,23,-172,-75,66
916,-15116,-24,736,-4733,23,-165,-80,67
917,-15154,-116,772,-4715,23,-170,-84,66
918,-15176,-20,728,-4715,23,-171,-75,68
919,-15182,-22,802,-4727,23,-178,-72,62
920,-15106,-14,856,-4714,23,-175,-78,67
921,-15160,-10,650,-4722,23,-171,-77,62
922,-15034,20,708,-4714,23,-169,-76,70
923,-15098,-24,712,-4716,23,-174,-79,65
924,-15132,-50,820,-4728,23,-170,-84,78
925,-15234,-10,764,-4717,23,-168,-68,67
926,-15142,98,822,-4731,23,-177,-80,73
927,-15104,34,708,-4730,23,-168,-75,68
928,-15232,-52,748,-4732,23,-179,-78,69
929,-15146,-72,692,-4738,23,-171,-76,68
930,-15128,-8,792,-4735,23,-180,-72,70
931,-15176,50,782,-4729,23,-180,-69,58
932,-15190,-36,636,-4736,23,-172,-76,74
933,-15148,10,692,-4734,23,-179,-74,79
934,-15132,-28,716,-4731,23,-173,-75,71
935,-15114,-78,748,-4735,23,-178,-71,74
936,-15194,-50,776,-4722,23,-178,-73,67
937,-15140,82,704,-4737,23,-170,-66,75
938,-15174,-8,722,-4723,23,-166,-82,67
939,-15108,24,734,-4737,23,-173,-79,70
940,-15184,4,670,-4715,23,-175,-72,74
941,-15130,-22,724,-4732,23,-174,-79,69
942,-15246,6,756,-4725,23,-169,-75,70
943,-15048,48,716,-4730,23,-159,-69,70
944,-15218,-66,738,-4722,23,-174,-77,69
945,-15126,8,674,-4736,23,-179,-76,71
946,-15080,-42,832,-4727,23,-176,-75,52
947,-15126,-82,712,-4735,23,-178,-78,73
948,-15140,90,712,-4724,23,-174,-86,68
949,-15192,-54,662,-4717,23,-178,-84,67
950,-15188,44,802,-4730,23,-177,-85,68
951,-15184,-24,686,-4742,23,-175,-86,78
952,-15186,-42,764,-4733,23,-169,-72,65
953,-15138,-82,670,-4718,23,-170,-80,61
954,-15110,-20,782,-4729,23,-175,-77,64
955,-15214,-30,740,-4730,23,-177,-83,68
956,-15268,16,854,-4714,23,-179,-79,64
957,-15100,-56,738,-4731,23,-169,-71,67
958,-15178,-24,796,-4726,23,-178,-75,65
959,-15144,-48,762,-4721,23,-174,-78,72
960,-15164,-88,658,-4726,23,-166,-82,74
961,-15152,20,820,-4720,23,-171,-75,67
962,-15176,-66,750,-4725,23,-176,-84,65
963,-15124,-24,814,-4718,23,-173,-93,69
964,-15154,-54,758,-4726,23,-166,-70,70
965,-15170,12,648,-4726,23,-172,-76,74
966,-15118,-42,738,-4718,23,-168,-68,63
967,-15146,-16,902,-4713,23,-169,-69,70
968,-15180,40,686,-4731,23,-170,-81,81
969,-15128,32,834,-4722,23,-175,-80,81
970,-15194,-96,668,-4730,23,-175,-82,69
971,-15190,-54,790,-4730,23,-173,-73,69
972,-15086,-8,640,-4737,23,-170,-73,67
973,-15170,-68,736,-4736,23,-173,-78,77
974,-15098,8,796,-4731,23,-168,-73,71
975,-15216,18,742,-4729,23,-180,-74,66
976,-15158,0,768,-4717,23,-171,-84,70
977,-15180,20,730,-4729,23,-174,-76,72
978,-15118,40,896,-4722,23,-169,-76,65
979,-15210,-104,792,-4723,23,-174,-72,63
980,-15140,12,752,-4732,23,-179,-70,66
981,-15184,-10,842,-4729,23,-181,-79,69
982,-15092,42,684,-4733,23,-181,-75,71
983,-15222,24,772,-4733,23,-175,-75,71
984,-15138,-70,762,-4721,23,-179,-80,69
985,-15156,-14,716,-4726,23,-168,-73,69
986,-15126,26,724,-4748,23,-162,-78,73
987,-15128,-14,730,-4724,23,-173,-71,69
988,-15064,-22,730,-4723,23,-168,-80,71
989,-15162,-26,652,-4723,23,-170,-67,72
990,-15154,4,774,-4714,23,-172,-81,69
991,-15084,-34,744,-4729,23,-171,-82,69
992,-15112,-42,642,-4713,23,-170,-76,72
993,-15134,36,790,-4729,23,-178,-78,68
994,-15074,-42,774,-4746,23,-172,-75,75
995,-15094,-50,786,-4731,23,-164,-70,65
996,-15150,14,686,-4733,23,-169,-83,72
997,-15224,26,796,-4746,23,-159,-70,70
998,-15158,18,682,-4717,23,-177,-64,72
