,acc_X,acc_Y,acc_Z,temp,tempC,gyr_X,gyr_Y,gyr_Z
0,-7589,-10,378,-4646,23,-179,-72,68
1,-7570,-29,357,-4649,23,-177,-76,69
2,-7576,-24,383,-4650,23,-174,-79,69
3,-7583,-12,370,-4642,23,-172,-79,69
4,-7580,-4,374,-4640,23,-173,-79,70
5,-7587,0,370,-4646,23,-176,-74,69
6,-7577,-12,376,-4642,23,-174,-77,68
7,-7578,-18,372,-4644,23,-174,-75,71
8,-7581,-2,374,-4649,23,-176,-74,70
9,-7588,-11,366,-4646,23,-179,-74,70
10,-7582,-24,364,-4646,23,-173,-73,70
11,-7583,-6,366,-4646,23,-177,-76,69
12,-7570,4,375,-4649,23,-180,-75,69
13,-7571,8,378,-4647,23,-177,-76,67
14,-7563,-2,368,-4645,23,-177,-76,69
15,-7570,4,404,-4643,23,-175,-73,71
16,-7570,-4,393,-4644,23,-175,-76,71
17,-7565,0,374,-4649,23,-175,-75,71
18,-7573,-5,364,-4648,23,-173,-73,73
19,-7584,4,364,-4649,23,-176,-77,73
20,-7586,6,377,-4642,23,-177,-76,71
21,-7589,-6,358,-4641,23,-176,-75,74
22,-7577,-13,374,-4642,23,-176,-78,70
23,-7579,-9,370,-4647,23,-177,-78,68
24,-7585,12,374,-4652,23,-174,-74,69
25,-7590,-7,370,-4649,23,-174,-76,70
26,-7571,-24,369,-4640,23,-174,-77,72
27,-7571,-4,356,-4651,23,-173,-76,71
28,-7560,-9,361,-4646,23,-176,-76,70
29,-7571,-5,385,-4646,23,-172,-78,71
30,-7584,0,388,-4640,23,-172,-77,71
31,-7585,-6,416,-4644,23,-173,-73,72
32,-7584,-17,393,-4646,23,-174,-77,72
33,-7600,-8,385,-4647,23,-174,-77,71
34,-7575,-6,403,-4645,23,-178,-78,73
35,-7590,-3,387,-4645,23,-173,-77,70
36,-7581,-14,388,-4643,23,-175,-74,70
37,-7563,-2,370,-4647,23,-174,-74,69
38,-7560,-15,358,-4651,23,-174,-76,67
39,-7587,5,357,-4640,23,-171,-75,70
40,-7574,2,374,-4642,23,-175,-79,71
41,-7564,3,395,-4643,23,-175,-78,71
42,-7573,-4,391,-4645,23,-173,-79,68
43,-7577,-3,375,-4650,23,-175,-79,68
44,-7578,-9,386,-4651,23,-174,-75,67
45,-7580,-9,384,-4651,23,-177,-75,69
46,-7569,5,398,-4645,23,-173,-77,68
47,-7581,-5,394,-4645,23,-176,-76,69
48,-7585,-6,389,-4640,23,-175,-78,67
49,-7590,-5,370,-4646,23,-173,-78,69
50,-7575,-25,391,-4644,23,-175,-77,67
51,-7587,-14,370,-4643,23,-173,-78,68
52,-7577,4,366,-4643,23,-175,-77,70
53,-7586,5,361,-4643,23,-174,-75,68
54,-7582,-14,370,-4641,23,-176,-76,70
55,-7572,-6,359,-4643,23,-178,-74,67
56,-7567,-6,356,-4645,23,-176,-81,68
57,-7580,-4,375,-4638,23,-173,-77,68
58,-7571,-17,369,-4639,23,-175,-79,69
59,-7577,-17,388,-4643,23,-171,-81,68
60,-7578,-13,370,-4644,23,-171,-74,69
61,-7574,7,349,-4644,23,-174,-81,69
62,-7580,-2,379,-4646,23,-174,-81,69
63,-7584,-10,393,-4646,23,-178,-78,70
64,-7577,-14,386,-4643,23,-176,-79,69
65,-7583,4,382,-4642,23,-174,-77,71
66,-7583,-1,381,-4644,23,-176,-74,73
67,-7579,4,360,-4640,23,-173,-76,75
68,-7562,2,354,-4639,23,-174,-79,70
69,-7559,-5,370,-4641,23,-173,-79,70
70,-7575,-2,353,-4640,23,-172,-77,71
71,-7591,-17,384,-4643,23,-176,-79,71
72,-7580,-1,405,-4643,23,-176,-77,70
73,-7579,-2,384,-4642,23,-174,-76,70
74,-7574,4,380,-4646,23,-175,-76,73
75,-7580,-21,384,-4643,23,-175,-76,71
76,-7575,-8,382,-4645,23,-178,-75,70
77,-7580,-4,361,-4641,23,-174,-76,69
78,-7586,8,367,-4648,23,-175,-76,72
79,-7586,1,357,-4647,23,-176,-78,71
80,-7585,0,376,-4644,23,-173,-75,68
81,-7582,-16,366,-4638,23,-172,-77,69
82,-7586,-6,390,-4641,23,-175,-73,70
83,-7583,-3,375,-4642,23,-176,-75,71
84,-7571,0,358,-4640,23,-175,-76,68
85,-7578,-3,364,-4641,23,-179,-77,69
86,-7565,-22,359,-4642,23,-177,-76,69
87,-7579,-5,383,-4644,23,-174,-77,73
88,-7577,-1,383,-4648,23,-176,-78,71
89,-7580,2,398,-4643,23,-178,-80,74
90,-7576,3,384,-4641,23,-180,-78,73
91,-7578,5,382,-4644,23,-177,-77,71
92,-7560,3,376,-4643,23,-172,-77,70
93,-7566,1,385,-4644,23,-172,-76,71
94,-7571,-9,382,-4642,23,-173,-77,71
95,-7577,0,384,-4645,23,-176,-78,72
96,-7581,5,382,-4638,23,-174,-77,72
97,-7580,12,405,-4641,23,-174,-76,74
98,-7590,-7,400,-4641,23,-173,-77,70
99,-7591,-8,406,-4637,23,-175,-74,68
100,-7580,3,393,-4638,23,-178,-79,71
101,-7585,-6,375,-4634,23,-177,-82,74
102,-7590,-1,392,-4635,23,-177,-80,72
103,-7591,-2,383,-4638,23,-174,-81,70
104,-7580,-11,382,-4632,23,-174,-78,69
105,-7560,-4,365,-4635,23,-171,-80,69
106,-7580,-20,362,-4635,23,-174,-77,70
107,-7575,-31,386,-4638,23,-174,-75,70
108,-7566,-4,372,-4637,23,-174,-78,71
109,-7564,-8,386,-4638,23,-174,-76,72
110,-7567,0,383,-4640,23,-173,-78,74
111,-7568,-4,379,-4642,23,-174,-78,70
112,-7557,-3,377,-4642,23,-172,-79,71
113,-7555,-19,392,-4635,23,-173,-75,69
114,-7576,-8,375,-4639,23,-175,-75,70
115,-7575,1,395,-4641,23,-176,-76,69
116,-7592,1,371,-4644,23,-175,-77,69
117,-7581,-5,369,-4639,23,-175,-77,68
118,-7578,-3,371,-4638,23,-171,-77,69
119,-7580,-19,361,-4641,23,-173,-75,70
120,-7574,-11,362,-4645,23,-174,-76,69
121,-7577,4,383,-4645,23,-175,-77,69
122,-7573,-11,368,-4643,23,-174,-79,70
123,-7579,0,395,-4638,23,-172,-82,70
124,-7588,-16,379,-4635,23,-172,-79,71
125,-7582,-10,349,-4644,23,-173,-73,70
126,-7578,1,375,-4644,23,-171,-76,69
127,-7576,-3,390,-4641,23,-175,-73,71
128,-7573,-1,390,-4641,23,-178,-74,68
129,-7577,-6,379,-4643,23,-174,-78,72
130,-7580,-5,392,-4640,23,-176,-80,69
131,-7582,-7,404,-4642,23,-174,-78,71
132,-7583,4,384,-4642,23,-174,-81,68
133,-7568,6,387,-4641,23,-176,-77,69
134,-7573,-7,355,-4644,23,-175,-73,71
135,-7561,-2,340,-4641,23,-170,-75,72
136,-7579,9,364,-4643,23,-172,-76,71
137,-7580,-6,378,-4642,23,-173,-77,75
138,-7579,-4,372,-4643,23,-170,-79,70
139,-7572,-24,372,-4647,23,-170,-78,72
140,-7577,-19,373,-4646,23,-173,-77,72
141,-7580,-21,375,-4647,23,-173,-76,67
142,-7566,-16,385,-4646,23,-174,-79,68
143,-7580,-9,396,-4650,23,-176,-80,71
144,-7576,0,385,-4646,23,-176,-76,70
145,-7565,1,389,-4644,23,-177,-78,71
146,-7578,-24,374,-4642,23,-175,-80,70
147,-7580,-12,374,-4640,23,-174,-78,71
148,-7573,-10,377,-4635,23,-172,-79,72
149,-7557,-14,352,-4638,23,-174,-80,74
150,-7569,-8,368,-4637,23,-171,-74,72
151,-7589,-9,385,-4639,23,-171,-75,73
152,-7566,-10,388,-4637,23,-174,-76,72
153,-7577,-20,367,-4638,23,-173,-76,72
154,-7584,-1,365,-4638,23,-171,-77,69
155,-7576,10,378,-4639,23,-173,-75,68
156,-7584,-3,357,-4640,23,-177,-77,69
157,-7566,-3,381,-4639,23,-175,-73,72
158,-7593,-2,379,-4636,23,-178,-75,71
159,-7590,-6,375,-4644,23,-178,-77,70
160,-7575,-9,370,-4636,23,-173,-79,68
161,-7568,-6,367,-4636,23,-172,-77,72
162,-7575,-3,385,-4636,23,-170,-78,68
163,-7594,1,371,-4640,23,-173,-78,70
164,-7587,-7,357,-4639,23,-171,-79,72
165,-7589,14,371,-4639,23,-174,-78,69
166,-7590,-6,360,-4637,23,-176,-79,66
167,-7573,-11,398,-4639,23,-175,-77,69
168,-7570,1,360,-4636,23,-172,-78,69
169,-7584,-6,373,-4637,23,-172,-80,68
170,-7583,7,366,-4636,23,-173,-77,72
171,-7585,-9,371,-4639,23,-173,-75,73
172,-7564,4,364,-4634,23,-175,-76,70
173,-7573,7,355,-4638,23,-175,-75,69
174,-7577,0,356,-4636,23,-172,-79,69
175,-7570,-10,361,-4639,23,-175,-74,67
176,-7577,-6,392,-4635,23,-174,-77,69
177,-7571,-14,392,-4639,23,-177,-76,67
178,-7584,3,386,-4641,23,-177,-79,69
179,-7587,0,377,-4637,23,-171,-79,71
180,-7573,-6,390,-4644,23,-172,-77,67
181,-7583,-12,391,-4645,23,-172,-77,68
182,-7585,-4,390,-4643,23,-173,-73,69
183,-7583,5,367,-4643,23,-174,-72,67
184,-7577,-6,370,-4643,23,-176,-74,68
185,-7578,-12,385,-4643,23,-174,-76,67
186,-7567,3,385,-4635,23,-175,-76,67
187,-7579,3,360,-4642,23,-174,-76,68
188,-7578,-8,362,-4641,23,-174,-76,72
189,-7583,-18,385,-4638,23,-174,-75,73
190,-7583,-8,397,-4637,23,-174,-76,71
191,-7562,-5,381,-4639,23,-172,-75,69
192,-7567,-16,392,-4638,23,-172,-74,68
193,-7569,-8,393,-4641,23,-171,-76,69
194,-7580,1,389,-4640,23,-172,-78,70
195,-7577,-4,377,-4635,23,-173,-75,72
196,-7579,-1,373,-4640,23,-169,-75,72
197,-7580,-5,391,-4645,23,-172,-79,71
198,-7575,1,380,-4640,23,-173,-77,70
199,-7570,1,373,-4637,23,-176,-79,73
200,-7583,0,394,-4641,23,-177,-81,68
201,-7587,-9,379,-4644,23,-174,-77,67
202,-7585,-9,374,-4640,23,-175,-80,67
203,-7578,-19,382,-4644,23,-176,-77,69
204,-7575,-8,368,-4640,23,-173,-78,72
205,-7588,-6,367,-4643,23,-173,-78,69
206,-7588,-2,378,-4646,23,-174,-79,70
207,-7587,0,381,-4644,23,-175,-77,69
208,-7582,-14,383,-4643,23,-175,-79,72
209,-7575,-2,390,-4647,23,-174,-78,70
210,-7579,-16,382,-4642,23,-171,-77,71
211,-7558,-14,381,-4642,23,-171,-76,72
212,-7574,-17,389,-4642,23,-170,-79,70
213,-7578,-7,370,-4638,23,-171,-77,73
214,-7577,-4,362,-4638,23,-171,-78,68
215,-7594,4,356,-4636,23,-175,-73,69
216,-7585,-1,353,-4637,23,-173,-77,72
217,-7581,-11,369,-4642,23,-173,-75,69
218,-7575,-10,365,-4640,23,-174,-78,70
219,-7578,-7,353,-4646,23,-172,-77,71
220,-7582,-9,362,-4645,23,-173,-80,69
221,-7590,-5,377,-4642,23,-172,-77,68
222,-7595,-5,380,-4637,23,-175,-77,68
223,-7601,-14,367,-4639,23,-179,-76,70
224,-7585,-11,371,-4637,23,-176,-77,71
225,-7572,-12,376,-4636,23,-175,-76,69
226,-7574,-14,374,-4636,23,-174,-74,71
227,-7580,-3,367,-4640,23,-175,-77,70
228,-7569,-5,379,-4641,23,-173,-76,72
229,-7578,-12,382,-4640,23,-173,-76,70
230,-7563,0,377,-4641,23,-176,-76,72
231,-7573,-7,365,-4642,23,-176,-76,70
232,-7576,-12,357,-4640,23,-175,-80,69
233,-7578,-4,384,-4644,23,-178,-79,72
234,-7569,-12,383,-4643,23,-177,-76,73
235,-7568,-26,402,-4648,23,-174,-77,72
236,-7576,-33,374,-4640,23,-175,-78,69
237,-7586,-12,372,-4640,23,-174,-76,68
238,-7589,-15,380,-4641,23,-175,-78,68
239,-7582,-1,369,-4640,23,-173,-78,72
240,-7586,-2,381,-4643,23,-174,-77,73
241,-7577,-8,376,-4645,23,-178,-80,69
242,-7579,6,376,-4645,23,-178,-81,72
243,-7581,3,386,-4636,23,-177,-77,72
244,-7573,-5,387,-4640,23,-175,-77,70
245,-7571,-12,365,-4638,23,-173,-78,71
246,-7575,-9,388,-4637,23,-169,-77,71
247,-7582,-6,381,-4639,23,-172,-80,67
248,-7583,5,380,-4643,23,-174,-78,69
249,-7580,-10,369,-4635,23,-174,-78,69
250,-7572,3,367,-4632,23,-177,-82,72
251,-7584,-7,384,-4633,23,-175,-76,73
252,-7577,1,372,-4640,23,-176,-73,71
253,-7574,-1,365,-4643,23,-175,-76,72
254,-7560,-10,378,-4643,23,-178,-78,72
255,-7566,-1,362,-4637,23,-175,-77,71
256,-7569,-4,362,-4636,23,-174,-77,72
257,-7585,1,375,-4639,23,-174,-78,70
258,-7582,-5,375,-4639,23,-172,-76,68
259,-7579,-9,371,-4640,23,-172,-74,70
260,-7578,-12,356,-4640,23,-170,-75,68
261,-7577,-7,362,-4643,23,-172,-78,69
262,-7581,-19,356,-4642,23,-171,-79,70
263,-7581,-13,392,-4640,23,-172,-76,69
264,-7585,8,374,-4643,23,-173,-74,72
265,-7589,-8,401,-4644,23,-174,-73,72
266,-7583,-17,377,-4644,23,-173,-74,67
267,-7571,-16,378,-4650,23,-170,-74,70
268,-7576,-31,385,-4649,23,-171,-75,69
269,-7592,-19,400,-4646,23,-172,-72,68
270,-7585,-2,372,-4644,23,-175,-77,69
271,-7581,-12,374,-4640,23,-177,-75,69
272,-7581,-18,385,-4639,23,-177,-75,70
273,-7574,-4,373,-4641,23,-175,-74,67
274,-7583,-7,390,-4640,23,-174,-78,71
275,-7585,3,377,-4640,23,-174,-77,69
276,-7571,-1,402,-4640,23,-174,-76,70
277,-7559,-5,400,-4641,23,-171,-76,69
278,-7569,-7,389,-4638,23,-171,-76,68
279,-7581,1,376,-4637,23,-176,-74,69
280,-7571,-17,390,-4640,23,-177,-75,68
281,-7585,-6,362,-4642,23,-175,-74,68
282,-7579,-7,368,-4639,23,-174,-78,72
283,-7571,-5,356,-4640,23,-178,-77,72
284,-7566,2,353,-4637,23,-172,-74,74
285,-7586,3,381,-4634,23,-170,-76,71
286,-7578,-1,379,-4638,23,-174,-74,69
287,-7592,5,393,-4637,23,-176,-76,69
288,-7581,9,379,-4640,23,-176,-77,70
289,-7586,4,397,-4634,23,-175,-79,70
290,-7604,-15,396,-4638,23,-173,-77,67
291,-7581,-23,375,-4649,23,-172,-80,68
292,-7580,-19,374,-4645,23,-172,-77,68
293,-7589,-21,363,-4642,23,-173,-79,71
294,-7585,-19,371,-4643,23,-172,-74,73
295,-7572,-9,376,-4640,23,-174,-74,71
296,-7580,-9,384,-4643,23,-175,-75,70
297,-7600,2,390,-4639,23,-172,-79,70
298,-7586,3,381,-4643,23,-171,-77,71
299,-7585,-10,368,-4639,23,-175,-76,69
300,-7578,-4,359,-4641,23,-173,-79,71
301,-7565,-7,353,-4636,23,-174,-78,70
302,-7566,4,394,-4640,23,-175,-79,70
303,-7573,-6,379,-4645,23,-176,-80,69
304,-7584,7,395,-4644,23,-174,-75,71
305,-7579,-1,398,-4643,23,-175,-77,69
306,-7565,7,402,-4642,23,-173,-78,72
307,-7577,-17,373,-4637,23,-172,-80,71
308,-7582,-23,372,-4638,23,-173,-79,71
309,-7569,-22,366,-4637,23,-172,-80,71
310,-7582,-16,371,-4639,23,-172,-78,69
311,-7594,-6,364,-4640,23,-172,-80,71
312,-7582,-13,386,-4633,23,-170,-77,70
313,-7580,-5,380,-4640,23,-173,-76,72
314,-7588,-8,385,-4645,23,-173,-77,70
315,-7594,4,384,-4642,23,-173,-75,68
316,-7582,1,379,-4639,23,-173,-74,66
317,-7566,14,388,-4641,23,-174,-74,71
318,-7580,-5,370,-4633,23,-173,-74,70
319,-7582,-16,364,-4636,23,-175,-76,70
320,-7572,-16,382,-4637,23,-172,-76,69
321,-7578,-3,377,-4635,23,-169,-80,67
322,-7575,-2,378,-4639,23,-174,-80,70
323,-7576,14,354,-4637,23,-171,-78,70
324,-7584,-9,375,-4634,23,-175,-76,71
325,-7597,-15,375,-4628,23,-175,-77,68
326,-7589,-16,399,-4634,23,-175,-78,71
327,-7565,-7,383,-4643,23,-174,-73,68
328,-7581,-15,362,-4643,23,-172,-77,70
329,-7584,-17,338,-4644,23,-173,-79,70
330,-7584,-15,363,-4639,23,-174,-79,70
331,-7582,-13,367,-4640,23,-173,-76,72
332,-7571,-13,356,-4641,23,-178,-77,70
333,-7589,-8,343,-4646,23,-174,-80,68
334,-7591,-3,367,-4637,23,-174,-79,71
335,-7578,-3,356,-4635,23,-177,-78,71
336,-7587,-4,378,-4634,23,-177,-77,72
337,-7573,-15,365,-4630,23,-174,-76,69
338,-7576,-5,391,-4635,23,-175,-73,70
339,-7588,-3,372,-4641,23,-176,-77,74
340,-7574,-13,384,-4639,23,-175,-78,70
341,-7576,3,362,-4635,23,-173,-80,71
342,-7583,-13,364,-4638,23,-175,-80,73
343,-7582,2,372,-4648,23,-174,-79,71
344,-7577,-8,393,-4645,23,-176,-76,70
345,-7579,-22,366,-4639,23,-172,-76,70
346,-7580,-19,369,-4639,23,-173,-77,67
347,-7587,-5,358,-4639,23,-174,-80,67
348,-7571,-7,362,-4640,23,-174,-75,68
349,-7578,-10,357,-4641,23,-175,-76,69
350,-7582,-6,350,-4642,23,-177,-76,71
351,-7576,8,355,-4640,23,-180,-77,73
352,-7585,-5,374,-4642,23,-176,-76,72
353,-7575,-13,383,-4640,23,-177,-75,72
354,-7582,-4,403,-4641,23,-177,-76,69
355,-7589,-10,364,-4638,23,-173,-74,69
356,-7591,-10,385,-4637,23,-169,-77,67
357,-7580,-3,394,-4637,23,-170,-79,69
358,-7561,-10,406,-4637,23,-172,-78,68
359,-7573,-3,399,-4641,23,-173,-78,69
360,-7571,11,371,-4644,23,-169,-79,70
361,-7566,8,360,-4643,23,-169,-80,72
362,-7577,4,361,-4641,23,-173,-75,69
363,-7586,-4,347,-4638,23,-173,-79,69
364,-7589,11,363,-4637,23,-174,-84,71
365,-7571,6,365,-4634,23,-173,-78,71
366,-7572,2,346,-4639,23,-175,-80,69
367,-7589,-4,336,-4642,23,-175,-81,68
368,-7575,-4,360,-4640,23,-175,-79,67
369,-7580,-8,391,-4640,23,-175,-76,67
370,-7587,-12,394,-4642,23,-178,-80,70
371,-7582,-8,405,-4638,23,-174,-77,71
372,-7575,2,379,-4637,23,-174,-79,69
373,-7570,-4,389,-4638,23,-173,-79,71
374,-7568,-3,388,-4641,23,-174,-79,69
375,-7576,-17,362,-4641,23,-174,-78,70
376,-7564,-22,375,-4639,23,-175,-75,66
377,-7566,-13,356,-4642,23,-176,-73,68
378,-7575,-15,397,-4637,23,-173,-76,70
379,-7572,5,380,-4637,23,-173,-77,68
380,-7581,-5,375,-4635,23,-176,-73,67
381,-7578,-5,372,-4640,23,-175,-72,69
382,-7581,-4,379,-4637,23,-177,-74,70
383,-7596,-9,380,-4638,23,-175,-75,72
384,-7585,-2,385,-4637,23,-177,-78,72
385,-7577,0,391,-4638,23,-172,-75,69
386,-7574,-7,376,-4638,23,-172,-74,69
387,-7568,-3,358,-4638,23,-168,-74,71
388,-7571,10,360,-4641,23,-172,-75,69
389,-7574,-6,373,-4638,23,-170,-73,72
390,-7574,-17,383,-4636,23,-169,-77,72
391,-7567,-10,347,-4641,23,-171,-73,69
392,-7560,-14,363,-4640,23,-175,-75,72
393,-7563,-8,369,-4645,23,-178,-74,68
394,-7575,-3,389,-4638,23,-178,-76,69
395,-7573,-2,362,-4640,23,-177,-80,69
396,-7584,10,380,-4639,23,-178,-77,69
397,-7583,-2,388,-4638,23,-175,-75,72
398,-7578,-4,388,-4641,23,-175,-76,73
399,-7577,-2,374,-4641,23,-172,-78,69
400,-7578,-6,358,-4642,23,-173,-77,71
401,-7564,-10,371,-4640,23,-177,-78,70
402,-7573,-22,387,-4640,23,-174,-79,68
403,-7566,-16,381,-4639,23,-175,-77,71
404,-7575,-16,372,-4641,23,-177,-77,64
405,-7571,-13,374,-4636,23,-175,-80,71
406,-7586,-11,380,-4636,23,-172,-78,71
407,-7590,-24,403,-4639,23,-175,-74,73
408,-7582,8,390,-4640,23,-175,-76,68
409,-7576,-2,389,-4640,23,-175,-78,70
410,-7592,6,386,-4640,23,-172,-74,71
411,-7577,1,376,-4642,23,-176,-77,69
412,-7583,2,400,-4636,23,-176,-77,70
413,-7583,0,393,-4639,23,-175,-77,67
414,-7565,9,382,-4637,23,-173,-74,65
415,-7565,5,368,-4637,23,-175,-72,68
416,-7574,-1,370,-4638,23,-175,-70,69
417,-7575,-3,388,-4639,23,-174,-72,70
418,-7568,2,397,-4640,23,-176,-76,67
419,-7567,5,364,-4638,23,-173,-75,67
420,-7574,-14,366,-4640,23,-174,-77,69
421,-7580,-10,374,-4638,23,-176,-77,73
422,-7580,3,360,-4631,23,-174,-78,72
423,-7587,11,380,-4634,23,-174,-76,71
424,-7591,-2,364,-4635,23,-175,-78,70
425,-7587,-13,378,-4636,23,-172,-80,69
426,-7581,-19,382,-4635,23,-172,-80,70
427,-7572,-4,382,-4634,23,-171,-80,72
428,-7583,-13,390,-4637,23,-174,-80,71
429,-7581,-10,377,-4640,23,-176,-77,71
430,-7583,-13,369,-4632,23,-174,-77,71
431,-7580,-10,385,-4637,23,-176,-75,70
432,-7585,-18,393,-4641,23,-172,-75,72
433,-7573,-5,386,-4641,23,-177,-75,70
434,-7587,-7,387,-4637,23,-177,-74,72
435,-7588,-9,391,-4638,23,-176,-75,69
436,-7601,-8,397,-4639,23,-176,-75,71
437,-7576,-22,384,-4642,23,-172,-75,71
438,-7582,0,375,-4640,23,-173,-76,72
439,-7578,-5,369,-4638,23,-173,-77,72
440,-7575,6,408,-4642,23,-177,-74,70
441,-7562,-10,384,-4644,23,-175,-73,71
442,-7581,-9,391,-4638,23,-175,-78,68
443,-7580,-11,359,-4638,23,-177,-77,69
444,-7577,-10,386,-4644,23,-175,-75,67
445,-7581,-3,369,-4642,23,-171,-76,69
446,-7593,-11,383,-4640,23,-175,-77,70
447,-7583,-13,377,-4635,23,-176,-79,70
448,-7584,-12,370,-4636,23,-174,-78,72
449,-7577,-21,389,-4634,23,-177,-76,69
450,-7575,-21,375,-4631,23,-173,-78,66
451,-7587,-22,378,-4634,23,-174,-73,71
452,-7579,-7,379,-4645,23,-177,-74,68
453,-7577,-9,386,-4647,23,-180,-77,69
454,-7572,-14,398,-4644,23,-176,-79,69
455,-7592,-15,386,-4639,23,-176,-77,74
456,-7563,-12,361,-4636,23,-178,-78,75
457,-7578,-19,363,-4645,23,-177,-76,69
458,-7589,0,368,-4637,23,-173,-78,68
459,-7571,-7,372,-4638,23,-175,-76,68
460,-7577,-10,363,-4636,23,-178,-78,71
461,-7591,-15,374,-4636,23,-175,-77,72
462,-7594,7,364,-4639,23,-178,-75,71
463,-7574,-14,377,-4637,23,-177,-74,72
464,-7570,-3,381,-4635,23,-177,-73,72
465,-7562,-4,376,-4640,23,-174,-76,68
466,-7576,-15,379,-4639,23,-172,-75,71
467,-7572,-3,386,-4635,23,-174,-72,71
468,-7592,-4,376,-4638,23,-174,-75,71
469,-7583,-8,377,-4635,23,-170,-74,71
470,-7586,-17,373,-4636,23,-173,-75,73
471,-7579,-16,385,-4635,23,-177,-76,70
472,-7570,-21,373,-4641,23,-176,-79,71
473,-7580,-12,364,-4634,23,-175,-80,70
474,-7601,-7,351,-4638,23,-173,-77,69
475,-7590,-4,350,-4640,23,-175,-75,68
476,-7590,10,352,-4640,23,-174,-75,67
477,-7589,15,370,-4642,23,-172,-76,69
478,-7576,12,352,-4639,23,-175,-76,69
479,-7568,13,370,-4638,23,-174,-77,68
480,-7582,-2,373,-4639,23,-178,-77,71
481,-7589,-9,382,-4640,23,-173,-77,68
482,-7578,2,363,-4639,23,-174,-77,70
483,-7600,10,386,-4640,23,-176,-76,69
484,-7597,-4,369,-4640,23,-177,-81,71
485,-7590,-10,363,-4639,23,-177,-79,72
486,-7574,-16,348,-4642,23,-178,-79,74
487,-7594,-16,365,-4638,23,-176,-75,72
488,-7591,-10,379,-4640,23,-180,-76,68
489,-7589,-6,391,-4640,23,-176,-78,66
490,-7574,8,370,-4640,23,-174,-77,68
491,-7562,-7,382,-4637,23,-175,-76,69
492,-7558,-25,367,-4639,23,-173,-73,68
493,-7560,-14,368,-4642,23,-177,-74,70
494,-7556,-3,361,-4637,23,-174,-78,73
495,-7572,14,378,-4642,23,-172,-75,71
496,-7576,-5,367,-4643,23,-173,-77,72
497,-7584,-2,365,-4643,23,-179,-72,71
498,-7570,11,389,-4642,23,-176,-80,69
499,-7577,-13,377,-4639,23,-174,-78,73
500,-7582,-5,393,-4642,23,-173,-75,71
501,-7581,1,367,-4641,23,-175,-78,70
502,-7576,-6,389,-4640,23,-169,-77,67
503,-7582,-7,384,-4636,23,-170,-78,67
504,-7579,-18,367,-4637,23,-176,-78,71
505,-7580,-20,374,-4640,23,-173,-77,74
506,-7566,-9,357,-4644,23,-173,-77,70
507,-7580,-12,384,-4643,23,-171,-74,69
508,-7579,-5,395,-4642,23,-175,-77,69
509,-7574,0,386,-4638,23,-174,-80,68
510,-7583,-7,372,-4642,23,-176,-80,69
511,-7587,-1,369,-4643,23,-172,-78,71
512,-7571,-5,370,-4642,23,-174,-78,67
513,-7565,-13,376,-4639,23,-176,-78,68
514,-7557,-4,390,-4638,23,-178,-73,68
515,-7567,-9,390,-4641,23,-176,-75,70
516,-7574,-4,365,-4639,23,-177,-75,70
517,-7579,0,374,-4640,23,-170,-74,69
518,-7580,-8,367,-4642,23,-174,-75,69
519,-7578,-10,378,-4632,23,-174,-75,68
520,-7569,-17,393,-4635,23,-174,-76,70
521,-7580,-7,371,-4639,23,-173,-80,74
522,-7581,-7,385,-4641,23,-171,-76,71
523,-7579,-10,379,-4638,23,-172,-76,70
524,-7595,-7,384,-4639,23,-176,-79,70
525,-7602,-4,364,-4640,23,-176,-77,70
526,-7585,1,348,-4639,23,-176,-79,72
527,-7586,-2,361,-4639,23,-174,-76,72
528,-7564,-8,362,-4636,23,-176,-76,71
529,-7575,9,354,-4641,23,-176,-77,69
530,-7578,3,368,-4640,23,-176,-78,70
531,-7571,16,374,-4637,23,-173,-77,67
532,-7583,-7,373,-4635,23,-174,-76,65
533,-7563,-11,361,-4641,23,-173,-78,72
534,-7565,-7,363,-4640,23,-174,-75,71
535,-7564,-9,368,-4641,23,-174,-74,72
536,-7573,2,384,-4641,23,-174,-75,71
537,-7586,1,368,-4642,23,-176,-76,69
538,-7588,-18,351,-4640,23,-174,-72,69
539,-7578,-12,373,-4642,23,-176,-72,71
540,-7588,-31,356,-4640,23,-174,-76,68
541,-7581,-24,378,-4636,23,-168,-78,71
542,-7580,-1,372,-4640,23,-176,-76,70
543,-7577,-6,365,-4638,23,-176,-76,72
544,-7575,-1,363,-4640,23,-175,-74,71
545,-7568,-9,374,-4634,23,-174,-75,68
546,-7567,-6,399,-4635,23,-174,-80,69
547,-7577,11,390,-4632,23,-176,-80,72
548,-7565,-15,397,-4633,23,-174,-78,72
549,-7564,0,387,-4631,23,-170,-78,74
550,-7558,5,395,-4638,23,-174,-77,72
551,-7575,-7,366,-4636,23,-174,-76,70
552,-7583,3,375,-4636,23,-175,-75,69
553,-7573,-12,368,-4639,23,-177,-76,70
554,-7579,-7,373,-4634,23,-173,-77,69
555,-7579,-3,380,-4643,23,-177,-76,71
556,-7578,-12,381,-4636,23,-177,-75,69
557,-7585,-7,377,-4638,23,-176,-75,70
558,-7568,-11,373,-4638,23,-173,-74,73
559,-7578,-9,371,-4641,23,-174,-74,69
560,-7583,-7,388,-4640,23,-174,-77,71
561,-7567,-2,400,-4639,23,-178,-78,70
562,-7574,-5,396,-4639,23,-176,-81,69
563,-7575,-5,390,-4639,23,-179,-81,66
564,-7566,-24,386,-4639,23,-178,-78,67
565,-7585,-10,399,-4638,23,-176,-76,68
566,-7581,3,387,-4640,23,-171,-77,70
567,-7582,1,373,-4640,23,-176,-76,69
568,-7588,-15,397,-4636,23,-174,-75,70
569,-7575,-16,371,-4635,23,-174,-75,69
570,-7580,-20,381,-4637,23,-174,-75,71
571,-7583,-6,353,-4642,23,-174,-77,72
572,-7582,-12,359,-4637,23,-177,-79,74
573,-7579,-15,359,-4633,23,-175,-77,70
574,-7577,-9,372,-4632,23,-177,-74,71
575,-7566,-20,379,-4635,23,-175,-78,71
576,-7570,-8,375,-4631,23,-174,-75,69
577,-7576,-17,385,-4636,23,-171,-76,70
578,-7586,-10,360,-4638,23,-178,-77,68
579,-7576,5,353,-4636,23,-173,-78,71
580,-7581,5,342,-4636,23,-177,-79,69
581,-7584,12,335,-4638,23,-173,-79,70
582,-7580,-4,362,-4638,23,-176,-74,69
583,-7566,-13,387,-4632,23,-175,-76,71
584,-7584,-13,378,-4636,23,-176,-75,69
585,-7573,-8,365,-4639,23,-176,-74,71
586,-7561,-13,357,-4638,23,-171,-75,72
587,-7578,-9,381,-4632,23,-173,-79,70
588,-7593,-23,396,-4640,23,-175,-81,69
589,-7581,-18,379,-4635,23,-174,-80,72
590,-7588,-2,383,-4638,23,-175,-76,69
591,-7584,-2,365,-4640,23,-174,-77,69
592,-7580,-14,355,-4635,23,-176,-74,69
593,-7578,-9,366,-4633,23,-176,-77,71
594,-7582,-14,372,-4635,23,-174,-77,71
595,-7589,-18,373,-4634,23,-176,-77,67
596,-7578,-11,362,-4634,23,-176,-74,69
597,-7591,-1,363,-4634,23,-175,-72,74
598,-7588,-5,384,-4641,23,-172,-76,72
599,-7587,10,405,-4644,23,-171,-78,72
600,-7580,-5,386,-4641,23,-174,-79,70
601,-7574,-11,397,-4639,23,-176,-80,68
602,-7575,-24,415,-4636,23,-175,-76,65
603,-7574,-22,383,-4634,23,-178,-77,70
604,-7576,1,381,-4638,23,-173,-77,69
605,-7563,-8,394,-4638,23,-176,-79,71
606,-7585,-19,388,-4633,23,-176,-78,70
607,-7571,-20,385,-4633,23,-177,-80,69
608,-7579,-14,397,-4637,23,-172,-78,71
609,-7582,-21,391,-4643,23,-175,-78,71
610,-7581,-15,385,-4640,23,-172,-78,67
611,-7587,-7,354,-4641,23,-175,-75,67
612,-7581,-11,375,-4639,23,-173,-76,71
613,-7581,-5,394,-4641,23,-174,-72,72
614,-7592,-6,389,-4637,23,-175,-75,68
615,-7581,-6,402,-4640,23,-179,-72,69
616,-7573,-14,382,-4639,23,-178,-75,70
617,-7567,-11,372,-4640,23,-174,-76,70
618,-7570,-12,365,-4636,23,-176,-77,68
619,-7575,-3,378,-4636,23,-175,-77,71
620,-7568,-1,386,-4638,23,-175,-78,70
621,-7573,1,380,-4632,23,-174,-78,71
622,-7586,-1,383,-4638,23,-175,-77,71
623,-7582,-4,382,-4637,23,-175,-78,73
624,-7580,-2,392,-4636,23,-177,-78,73
625,-7565,6,376,-4634,23,-176,-76,72
626,-7561,-1,390,-4638,23,-174,-78,71
627,-7572,-7,400,-4632,23,-171,-75,69
628,-7578,3,393,-4637,23,-172,-76,67
629,-7595,-10,370,-4638,23,-176,-78,71
630,-7573,4,347,-4635,23,-173,-80,73
631,-7588,13,371,-4637,23,-174,-79,72
632,-7572,-5,362,-4641,23,-175,-82,71
633,-7582,-6,394,-4643,23,-176,-80,71
634,-7575,-9,371,-4638,23,-175,-79,70
635,-7570,-7,377,-4640,23,-173,-79,70
636,-7585,-6,358,-4633,23,-176,-81,69
637,-7563,10,371,-4638,23,-177,-77,68
638,-7569,-3,363,-4633,23,-174,-76,70
639,-7580,6,359,-4634,23,-176,-77,70
640,-7572,-2,372,-4637,23,-176,-78,73
641,-7584,-10,367,-4635,23,-175,-81,71
642,-7568,-21,369,-4641,23,-177,-79,69
643,-7570,-13,382,-4634,23,-178,-76,68
644,-7562,10,371,-4636,23,-175,-76,73
645,-7571,-2,374,-4639,23,-173,-80,71
646,-7565,-26,369,-4641,23,-172,-75,72
647,-7579,-14,358,-4639,23,-176,-77,71
648,-7574,-22,403,-4637,23,-178,-76,70
649,-7586,-7,370,-4639,23,-174,-77,71
650,-7603,-11,377,-4639,23,-175,-77,73
651,-7588,9,361,-4635,23,-175,-76,72
652,-7589,3,384,-4631,23,-176,-74,73
653,-7562,19,379,-4632,23,-176,-78,74
654,-7577,3,376,-4629,23,-174,-78,71
655,-7575,5,367,-4638,23,-174,-76,71
656,-7579,-4,377,-4638,23,-175,-77,70
657,-7573,-6,340,-4630,23,-174,-75,71
658,-7582,-15,353,-4636,23,-179,-79,71
659,-7582,-3,376,-4638,23,-178,-78,70
660,-7582,-11,378,-4638,23,-172,-77,69
661,-7571,-12,386,-4633,23,-176,-78,72
662,-7572,-2,388,-4639,23,-175,-79,73
663,-7574,3,374,-4640,23,-176,-80,71
664,-7583,-14,372,-4633,23,-173,-81,71
665,-7584,-12,359,-4637,23,-172,-81,71
666,-7577,-28,364,-4638,23,-175,-76,71
667,-7588,-19,379,-4644,23,-172,-77,70
668,-7577,-11,402,-4641,23,-175,-78,68
669,-7579,-17,379,-4641,23,-174,-78,68
670,-7583,-9,365,-4635,23,-174,-79,74
671,-7586,-6,351,-4636,23,-175,-79,71
672,-7579,-5,371,-4636,23,-173,-80,71
673,-7583,-5,364,-4635,23,-175,-81,69
674,-7589,-11,383,-4639,23,-177,-78,69
675,-7584,-7,363,-4640,23,-174,-76,69
676,-7563,-12,366,-4631,23,-172,-80,69
677,-7571,-19,361,-4641,23,-176,-76,70
678,-7580,-17,382,-4634,23,-174,-77,71
679,-7580,-16,402,-4639,23,-176,-77,72
680,-7578,-8,391,-4642,23,-176,-73,72
681,-7574,-5,373,-4643,23,-177,-72,71
682,-7572,-11,382,-4634,23,-178,-76,70
683,-7586,-7,397,-4635,23,-178,-76,72
684,-7595,-20,384,-4636,23,-173,-75,70
685,-7589,-15,378,-4636,23,-173,-75,71
686,-7598,4,382,-4638,23,-176,-76,69
687,-7589,-5,371,-4636,23,-173,-78,66
688,-7579,-6,381,-4635,23,-176,-78,70
689,-7575,-5,376,-4636,23,-178,-78,70
690,-7578,-3,371,-4634,23,-176,-78,70
691,-7565,-7,394,-4640,23,-177,-81,71
692,-7566,-12,377,-4634,23,-174,-75,68
693,-7567,-10,378,-4637,23,-174,-79,69
694,-7580,-5,395,-4637,23,-176,-71,67
695,-7581,6,384,-4635,23,-172,-72,70
696,-7586,-1,366,-4634,23,-172,-79,68
697,-7581,-14,378,-4643,23,-173,-80,68
698,-7593,-11,385,-4640,23,-174,-81,67
699,-7591,-14,393,-4639,23,-178,-80,69
700,-7582,-5,384,-4641,23,-174,-77,69
701,-7582,-16,370,-4641,23,-173,-78,69
702,-7589,-7,373,-4636,23,-172,-76,71
703,-7595,4,359,-4638,23,-172,-76,72
704,-7586,-3,356,-4636,23,-174,-75,69
705,-7576,-4,394,-4636,23,-173,-76,69
706,-7564,-11,389,-4632,23,-173,-84,70
707,-7558,-28,374,-4634,23,-174,-80,71
708,-7568,-7,395,-4635,23,-172,-77,74
709,-7594,-2,376,-4629,23,-174,-76,70
710,-7592,1,382,-4631,23,-175,-76,69
711,-7587,-6,376,-4631,23,-175,-76,70
712,-7578,-14,393,-4624,23,-174,-78,71
713,-7589,-16,373,-4631,23,-175,-80,71
714,-7573,-20,362,-4635,23,-177,-80,72
715,-7576,-4,377,-4642,23,-174,-78,69
716,-7588,7,386,-4641,23,-175,-78,71
717,-7583,6,384,-4636,23,-173,-76,69
718,-7584,-4,377,-4638,23,-172,-79,71
719,-7580,-2,386,-4638,23,-173,-74,69
720,-7575,-15,381,-4638,23,-172,-76,69
721,-7565,-1,378,-4635,23,-174,-77,75
722,-7575,-11,377,-4638,23,-175,-76,73
723,-7566,-13,366,-4632,23,-172,-76,71
724,-7571,-6,364,-4631,23,-173,-74,71
725,-7577,-13,359,-4634,23,-176,-74,72
726,-7587,-9,366,-4642,23,-175,-78,72
727,-7584,-16,363,-4635,23,-173,-78,71
728,-7580,-6,374,-4635,23,-175,-76,70
729,-7576,-5,368,-4631,23,-176,-75,72
730,-7574,-15,370,-4628,23,-176,-73,73
731,-7567,-14,382,-4633,23,-175,-80,70
732,-7572,-8,396,-4639,23,-174,-78,68
733,-7568,7,403,-4633,23,-177,-75,70
734,-7582,2,388,-4636,23,-174,-76,71
735,-7576,-12,397,-4634,23,-175,-76,70
736,-7564,-6,370,-4638,23,-174,-78,70
737,-7575,-20,360,-4640,23,-175,-78,70
738,-7574,-13,378,-4631,23,-172,-77,70
739,-7588,-8,375,-4632,23,-173,-76,70
740,-7575,-21,395,-4634,23,-173,-77,71
741,-7597,-9,372,-4635,23,-178,-79,71
742,-7582,-9,381,-4639,23,-175,-79,69
743,-7584,-3,378,-4639,23,-172,-76,68
744,-7578,7,365,-4636,23,-176,-77,70
745,-7572,-12,360,-4637,23,-175,-77,67
746,-7584,-1,361,-4633,23,-174,-78,68
747,-7577,-6,354,-4631,23,-176,-78,70
748,-7568,-25,380,-4634,23,-175,-83,68
749,-7571,-14,353,-4635,23,-176,-73,68
750,-7580,2,362,-4634,23,-171,-74,69
751,-7571,0,371,-4636,23,-174,-74,71
752,-7585,-6,367,-4639,23,-175,-77,69
753,-7592,0,393,-4640,23,-175,-80,70
754,-7586,-9,376,-4634,23,-173,-78,71
755,-7571,21,384,-4636,23,-173,-77,68
756,-7571,-1,374,-4642,23,-178,-74,71
757,-7570,-14,372,-4636,23,-176,-78,71
758,-7571,-10,371,-4638,23,-173,-75,70
759,-7572,-19,390,-4639,23,-175,-82,70
760,-7578,-5,385,-4639,23,-174,-80,69
761,-7572,-13,380,-4642,23,-174,-79,71
762,-7575,-10,365,-4641,23,-174,-78,70
763,-7571,-9,368,-4636,23,-175,-76,70
764,-7573,-3,377,-4636,23,-176,-78,70
765,-7585,-1,359,-4639,23,-176,-77,72
766,-7579,-6,357,-4640,23,-175,-79,68
767,-7582,-13,377,-4639,23,-178,-78,69
768,-7576,4,373,-4635,23,-175,-76,71
769,-7568,-1,379,-4637,23,-177,-83,71
770,-7569,-6,370,-4637,23,-176,-80,66
771,-7584,-18,406,-4635,23,-178,-74,69
772,-7586,-12,415,-4640,23,-179,-78,69
773,-7587,-22,394,-4637,23,-178,-75,70
774,-7576,-8,375,-4641,23,-175,-77,69
775,-7572,-6,372,-4643,23,-176,-77,70
776,-7571,-10,381,-4633,23,-176,-77,71
777,-7576,-14,358,-4635,23,-178,-78,72
778,-7593,-1,367,-4635,23,-178,-78,70
779,-7580,8,387,-4636,23,-176,-76,70
780,-7584,2,370,-4631,23,-174,-75,72
781,-7582,0,370,-4635,23,-176,-75,71
782,-7574,0,375,-4631,23,-171,-74,73
783,-7563,-3,364,-4637,23,-173,-74,69
784,-7576,-5,388,-4637,23,-171,-78,70
785,-7564,-16,378,-4639,23,-173,-78,68
786,-7573,-11,360,-4639,23,-173,-73,71
787,-7570,-1,382,-4637,23,-176,-77,72
788,-7579,4,385,-4638,23,-175,-78,69
789,-7589,-4,389,-4634,23,-178,-78,71
790,-7576,-7,377,-4634,23,-180,-76,70
791,-7585,-17,386,-4637,23,-174,-77,72
792,-7574,-15,388,-4635,23,-175,-79,73
793,-7588,3,379,-4638,23,-176,-80,69
794,-7575,-6,369,-4639,23,-173,-81,70
795,-7574,13,402,-4638,23,-173,-83,69
796,-7587,-2,410,-4641,23,-176,-82,70
797,-7570,2,375,-4638,23,-174,-77,73
798,-7577,-10,393,-4639,23,-173,-80,70
799,-7578,-16,381,-4641,23,-176,-77,73
800,-7582,-1,374,-4642,23,-175,-78,73
801,-7580,-14,367,-4635,23,-170,-77,71
802,-7578,-11,387,-4634,23,-172,-77,73
803,-7572,-6,389,-4633,23,-176,-77,68
804,-7579,-16,369,-4632,23,-177,-77,71
805,-7577,-6,357,-4631,23,-177,-77,72
806,-7573,-9,392,-4635,23,-173,-76,70
807,-7576,-9,375,-4641,23,-174,-80,66
808,-7557,4,369,-4639,23,-171,-78,70
809,-7571,-2,377,-4638,23,-175,-74,71
810,-7580,-17,373,-4642,23,-176,-75,69
811,-7596,-9,372,-4637,23,-175,-76,70
812,-7578,5,395,-4638,23,-174,-78,69
813,-7573,1,405,-4632,23,-173,-77,68
814,-7568,-5,378,-4633,23,-174,-76,68
815,-7582,-20,384,-4636,23,-174,-79,68
816,-7600,-20,376,-4638,23,-172,-74,68
817,-7603,-14,385,-4638,23,-169,-76,68
818,-7589,0,366,-4641,23,-173,-77,71
819,-7592,-3,357,-4635,23,-172,-76,68
820,-7579,3,370,-4636,23,-172,-76,71
821,-7585,16,365,-4637,23,-174,-74,68
822,-7570,1,364,-4635,23,-176,-73,67
823,-7565,-5,400,-4632,23,-175,-76,68
824,-7580,-7,389,-4631,23,-171,-77,68
825,-7574,1,388,-4636,23,-172,-79,69
826,-7585,-2,385,-4633,23,-174,-79,70
827,-7575,11,372,-4632,23,-175,-78,68
828,-7573,-10,371,-4635,23,-178,-76,71
829,-7581,-29,389,-4632,23,-177,-74,70
830,-7602,-22,373,-4629,23,-173,-73,69
831,-7591,-20,373,-4634,23,-171,-78,72
832,-7595,-10,378,-4641,23,-172,-79,70
833,-7579,-12,390,-4634,23,-175,-79,72
834,-7598,-13,389,-4633,23,-174,-75,71
835,-7595,-13,382,-4632,23,-174,-77,71
836,-7595,-5,365,-4636,23,-173,-77,70
837,-7581,4,364,-4634,23,-174,-79,70
838,-7568,-6,355,-4630,23,-174,-77,70
839,-7582,0,377,-4635,23,-170,-76,72
840,-7581,-1,351,-4633,23,-171,-78,71
841,-7566,1,380,-4635,23,-174,-76,69
842,-7582,-3,365,-4633,23,-176,-73,69
843,-7584,-12,389,-4635,23,-179,-74,69
844,-7582,2,381,-4639,23,-175,-74,70
845,-7580,-14,389,-4633,23,-177,-80,70
846,-7580,-17,370,-4637,23,-174,-77,70
847,-7578,-9,377,-4632,23,-178,-75,70
848,-7571,-7,383,-4631,23,-176,-74,72
849,-7574,-8,388,-4634,23,-173,-74,74
850,-7578,-12,364,-4630,23,-171,-79,72
851,-7577,-32,365,-4631,23,-174,-81,71
852,-7584,-26,398,-4633,23,-171,-79,71
853,-7583,-15,381,-4631,23,-175,-76,71
854,-7572,-21,366,-4628,23,-177,-76,73
855,-7573,-14,373,-4631,23,-174,-78,69
856,-7575,-13,388,-4635,23,-175,-77,71
857,-7568,4,369,-4631,23,-173,-75,72
858,-7585,11,407,-4629,23,-179,-73,69
859,-7588,7,402,-4634,23,-177,-75,69
860,-7582,-4,376,-4634,23,-171,-76,69
861,-7584,-7,372,-4638,23,-173,-75,68
862,-7574,3,398,-4637,23,-175,-79,70
863,-7589,10,395,-4635,23,-173,-77,72
864,-7578,-2,384,-4632,23,-173,-80,72
865,-7580,-18,390,-4639,23,-173,-80,72
866,-7592,-1,378,-4634,23,-173,-80,72
867,-7569,-5,375,-4634,23,-176,-78,69
868,-7571,3,385,-4631,23,-177,-76,72
869,-7589,5,361,-4635,23,-173,-79,69
870,-7589,-3,374,-4631,23,-175,-77,70
871,-7573,6,382,-4628,23,-176,-76,72
872,-7572,5,400,-4632,23,-176,-81,70
873,-7572,-1,379,-4632,23,-174,-78,69
874,-7575,-2,383,-4630,23,-174,-78,66
875,-7582,-9,393,-4629,23,-174,-77,67
876,-7582,-4,377,-4625,23,-174,-78,70
877,-7588,-15,362,-4626,23,-175,-78,68
878,-7593,-2,354,-4630,23,-176,-79,70
879,-7590,-7,348,-4633,23,-172,-76,68
880,-7565,-9,348,-4632,23,-173,-77,70
881,-7579,-15,372,-4637,23,-174,-78,70
882,-7567,-11,377,-4640,23,-172,-80,68
883,-7576,-8,386,-4642,23,-172,-79,65
884,-7579,1,385,-4631,23,-174,-80,70
885,-7575,1,387,-4632,23,-171,-79,71
886,-7569,-22,377,-4630,23,-171,-75,69
887,-7593,-1,388,-4633,23,-174,-76,69
888,-7581,3,379,-4629,23,-173,-75,73
889,-7584,3,378,-4630,23,-172,-78,70
890,-7571,-2,395,-4637,23,-173,-79,74
891,-7562,-4,369,-4640,23,-174,-79,73
892,-7559,8,373,-4640,23,-175,-74,69
893,-7578,6,371,-4635,23,-172,-79,69
894,-7588,5,366,-4633,23,-175,-76,71
895,-7583,-2,381,-4637,23,-176,-76,70
896,-7581,-13,378,-4635,23,-175,-74,68
897,-7580,-7,381,-4629,23,-171,-74,68
898,-7587,-3,375,-4630,23,-177,-79,67
899,-7576,3,393,-4637,23,-178,-77,68
900,-7581,7,392,-4640,23,-177,-76,68
901,-7562,-6,374,-4638,23,-173,-77,69
902,-7560,-4,381,-4633,23,-174,-75,69
903,-7576,-7,395,-4637,23,-174,-75,70
904,-7564,-11,377,-4634,23,-175,-77,70
905,-7574,-12,359,-4633,23,-174,-76,71
906,-7576,-1,375,-4638,23,-170,-76,66
907,-7573,-2,384,-4642,23,-175,-78,71
908,-7567,-5,379,-4644,23,-175,-80,67
909,-7586,1,399,-4635,23,-178,-83,68
910,-7583,1,368,-4635,23,-176,-85,69
911,-7584,2,391,-4634,23,-177,-80,70
912,-7601,-13,385,-4632,23,-175,-82,70
913,-7583,-4,378,-4636,23,-174,-80,69
914,-7573,-12,373,-4635,23,-175,-79,70
915,-7570,-10,358,-4633,23,-171,-80,68
916,-7588,-9,399,-4637,23,-170,-78,68
917,-7573,1,383,-4634,23,-174,-79,67
918,-7582,2,385,-4634,23,-175,-78,67
919,-7583,-5,355,-4633,23,-175,-77,65
920,-7577,-8,374,-4634,23,-173,-78,68
921,-7571,2,366,-4633,23,-175,-77,67
922,-7571,-5,375,-4635,23,-173,-71,71
923,-7565,-14,366,-4634,23,-174,-75,69
924,-7573,-2,372,-4638,23,-178,-78,67
925,-7563,4,368,-4636,23,-175,-75,68
926,-7586,-5,362,-4642,23,-176,-80,71
927,-7587,-12,372,-4635,23,-175,-79,69
928,-7573,-10,374,-4638,23,-176,-76,70
929,-7570,7,361,-4633,23,-176,-77,71
930,-7574,-9,359,-4635,23,-176,-80,68
931,-7575,-13,373,-4631,23,-177,-76,68
932,-7579,-8,367,-4636,23,-178,-76,68
933,-7584,10,392,-4634,23,-179,-77,69
934,-7585,-7,386,-4632,23,-178,-80,73
935,-7587,-19,393,-4633,23,-176,-79,70
936,-7586,-12,390,-4629,23,-175,-77,72
937,-7581,-4,380,-4632,23,-174,-77,70
938,-7585,-16,367,-4628,23,-175,-78,69
939,-7575,-10,346,-4629,23,-173,-78,70
940,-7572,7,360,-4627,23,-175,-77,67
941,-7569,3,391,-4639,23,-172,-80,68
942,-7573,-14,381,-4639,23,-176,-77,70
943,-7572,-1,357,-4636,23,-174,-78,71
944,-7577,0,379,-4635,23,-174,-78,71
945,-7583,-6,383,-4637,23,-173,-78,71
946,-7585,-1,366,-4633,23,-171,-78,68
947,-7587,3,382,-4635,23,-173,-79,69
948,-7580,-19,393,-4638,23,-170,-79,69
949,-7570,3,378,-4634,23,-173,-77,70
950,-7571,0,367,-4628,23,-175,-75,70
951,-7585,-13,368,-4630,23,-175,-78,70
952,-7577,-11,358,-4636,23,-174,-75,70
953,-7576,2,342,-4632,23,-172,-78,71
954,-7581,-10,355,-4634,23,-175,-76,73
955,-7579,-2,358,-4631,23,-175,-77,71
956,-7582,-4,386,-4631,23,-177,-76,67
957,-7596,-10,371,-4635,23,-173,-76,66
958,-7603,-15,371,-4630,23,-176,-77,71
959,-7593,16,402,-4631,23,-175,-79,71
960,-7585,-2,422,-4638,23,-176,-77,75
961,-7582,-9,390,-4635,23,-174,-78,71
962,-7585,-13,384,-4634,23,-173,-77,71
963,-7581,-6,376,-4634,23,-173,-73,72
964,-7575,-27,383,-4634,23,-176,-76,71
965,-7582,-31,394,-4635,23,-176,-78,69
966,-7583,-18,386,-4637,23,-175,-78,70
967,-7568,-5,380,-4632,23,-174,-79,68
968,-7578,-4,378,-4633,23,-176,-80,69
969,-7585,-2,379,-4634,23,-172,-75,68
970,-7598,4,385,-4629,23,-172,-74,70
971,-7591,-10,389,-4626,23,-175,-75,71
972,-7573,-17,365,-4633,23,-172,-75,69
973,-7585,3,347,-4633,23,-175,-76,67
974,-7570,5,355,-4634,23,-175,-77,70
975,-7582,-2,383,-4629,23,-172,-78,70
976,-7583,-19,390,-4632,23,-174,-77,72
977,-7580,-7,383,-4633,23,-170,-75,71
978,-7577,-5,373,-4632,23,-174,-76,69
979,-7578,-16,377,-4629,23,-174,-80,69
980,-7589,2,383,-4637,23,-177,-81,71
981,-7587,-1,391,-4637,23,-176,-76,69
982,-7575,-9,373,-4635,23,-173,-74,63
983,-7576,-18,364,-4633,23,-176,-75,70
984,-7569,-16,377,-4638,23,-174,-79,69
985,-7572,-9,386,-4636,23,-176,-79,68
986,-7573,-14,389,-4632,23,-171,-77,70
987,-7572,-10,399,-4632,23,-172,-76,69
988,-7578,-22,378,-4632,23,-172,-82,69
989,-7576,-13,391,-4636,23,-173,-76,70
990,-7585,-8,385,-4633,23,-174,-76,70
991,-7581,-18,397,-4631,23,-175,-80,73
992,-7588,-5,382,-4630,23,-173,-77,71
993,-7590,-11,376,-4629,23,-172,-77,70
994,-7577,-18,397,-4631,23,-172,-78,71
995,-7573,-18,378,-4628,23,-176,-77,68
996,-7579,-7,365,-4632,23,-177,-75,67
997,-7582,-12,387,-4632,23,-177,-77,70
998,-7570,-6,396,-4631,23,-176,-78,71
