,acc_X,acc_Y,acc_Z,temp,tempC,gyr_X,gyr_Y,gyr_Z
0,-7586,-12,360,-4742,23,-44,-20,17
1,-7585,-14,359,-4742,23,-44,-19,17
2,-7588,-20,370,-4744,23,-44,-19,16
3,-7584,-13,378,-4745,23,-44,-20,17
4,-7579,-9,381,-4746,23,-44,-20,17
5,-7576,-15,382,-4746,23,-44,-20,17
6,-7574,-7,399,-4745,23,-44,-19,17
7,-7582,3,379,-4744,23,-44,-19,17
8,-7581,-3,361,-4745,23,-44,-19,17
9,-7579,-6,364,-4746,23,-44,-19,17
10,-7580,-5,348,-4746,23,-44,-20,17
11,-7581,-1,362,-4749,23,-44,-19,17
12,-7582,-5,359,-4746,23,-44,-19,17
13,-7581,-1,347,-4743,23,-44,-20,17
14,-7581,-7,358,-4745,23,-44,-20,16
15,-7585,-2,359,-4743,23,-44,-20,17
16,-7579,-2,369,-4746,23,-44,-20,17
17,-7578,-3,359,-4744,23,-44,-20,17
18,-7586,-8,370,-4745,23,-44,-20,17
19,-7579,-3,381,-4742,23,-44,-20,17
20,-7578,2,383,-4743,23,-44,-19,17
21,-7580,7,383,-4744,23,-44,-20,16
22,-7580,-1,384,-4741,23,-44,-19,16
23,-7579,-2,372,-4737,23,-44,-19,17
24,-7580,-7,381,-4737,23,-44,-19,17
25,-7581,0,380,-4739,23,-43,-19,17
26,-7587,2,371,-4743,23,-44,-19,17
27,-7581,1,361,-4742,23,-44,-20,17
28,-7577,-4,366,-4740,23,-44,-20,17
29,-7572,-2,373,-4741,23,-44,-19,17
30,-7565,-2,376,-4740,23,-44,-19,17
31,-7556,-1,380,-4740,23,-44,-19,17
32,-7560,5,374,-4740,23,-44,-19,17
33,-7566,12,374,-4740,23,-44,-19,16
34,-7573,4,377,-4742,23,-44,-19,17
35,-7570,8,385,-4740,23,-43,-20,17
36,-7565,-5,374,-4736,23,-44,-20,17
37,-7568,-5,373,-4739,23,-44,-20,17
38,-7569,-15,386,-4738,23,-44,-20,17
39,-7574,-15,372,-4738,23,-44,-20,17
40,-7574,-6,373,-4739,23,-44,-20,18
41,-7579,-5,374,-4737,23,-44,-19,18
42,-7587,-14,382,-4734,23,-44,-19,17
43,-7583,-15,365,-4733,23,-44,-19,17
44,-7576,-14,358,-4733,23,-44,-19,17
45,-7582,-12,370,-4734,23,-44,-19,17
46,-7573,-13,378,-4733,23,-44,-20,17
47,-7565,-6,384,-4733,23,-44,-20,17
48,-7566,-9,374,-4735,23,-43,-20,16
49,-7572,-8,379,-4738,23,-43,-19,17
50,-7574,-5,381,-4737,23,-44,-20,16
51,-7562,6,374,-4735,23,-44,-19,17
52,-7564,5,370,-4733,23,-43,-19,17
53,-7566,-10,372,-4733,23,-43,-20,17
54,-7583,-2,376,-4735,23,-44,-20,17
55,-7584,0,380,-4735,23,-43,-19,18
56,-7581,-2,367,-4733,23,-44,-19,17
57,-7581,-9,360,-4732,23,-44,-20,17
58,-7577,-13,379,-4731,23,-44,-20,17
59,-7583,-18,365,-4731,23,-44,-20,17
60,-7576,-10,383,-4733,23,-44,-20,17
61,-7578,0,376,-4732,23,-43,-19,17
62,-7578,-12,370,-4731,23,-44,-19,17
63,-7576,-4,376,-4728,23,-44,-19,16
64,-7579,-10,370,-4729,23,-44,-19,17
65,-7583,-11,389,-4729,23,-44,-19,17
66,-7588,-12,386,-4729,23,-44,-19,17
67,-7586,-4,374,-4731,23,-45,-19,17
68,-7582,0,376,-4731,23,-44,-19,16
69,-7588,3,378,-4730,23,-44,-19,17
70,-7589,3,378,-4731,23,-44,-19,17
71,-7592,-4,374,-4729,23,-44,-19,17
72,-7583,-11,380,-4728,23,-44,-19,17
73,-7590,-7,380,-4727,23,-44,-19,17
74,-7584,-12,379,-4730,23,-44,-19,17
75,-7579,-27,378,-4730,23,-44,-19,18
76,-7587,-16,377,-4729,23,-44,-19,17
77,-7581,-8,383,-4727,23,-44,-19,17
78,-7575,0,377,-4729,23,-44,-19,17
79,-7572,-1,370,-4728,23,-43,-19,17
80,-7572,-1,368,-4729,23,-44,-19,17
81,-7576,-5,364,-4730,23,-43,-19,17
82,-7580,-2,362,-4729,23,-44,-19,18
83,-7579,2,364,-4728,23,-44,-20,17
84,-7568,-10,380,-4730,23,-44,-20,17
85,-7570,-14,372,-4731,23,-44,-20,17
86,-7573,-17,378,-4730,23,-44,-20,17
87,-7568,-19,379,-4728,23,-44,-19,17
88,-7571,-13,376,-4726,23,-44,-19,17
89,-7577,-3,380,-4726,23,-44,-20,18
90,-7584,-11,384,-4727,23,-44,-20,17
91,-7581,-10,384,-4727,23,-44,-20,17
92,-7574,-13,384,-4725,23,-43,-20,16
93,-7577,1,371,-4725,23,-44,-19,16
94,-7569,-2,363,-4726,23,-44,-19,17
95,-7586,1,368,-4723,23,-44,-20,17
96,-7581,-7,378,-4722,23,-44,-20,17
97,-7574,-3,382,-4723,23,-44,-20,17
98,-7577,-10,380,-4724,23,-44,-20,17
99,-7587,-8,378,-4722,23,-44,-20,17
100,-7586,-5,373,-4723,23,-44,-20,17
101,-7581,-8,373,-4722,23,-44,-20,17
102,-7580,-9,377,-4721,23,-44,-20,17
103,-7573,-16,389,-4717,23,-43,-19,16
104,-7575,-21,388,-4717,23,-43,-20,17
105,-7586,-21,389,-4715,23,-44,-20,16
106,-7577,-11,389,-4719,23,-44,-19,17
107,-7585,-7,379,-4719,23,-44,-19,17
108,-7594,-12,378,-4719,23,-44,-20,17
109,-7583,-14,384,-4721,23,-44,-19,17
110,-7586,-5,380,-4721,23,-44,-20,17
111,-7583,-7,380,-4723,23,-44,-20,17
112,-7579,-7,367,-4722,23,-44,-20,17
113,-7576,-11,356,-4725,23,-44,-20,17
114,-7579,-5,354,-4725,23,-44,-20,17
115,-7570,-3,361,-4724,23,-44,-20,16
116,-7577,-11,362,-4720,23,-44,-19,17
117,-7580,-20,380,-4720,23,-44,-19,17
118,-7569,-11,383,-4722,23,-44,-19,17
119,-7574,-12,369,-4720,23,-43,-19,17
120,-7578,-11,367,-4720,23,-43,-19,17
121,-7577,-13,366,-4716,23,-44,-19,17
122,-7572,-9,361,-4717,23,-44,-19,17
123,-7576,-19,369,-4717,23,-44,-19,17
124,-7578,-11,373,-4716,23,-44,-19,17
125,-7583,-3,373,-4717,23,-44,-19,17
126,-7581,0,387,-4716,23,-43,-19,17
127,-7579,-2,381,-4714,23,-43,-20,16
128,-7583,-4,386,-4717,23,-44,-20,16
129,-7582,-4,388,-4714,23,-44,-20,17
130,-7582,-2,380,-4714,23,-44,-19,17
131,-7585,-1,362,-4716,23,-44,-19,17
132,-7586,-2,369,-4720,23,-44,-19,17
133,-7583,-3,364,-4716,23,-44,-19,17
134,-7580,3,357,-4716,23,-43,-19,17
135,-7585,-4,349,-4717,23,-44,-20,17
136,-7577,-4,367,-4713,23,-44,-20,17
137,-7581,-2,381,-4716,23,-44,-20,17
138,-7575,-11,378,-4716,23,-44,-20,17
139,-7578,-9,377,-4714,23,-44,-19,17
140,-7576,0,364,-4713,23,-44,-19,17
141,-7582,2,365,-4716,23,-44,-20,17
142,-7574,5,374,-4713,23,-44,-20,17
143,-7575,-5,373,-4716,23,-44,-20,17
144,-7570,-6,375,-4715,23,-44,-20,17
145,-7581,-9,374,-4713,23,-44,-20,17
146,-7578,-9,363,-4712,23,-43,-19,17
147,-7570,-1,359,-4715,23,-44,-20,17
148,-7582,-7,366,-4716,23,-44,-19,16
149,-7588,-7,365,-4715,23,-44,-20,16
150,-7583,-13,357,-4714,23,-44,-19,17
151,-7577,-16,355,-4712,23,-44,-19,17
152,-7571,-4,364,-4714,23,-44,-20,17
153,-7578,-8,371,-4713,23,-44,-20,17
154,-7575,-8,371,-4715,23,-44,-20,17
155,-7574,-4,371,-4714,23,-44,-20,17
156,-7580,-9,369,-4716,23,-44,-20,17
157,-7580,-3,366,-4714,23,-43,-20,17
158,-7579,-9,369,-4712,23,-43,-20,17
159,-7572,-12,361,-4709,23,-44,-20,17
160,-7566,-9,362,-4714,23,-43,-20,18
161,-7577,-9,366,-4712,23,-44,-20,17
162,-7573,-2,367,-4712,23,-44,-20,17
163,-7575,4,369,-4713,23,-44,-20,18
164,-7576,-4,385,-4713,23,-43,-20,17
165,-7580,-1,386,-4714,23,-44,-20,17
166,-7579,-6,382,-4715,23,-43,-19,16
167,-7581,-3,396,-4713,23,-44,-19,17
168,-7575,-3,373,-4710,23,-44,-19,17
169,-7574,-5,378,-4710,23,-44,-19,17
170,-7571,-3,376,-4711,23,-44,-19,17
171,-7573,-2,374,-4712,23,-44,-19,17
172,-7574,-8,372,-4714,23,-44,-19,17
173,-7575,-4,373,-4712,23,-43,-20,16
174,-7581,-2,372,-4712,23,-44,-20,17
175,-7573,-3,379,-4709,23,-44,-20,17
176,-7573,1,388,-4705,23,-44,-20,17
177,-7565,1,393,-4707,23,-44,-20,17
178,-7568,-2,385,-4706,23,-44,-20,16
179,-7578,5,368,-4709,23,-44,-20,17
180,-7576,-3,373,-4707,23,-44,-19,17
181,-7581,-7,370,-4711,23,-45,-19,17
182,-7583,-13,381,-4709,23,-44,-19,17
183,-7580,-14,378,-4707,23,-44,-19,17
184,-7579,-7,385,-4709,23,-44,-20,17
185,-7581,0,387,-4707,23,-44,-20,17
186,-7579,-4,381,-4706,23,-44,-20,17
187,-7578,-7,387,-4706,23,-44,-19,17
188,-7573,-7,385,-4705,23,-44,-19,17
189,-7572,-14,386,-4707,23,-44,-20,17
190,-7572,-11,382,-4707,23,-44,-19,17
191,-7577,-21,378,-4710,23,-43,-19,17
192,-7575,-6,381,-4710,23,-43,-19,17
193,-7576,-9,375,-4709,23,-44,-19,17
194,-7575,-19,375,-4712,23,-44,-19,17
195,-7573,-10,385,-4712,23,-44,-19,17
196,-7578,-17,387,-4713,23,-43,-19,17
197,-7582,-13,379,-4709,23,-43,-19,17
198,-7583,-15,383,-4707,23,-44,-18,16
199,-7581,-7,383,-4706,23,-43,-18,16
200,-7575,-10,387,-4705,23,-44,-19,17
201,-7580,-3,367,-4703,23,-44,-19,17
202,-7577,-8,362,-4706,23,-44,-19,17
203,-7572,2,357,-4707,23,-44,-19,17
204,-7577,1,364,-4706,23,-44,-19,17
205,-7570,-3,375,-4705,23,-44,-19,17
206,-7578,4,372,-4705,23,-43,-19,17
207,-7585,-1,373,-4708,23,-44,-19,17
208,-7582,-2,376,-4705,23,-43,-19,17
209,-7579,-4,363,-4708,23,-43,-19,17
210,-7574,-2,363,-4710,23,-43,-19,17
211,-7572,-1,366,-4707,23,-44,-20,18
212,-7574,2,381,-4709,23,-44,-20,18
213,-7574,4,382,-4707,23,-44,-19,18
214,-7578,1,382,-4705,23,-44,-20,17
215,-7569,1,384,-4704,23,-44,-20,17
216,-7572,2,379,-4706,23,-44,-20,17
217,-7584,3,366,-4708,23,-44,-20,17
218,-7580,-2,373,-4707,23,-44,-19,17
219,-7569,-12,368,-4703,23,-44,-20,17
220,-7579,-14,372,-4704,23,-44,-20,17
221,-7575,-13,381,-4705,23,-43,-19,17
222,-7571,-13,376,-4706,23,-43,-19,17
223,-7578,-22,373,-4704,23,-43,-19,17
224,-7577,-10,371,-4703,23,-43,-19,17
225,-7568,-11,371,-4704,23,-44,-19,17
226,-7575,-9,370,-4702,23,-44,-19,17
227,-7579,-5,369,-4706,23,-44,-19,17
228,-7585,-4,367,-4707,23,-44,-19,16
229,-7583,-8,370,-4705,23,-44,-19,17
230,-7579,-5,372,-4705,23,-43,-19,17
231,-7575,-2,368,-4702,23,-43,-19,17
232,-7585,-5,375,-4701,23,-43,-19,17
233,-7586,-5,366,-4702,23,-43,-20,17
234,-7592,-9,362,-4699,23,-43,-19,17
235,-7594,-3,362,-4699,23,-43,-20,17
236,-7590,-12,367,-4701,23,-43,-19,17
237,-7581,-5,373,-4698,23,-43,-19,17
238,-7580,-6,372,-4699,23,-44,-19,17
239,-7584,-7,368,-4700,23,-44,-19,17
240,-7584,-3,366,-4698,23,-43,-19,17
241,-7579,-7,371,-4700,23,-43,-19,17
242,-7593,-5,373,-4698,23,-44,-19,17
243,-7586,-2,381,-4698,23,-44,-19,17
244,-7589,-10,381,-4699,23,-44,-19,17
245,-7583,-6,372,-4698,23,-44,-20,17
246,-7585,-9,374,-4696,23,-44,-20,17
247,-7586,-18,383,-4699,23,-44,-20,17
248,-7591,-20,385,-4697,23,-44,-20,17
249,-7584,-12,371,-4701,23,-45,-20,17
250,-7586,-13,370,-4697,23,-44,-19,17
251,-7582,-5,373,-4698,23,-44,-19,17
252,-7586,-8,361,-4700,23,-44,-19,17
253,-7586,-7,362,-4698,23,-44,-19,17
254,-7588,-4,379,-4701,23,-44,-19,17
255,-7582,-2,377,-4698,23,-44,-19,17
256,-7581,-1,379,-4695,23,-44,-20,18
257,-7579,-5,364,-4696,23,-44,-20,17
258,-7576,-10,374,-4698,23,-44,-20,17
259,-7577,-13,385,-4698,23,-44,-20,17
260,-7570,-9,382,-4699,23,-44,-20,16
261,-7578,-9,378,-4697,23,-44,-20,17
262,-7581,1,374,-4698,23,-44,-20,17
263,-7578,-5,374,-4695,23,-44,-20,17
264,-7582,-5,366,-4697,23,-44,-19,17
265,-7574,-11,370,-4696,23,-44,-20,17
266,-7577,-2,377,-4697,23,-44,-19,17
267,-7572,-8,374,-4695,23,-44,-19,17
268,-7583,-9,375,-4697,23,-44,-19,17
269,-7583,-15,376,-4694,23,-44,-20,17
270,-7587,-14,371,-4695,23,-44,-20,16
271,-7573,-13,369,-4694,23,-44,-20,17
272,-7582,-6,368,-4699,23,-44,-19,16
273,-7575,-4,376,-4695,23,-44,-19,17
274,-7568,-7,381,-4696,23,-44,-20,17
275,-7572,3,383,-4697,23,-44,-20,17
276,-7571,0,390,-4695,23,-44,-19,17
277,-7570,-1,374,-4693,23,-44,-18,17
278,-7572,-1,371,-4694,23,-44,-19,17
279,-7573,-11,376,-4695,23,-44,-19,17
280,-7564,-16,380,-4696,23,-44,-19,17
281,-7566,-19,379,-4695,23,-44,-19,17
282,-7571,-6,379,-4696,23,-44,-20,17
283,-7582,-2,383,-4694,23,-44,-19,17
284,-7583,1,381,-4693,23,-44,-19,17
285,-7581,-11,380,-4692,23,-44,-19,17
286,-7579,-5,372,-4693,23,-44,-20,17
287,-7577,-12,366,-4692,23,-44,-20,17
288,-7578,-11,354,-4698,23,-44,-20,17
289,-7570,-11,361,-4698,23,-44,-20,17
290,-7573,-6,360,-4696,23,-45,-19,17
291,-7579,-12,371,-4696,23,-45,-20,17
292,-7588,-8,367,-4696,23,-45,-19,18
293,-7583,-7,366,-4697,23,-44,-19,17
294,-7583,-4,376,-4699,23,-44,-19,17
295,-7584,-5,374,-4695,23,-44,-20,17
296,-7580,-7,367,-4695,23,-44,-19,17
297,-7575,-8,371,-4694,23,-44,-20,17
298,-7581,-8,364,-4693,23,-44,-20,17
299,-7576,-12,375,-4695,23,-44,-20,17
300,-7577,-7,386,-4695,23,-43,-20,17
301,-7587,-6,377,-4696,23,-44,-20,17
302,-7584,-5,373,-4698,23,-44,-19,17
303,-7582,-4,374,-4695,23,-44,-20,17
304,-7582,-2,375,-4695,23,-44,-20,17
305,-7577,-2,370,-4690,23,-43,-20,17
306,-7573,0,367,-4691,23,-43,-19,17
307,-7583,0,376,-4694,23,-44,-19,17
308,-7582,2,382,-4692,23,-44,-19,17
309,-7573,2,382,-4693,23,-44,-19,16
310,-7576,-2,382,-4693,23,-44,-19,17
311,-7578,-6,386,-4692,23,-44,-20,17
312,-7578,-12,382,-4690,23,-44,-19,17
313,-7578,-10,371,-4695,23,-44,-19,17
314,-7574,-6,363,-4694,23,-45,-19,17
315,-7570,-1,354,-4690,23,-45,-20,18
316,-7573,0,365,-4688,23,-45,-19,18
317,-7575,-3,375,-4687,23,-45,-20,18
318,-7570,-4,370,-4689,23,-45,-20,18
319,-7578,-9,368,-4692,23,-45,-19,17
320,-7584,-4,363,-4691,23,-45,-19,18
321,-7573,-10,366,-4693,23,-45,-19,17
322,-7571,-6,375,-4692,23,-44,-19,17
323,-7570,-12,379,-4691,23,-44,-20,17
324,-7572,-3,382,-4689,23,-44,-20,17
325,-7581,-3,393,-4690,23,-44,-19,17
326,-7581,-7,394,-4692,23,-44,-19,17
327,-7576,-17,387,-4691,23,-44,-20,17
328,-7574,-8,377,-4688,23,-44,-19,17
329,-7571,-6,371,-4687,23,-43,-19,17
330,-7569,-11,366,-4689,23,-44,-19,17
331,-7579,-11,363,-4692,23,-44,-19,17
332,-7592,-18,375,-4691,23,-44,-20,17
333,-7589,-9,385,-4691,23,-44,-19,17
334,-7576,-10,381,-4689,23,-44,-19,17
335,-7575,-4,376,-4690,23,-44,-19,17
336,-7571,-7,371,-4689,23,-44,-19,17
337,-7581,-5,367,-4688,23,-44,-20,17
338,-7576,-12,376,-4691,23,-44,-20,17
339,-7577,-6,371,-4691,23,-44,-20,17
340,-7581,-11,385,-4686,23,-44,-20,17
341,-7585,-10,364,-4685,23,-44,-21,17
342,-7586,-8,373,-4685,23,-44,-20,17
343,-7582,-10,370,-4691,23,-44,-20,17
344,-7579,-5,362,-4692,23,-44,-20,17
345,-7568,1,374,-4694,23,-44,-19,17
346,-7565,-2,384,-4693,23,-44,-20,17
347,-7568,-4,382,-4692,23,-44,-20,17
348,-7581,-6,387,-4687,23,-43,-20,17
349,-7586,-6,387,-4691,23,-43,-19,17
350,-7591,-8,375,-4691,23,-44,-20,17
351,-7593,-10,383,-4690,23,-44,-19,17
352,-7587,-12,387,-4690,23,-44,-20,17
353,-7577,-13,380,-4687,23,-44,-20,17
354,-7581,-9,373,-4687,23,-44,-19,18
355,-7577,-10,364,-4687,23,-43,-19,17
356,-7568,-9,369,-4690,23,-43,-20,17
357,-7571,-9,378,-4688,23,-44,-19,16
358,-7575,-9,370,-4690,23,-44,-20,17
359,-7571,-12,365,-4688,23,-44,-20,17
360,-7561,-14,361,-4688,23,-44,-20,17
361,-7570,-6,370,-4687,23,-44,-19,17
362,-7569,-4,372,-4687,23,-44,-19,17
363,-7581,3,372,-4688,23,-44,-19,17
364,-7576,-7,388,-4687,23,-44,-18,17
365,-7577,-10,374,-4684,23,-43,-18,17
366,-7573,-4,372,-4684,23,-44,-19,17
367,-7581,-4,366,-4684,23,-44,-19,17
368,-7583,-17,364,-4684,23,-43,-19,17
369,-7577,-18,375,-4681,23,-43,-19,17
370,-7574,-14,370,-4682,23,-43,-19,17
371,-7572,-4,369,-4683,23,-43,-19,17
372,-7565,-2,381,-4683,23,-43,-20,18
373,-7573,-5,385,-4685,23,-44,-20,17
374,-7571,-2,376,-4687,23,-44,-20,17
375,-7568,0,367,-4685,23,-44,-20,17
376,-7576,-13,343,-4689,23,-44,-20,17
377,-7583,-13,349,-4691,23,-44,-20,17
378,-7580,-11,359,-4689,23,-44,-19,17
379,-7567,-10,371,-4688,23,-44,-19,17
380,-7568,-8,380,-4688,23,-44,-19,17
381,-7577,-5,373,-4691,23,-44,-19,17
382,-7575,-4,373,-4686,23,-44,-19,17
383,-7572,-12,369,-4687,23,-44,-19,17
384,-7578,-7,374,-4688,23,-44,-19,17
385,-7576,-14,378,-4686,23,-43,-19,17
386,-7580,-12,379,-4689,23,-44,-19,17
387,-7569,-14,373,-4692,23,-44,-19,17
388,-7568,-8,370,-4688,23,-44,-19,18
389,-7579,-10,375,-4684,23,-44,-18,17
390,-7579,1,363,-4688,23,-44,-19,17
391,-7582,-12,368,-4687,23,-44,-19,17
392,-7581,-5,375,-4687,23,-45,-19,17
393,-7581,-8,377,-4688,23,-44,-19,17
394,-7583,-16,368,-4688,23,-44,-19,17
395,-7581,-21,366,-4687,23,-44,-20,17
396,-7581,-23,367,-4689,23,-44,-19,17
397,-7595,-8,366,-4689,23,-44,-20,17
398,-7584,-6,356,-4688,23,-44,-20,17
399,-7586,-3,369,-4687,23,-44,-20,17
400,-7577,-7,383,-4687,23,-44,-19,17
401,-7571,-9,376,-4689,23,-44,-19,17
402,-7573,-9,359,-4689,23,-44,-19,17
403,-7576,-5,372,-4689,23,-44,-19,17
404,-7577,-6,369,-4687,23,-44,-20,17
405,-7578,-1,384,-4688,23,-44,-20,17
406,-7587,0,381,-4686,23,-44,-20,17
407,-7575,-3,386,-4681,23,-44,-20,16
408,-7577,0,384,-4683,23,-44,-19,16
409,-7577,-12,382,-4684,23,-44,-20,17
410,-7589,-13,364,-4683,23,-44,-19,17
411,-7580,-11,364,-4680,23,-44,-19,17
412,-7589,-6,364,-4681,23,-44,-19,17
413,-7584,-4,363,-4680,23,-44,-19,18
414,-7582,8,375,-4678,23,-44,-19,17
415,-7579,-1,378,-4681,23,-44,-19,17
416,-7581,-17,379,-4679,23,-44,-19,17
417,-7586,-17,371,-4679,23,-44,-19,17
418,-7585,-13,374,-4681,23,-44,-19,17
419,-7582,-13,368,-4683,23,-44,-19,17
420,-7585,-7,370,-4683,23,-44,-20,17
421,-7587,-16,371,-4686,23,-44,-20,17
422,-7588,-15,371,-4684,23,-45,-20,17
423,-7581,-13,369,-4681,23,-45,-20,17
424,-7582,-10,371,-4679,23,-44,-21,17
425,-7579,-9,365,-4680,23,-44,-20,17
426,-7581,-6,369,-4679,23,-44,-20,17
427,-7586,0,377,-4679,23,-44,-19,17
428,-7579,-5,385,-4677,23,-44,-20,17
429,-7570,-13,370,-4676,23,-45,-20,17
430,-7572,-10,381,-4676,23,-44,-20,17
431,-7566,0,368,-4677,23,-44,-20,17
432,-7558,1,369,-4679,23,-44,-20,17
433,-7566,-8,367,-4679,23,-44,-20,17
434,-7571,-6,376,-4681,23,-44,-20,17
435,-7572,-4,382,-4682,23,-44,-20,17
436,-7571,-7,370,-4683,23,-44,-20,17
437,-7573,-9,383,-4680,23,-44,-20,17
438,-7567,-10,385,-4680,23,-44,-20,18
439,-7567,-10,385,-4681,23,-44,-20,18
440,-7568,-8,368,-4682,23,-44,-20,17
441,-7574,-10,380,-4679,23,-44,-20,17
442,-7571,-21,389,-4680,23,-44,-20,17
443,-7571,-15,374,-4675,23,-43,-20,16
444,-7569,-12,369,-4677,23,-43,-20,17
445,-7577,-12,371,-4679,23,-44,-20,17
446,-7572,-10,380,-4679,23,-43,-19,17
447,-7580,-9,377,-4679,23,-44,-19,17
448,-7580,-6,371,-4680,23,-44,-20,16
449,-7580,-9,370,-4677,23,-44,-19,17
450,-7580,-2,383,-4677,23,-45,-19,17
451,-7584,-1,384,-4678,23,-44,-20,17
452,-7578,-7,379,-4680,23,-44,-20,17
453,-7570,-11,399,-4678,23,-44,-20,18
454,-7577,-17,392,-4680,23,-44,-20,17
455,-7584,-13,386,-4681,23,-44,-20,17
456,-7585,-2,390,-4681,23,-44,-20,18
457,-7578,0,380,-4677,23,-44,-20,17
458,-7576,-4,377,-4678,23,-44,-20,17
459,-7580,-13,374,-4678,23,-45,-20,17
460,-7579,-10,369,-4677,23,-45,-20,17
461,-7582,-7,367,-4677,23,-45,-20,17
462,-7576,2,362,-4675,23,-45,-20,17
463,-7578,9,371,-4675,23,-44,-19,17
464,-7578,7,374,-4675,23,-44,-20,17
465,-7577,0,370,-4674,23,-44,-20,17
466,-7565,-5,372,-4676,23,-44,-20,17
467,-7570,-3,373,-4676,23,-44,-19,17
468,-7575,-6,366,-4675,23,-44,-19,17
469,-7577,-4,357,-4676,23,-44,-20,17
470,-7581,-10,352,-4677,23,-44,-19,17
471,-7582,-13,380,-4675,23,-44,-19,17
472,-7574,-12,386,-4676,23,-44,-20,17
473,-7580,-23,388,-4678,23,-44,-19,17
474,-7573,-25,379,-4680,23,-44,-19,17
475,-7580,-22,383,-4683,23,-44,-19,17
476,-7572,-20,377,-4683,23,-44,-20,17
477,-7574,-19,365,-4680,23,-44,-19,17
478,-7579,-15,362,-4676,23,-44,-19,17
479,-7578,-14,373,-4678,23,-44,-20,17
480,-7578,-14,372,-4679,23,-44,-19,17
481,-7577,-11,377,-4675,23,-45,-19,17
482,-7576,-13,374,-4672,23,-44,-19,17
483,-7574,-23,366,-4674,23,-44,-19,17
484,-7577,-14,362,-4673,23,-45,-20,17
485,-7589,-5,370,-4673,23,-44,-20,17
486,-7584,-4,365,-4674,23,-44,-20,17
487,-7583,-8,355,-4676,23,-44,-20,18
488,-7581,-12,361,-4680,23,-44,-20,17
489,-7583,-12,359,-4681,23,-44,-20,17
490,-7580,-14,362,-4678,23,-44,-20,17
491,-7583,-1,363,-4677,23,-44,-20,17
492,-7589,-5,365,-4673,23,-44,-19,17
493,-7598,-2,356,-4671,23,-44,-19,17
494,-7590,-10,362,-4676,23,-44,-19,17
495,-7584,7,374,-4678,23,-45,-19,17
496,-7585,0,374,-4679,23,-44,-20,17
497,-7572,-4,378,-4678,23,-44,-20,17
498,-7570,0,381,-4677,23,-44,-20,17
499,-7570,-5,393,-4674,23,-44,-20,17
500,-7563,-2,389,-4674,23,-44,-20,17
501,-7567,-5,393,-4674,23,-44,-19,17
502,-7567,-14,388,-4677,23,-44,-20,17
503,-7562,-6,382,-4673,23,-44,-19,17
504,-7576,-2,377,-4675,23,-44,-19,17
505,-7575,-12,374,-4675,23,-44,-19,17
506,-7578,-9,378,-4676,23,-44,-19,17
507,-7574,-14,387,-4676,23,-44,-18,17
508,-7575,-2,391,-4678,23,-44,-19,16
509,-7577,-7,386,-4678,23,-44,-19,17
510,-7572,-7,380,-4675,23,-44,-19,17
511,-7580,-8,372,-4676,23,-44,-19,17
512,-7578,-11,369,-4676,23,-44,-18,17
513,-7579,-13,369,-4677,23,-44,-19,17
514,-7568,-9,371,-4675,23,-44,-19,17
515,-7577,1,378,-4674,23,-44,-19,16
516,-7583,-6,379,-4672,23,-44,-19,17
517,-7579,-1,377,-4673,23,-44,-19,17
518,-7582,-9,373,-4673,23,-44,-19,16
519,-7587,-7,389,-4674,23,-44,-19,16
520,-7582,-6,393,-4675,23,-44,-19,16
521,-7584,-1,381,-4675,23,-44,-19,17
522,-7577,-3,384,-4678,23,-44,-19,17
523,-7583,4,370,-4678,23,-44,-20,17
524,-7583,-8,367,-4677,23,-44,-20,17
525,-7580,0,382,-4676,23,-44,-20,17
526,-7587,-4,373,-4674,23,-44,-20,18
527,-7580,-3,373,-4675,23,-44,-19,17
528,-7581,-7,365,-4676,23,-44,-19,17
529,-7579,1,367,-4676,23,-44,-19,18
530,-7571,-2,371,-4674,23,-44,-19,17
531,-7578,-7,365,-4676,23,-44,-19,17
532,-7581,-8,374,-4676,23,-43,-19,17
533,-7582,-2,380,-4674,23,-44,-19,17
534,-7582,-7,374,-4676,23,-44,-19,17
535,-7580,-4,365,-4675,23,-44,-19,17
536,-7582,-6,357,-4679,23,-44,-20,17
537,-7578,-3,360,-4678,23,-44,-20,17
538,-7580,-10,368,-4678,23,-44,-20,17
539,-7575,-1,379,-4677,23,-44,-20,17
540,-7577,4,396,-4675,23,-43,-19,17
541,-7572,6,382,-4678,23,-44,-19,17
542,-7579,-2,369,-4675,23,-44,-19,17
543,-7574,-10,367,-4675,23,-44,-19,16
544,-7581,-3,375,-4676,23,-44,-19,16
545,-7587,-12,374,-4674,23,-44,-19,17
546,-7580,-19,384,-4673,23,-44,-19,17
547,-7578,-18,382,-4672,23,-44,-19,16
548,-7569,-12,373,-4671,23,-44,-19,17
549,-7569,-10,372,-4671,23,-44,-19,16
550,-7573,-9,374,-4671,23,-44,-20,17
551,-7567,-15,369,-4670,23,-44,-20,17
552,-7574,-18,375,-4673,23,-44,-19,17
553,-7578,-11,376,-4673,23,-43,-19,17
554,-7573,-4,385,-4669,23,-44,-20,17
555,-7577,-12,370,-4669,23,-44,-20,17
556,-7579,-12,367,-4668,23,-44,-19,17
557,-7573,-7,361,-4666,23,-44,-19,17
558,-7575,-12,363,-4669,23,-44,-19,17
559,-7579,-6,368,-4666,23,-44,-19,17
560,-7579,-2,383,-4669,23,-44,-19,17
561,-7574,-1,383,-4669,23,-44,-20,17
562,-7574,-3,368,-4668,23,-44,-19,17
563,-7570,0,376,-4668,23,-44,-19,16
564,-7572,2,380,-4671,23,-44,-19,17
565,-7578,-9,380,-4670,23,-44,-19,17
566,-7579,-7,366,-4672,23,-44,-20,17
567,-7582,-6,379,-4671,23,-44,-19,17
568,-7581,1,379,-4667,23,-44,-19,17
569,-7581,-7,380,-4668,23,-43,-20,17
570,-7577,-5,379,-4671,23,-44,-19,17
571,-7581,-4,369,-4671,23,-44,-19,17
572,-7586,-9,376,-4673,23,-44,-20,17
573,-7583,-10,379,-4670,23,-44,-19,17
574,-7572,-17,372,-4668,23,-44,-19,17
575,-7583,-16,381,-4669,23,-44,-19,17
576,-7579,-10,381,-4668,23,-44,-19,17
577,-7577,0,383,-4669,23,-44,-19,17
578,-7578,-7,380,-4669,23,-43,-20,17
579,-7574,-10,381,-4670,23,-44,-20,17
580,-7574,-4,372,-4667,23,-44,-19,17
581,-7574,-4,365,-4665,23,-43,-20,17
582,-7578,1,360,-4666,23,-43,-20,17
583,-7573,4,369,-4669,23,-43,-20,17
584,-7574,-3,381,-4667,23,-44,-19,17
585,-7571,-7,376,-4669,23,-44,-20,17
586,-7582,4,375,-4670,23,-44,-19,17
587,-7573,1,380,-4670,23,-44,-19,17
588,-7565,-4,384,-4670,23,-44,-19,17
589,-7571,-10,387,-4671,23,-44,-19,17
590,-7576,-8,384,-4672,23,-44,-19,18
591,-7583,-5,383,-4670,23,-44,-19,17
592,-7581,-9,377,-4672,23,-44,-19,17
593,-7588,2,383,-4671,23,-44,-19,18
594,-7577,-2,374,-4672,23,-44,-20,17
595,-7577,-6,368,-4675,23,-44,-20,17
596,-7585,0,380,-4675,23,-44,-19,17
597,-7584,3,370,-4674,23,-44,-19,17
598,-7581,4,384,-4672,23,-44,-19,17
599,-7577,7,374,-4673,23,-44,-20,17
600,-7572,0,388,-4671,23,-44,-20,17
601,-7566,-3,384,-4669,23,-43,-20,17
602,-7559,-9,372,-4668,23,-43,-20,17
603,-7569,-6,378,-4671,23,-44,-20,17
604,-7572,-3,363,-4668,23,-44,-20,17
605,-7569,-8,368,-4669,23,-44,-20,17
606,-7569,-5,375,-4668,23,-43,-20,17
607,-7570,3,382,-4665,23,-43,-19,17
608,-7573,1,384,-4669,23,-44,-20,17
609,-7581,13,383,-4668,23,-44,-19,17
610,-7583,9,383,-4666,23,-44,-19,17
611,-7575,2,374,-4667,23,-44,-19,17
612,-7572,-9,385,-4671,23,-44,-19,17
613,-7572,-9,381,-4672,23,-44,-19,17
614,-7574,-13,383,-4670,23,-44,-19,17
615,-7580,-12,379,-4668,23,-44,-19,17
616,-7572,-18,376,-4669,23,-44,-20,17
617,-7575,-2,385,-4672,23,-44,-20,17
618,-7572,2,367,-4672,23,-44,-20,17
619,-7572,-1,370,-4670,23,-44,-19,17
620,-7571,-3,372,-4668,23,-44,-19,17
621,-7574,-2,361,-4667,23,-44,-20,17
622,-7577,-10,371,-4668,23,-44,-20,17
623,-7574,-6,372,-4671,23,-44,-20,17
624,-7579,-9,365,-4668,23,-44,-20,17
625,-7583,-6,372,-4672,23,-44,-20,17
626,-7578,-15,373,-4666,23,-44,-19,17
627,-7574,-6,374,-4668,23,-44,-19,17
628,-7574,-1,366,-4667,23,-44,-19,17
629,-7579,2,374,-4666,23,-44,-19,17
630,-7580,-2,369,-4668,23,-44,-19,17
631,-7587,-4,376,-4668,23,-44,-20,17
632,-7584,-4,380,-4667,23,-44,-20,17
633,-7574,-14,375,-4668,23,-44,-20,17
634,-7566,-9,367,-4671,23,-44,-19,17
635,-7565,-3,376,-4668,23,-44,-19,17
636,-7573,-3,375,-4670,23,-44,-19,17
637,-7574,-1,371,-4670,23,-44,-19,17
638,-7577,-2,362,-4674,23,-44,-19,17
639,-7581,1,358,-4672,23,-44,-19,17
640,-7576,3,364,-4673,23,-44,-20,17
641,-7584,2,362,-4672,23,-45,-20,17
642,-7582,-3,377,-4672,23,-44,-19,17
643,-7575,0,378,-4671,23,-44,-20,17
644,-7571,1,366,-4673,23,-44,-20,17
645,-7572,-3,368,-4675,23,-44,-20,17
646,-7567,-10,373,-4669,23,-43,-20,17
647,-7573,-11,377,-4669,23,-44,-20,17
648,-7572,-6,379,-4668,23,-44,-20,17
649,-7577,-3,384,-4668,23,-43,-19,17
650,-7573,-10,374,-4667,23,-43,-19,18
651,-7573,-19,361,-4667,23,-43,-19,17
652,-7566,-19,358,-4672,23,-44,-19,17
653,-7571,-13,361,-4669,23,-43,-19,17
654,-7582,-7,366,-4669,23,-44,-19,18
655,-7581,-12,361,-4670,23,-44,-19,18
656,-7574,-14,371,-4668,23,-44,-19,18
657,-7576,-7,364,-4668,23,-44,-19,17
658,-7575,0,365,-4667,23,-44,-19,17
659,-7573,-4,367,-4667,23,-43,-20,17
660,-7573,-5,366,-4667,23,-43,-20,18
661,-7581,-8,376,-4668,23,-43,-19,18
662,-7575,-8,379,-4668,23,-43,-19,18
663,-7577,2,372,-4667,23,-43,-19,17
664,-7579,-7,369,-4666,23,-44,-19,17
665,-7582,-8,376,-4664,23,-44,-19,17
666,-7582,-7,378,-4665,23,-44,-20,17
667,-7576,-5,380,-4664,23,-44,-19,17
668,-7581,-7,374,-4665,23,-44,-19,16
669,-7575,-5,376,-4667,23,-44,-19,16
670,-7567,-7,373,-4667,23,-44,-19,16
671,-7560,-1,358,-4669,23,-44,-19,16
672,-7576,-2,357,-4667,23,-44,-20,17
673,-7567,-1,368,-4668,23,-44,-20,17
674,-7569,2,367,-4669,23,-44,-19,17
675,-7569,0,375,-4665,23,-44,-19,17
676,-7568,-12,381,-4665,23,-44,-20,17
677,-7570,-16,390,-4667,23,-44,-20,17
678,-7581,-15,394,-4666,23,-44,-20,17
679,-7586,-26,379,-4664,23,-44,-19,17
680,-7584,-24,382,-4664,23,-44,-20,17
681,-7582,-15,381,-4665,23,-44,-19,17
682,-7590,-10,374,-4665,23,-44,-19,18
683,-7595,-4,367,-4667,23,-45,-19,17
684,-7587,0,372,-4665,23,-44,-19,17
685,-7577,6,371,-4666,23,-44,-19,17
686,-7585,-2,379,-4667,23,-44,-19,17
687,-7588,-3,385,-4667,23,-43,-19,17
688,-7583,-4,393,-4666,23,-44,-19,17
689,-7581,4,384,-4667,23,-44,-19,17
690,-7581,3,394,-4667,23,-44,-20,17
691,-7571,11,387,-4665,23,-44,-20,17
692,-7572,2,388,-4663,23,-44,-20,17
693,-7581,3,378,-4665,23,-44,-19,17
694,-7579,6,359,-4664,23,-44,-20,18
695,-7586,-1,353,-4662,23,-44,-20,17
696,-7581,-3,362,-4666,23,-44,-19,17
697,-7584,-5,377,-4666,23,-44,-19,17
698,-7588,-5,367,-4665,23,-44,-20,17
699,-7588,-3,375,-4666,23,-44,-19,17
700,-7583,-5,366,-4662,23,-44,-19,17
701,-7580,-12,378,-4663,23,-44,-20,17
702,-7576,-16,376,-4665,23,-44,-19,17
703,-7567,-18,373,-4663,23,-44,-19,17
704,-7573,-10,372,-4664,23,-44,-19,17
705,-7578,-6,376,-4663,23,-44,-20,17
706,-7577,-8,375,-4664,23,-43,-20,17
707,-7584,-3,383,-4664,23,-43,-20,17
708,-7592,-7,383,-4665,23,-44,-19,17
709,-7588,-1,373,-4664,23,-44,-19,17
710,-7580,-6,380,-4666,23,-44,-19,17
711,-7576,-10,376,-4664,23,-44,-20,17
712,-7574,-13,383,-4661,23,-44,-19,17
713,-7572,-4,360,-4662,23,-44,-19,17
714,-7570,-5,368,-4662,23,-44,-19,17
715,-7567,-7,384,-4665,23,-44,-19,16
716,-7580,-15,382,-4668,23,-44,-19,17
717,-7573,-9,375,-4669,23,-44,-19,17
718,-7581,-9,371,-4666,23,-44,-19,17
719,-7584,-7,383,-4664,23,-44,-19,18
720,-7580,-11,387,-4666,23,-44,-20,17
721,-7573,-4,382,-4667,23,-44,-19,17
722,-7574,-11,382,-4668,23,-44,-20,17
723,-7579,-9,378,-4665,23,-44,-20,17
724,-7577,-14,383,-4663,23,-44,-20,17
725,-7582,-8,383,-4662,23,-44,-19,17
726,-7578,-2,387,-4664,23,-44,-20,17
727,-7577,1,379,-4663,23,-44,-20,17
728,-7580,-1,376,-4663,23,-44,-19,17
729,-7583,5,370,-4663,23,-44,-20,17
730,-7577,5,370,-4664,23,-44,-19,17
731,-7588,5,364,-4663,23,-44,-19,17
732,-7589,1,380,-4663,23,-44,-19,17
733,-7574,-8,375,-4659,23,-44,-19,17
734,-7569,-11,403,-4663,23,-44,-20,17
735,-7576,-1,392,-4664,23,-44,-20,17
736,-7579,1,376,-4665,23,-44,-20,17
737,-7580,-4,370,-4662,23,-44,-20,16
738,-7587,2,364,-4666,23,-44,-20,17
739,-7583,0,379,-4666,23,-44,-20,17
740,-7590,9,381,-4666,23,-44,-19,17
741,-7588,5,379,-4664,23,-44,-19,17
742,-7589,0,359,-4663,23,-44,-20,17
743,-7578,-7,377,-4664,23,-43,-19,17
744,-7580,-12,374,-4663,23,-43,-19,17
745,-7573,-13,367,-4661,23,-44,-19,17
746,-7573,-12,386,-4660,23,-44,-19,17
747,-7581,-10,395,-4663,23,-44,-19,17
748,-7583,-3,396,-4663,23,-44,-20,17
749,-7581,0,384,-4662,23,-44,-20,17
750,-7576,-9,391,-4665,23,-44,-20,17
751,-7575,-15,392,-4665,23,-44,-20,17
752,-7576,-8,386,-4664,23,-44,-20,17
753,-7568,-7,387,-4665,23,-44,-19,17
754,-7579,-10,385,-4664,23,-44,-19,17
755,-7580,-13,388,-4666,23,-43,-19,16
756,-7583,-8,382,-4669,23,-44,-19,17
757,-7584,-7,387,-4668,23,-44,-18,17
758,-7581,-5,388,-4668,23,-44,-18,17
759,-7578,-7,392,-4666,23,-44,-19,17
760,-7567,-8,404,-4667,23,-44,-19,16
761,-7565,1,391,-4666,23,-43,-20,16
762,-7563,0,381,-4666,23,-43,-20,17
763,-7573,-6,396,-4664,23,-44,-20,17
764,-7577,-4,388,-4665,23,-44,-19,17
765,-7582,-4,376,-4663,23,-44,-19,17
766,-7584,-9,385,-4663,23,-43,-20,17
767,-7580,-8,385,-4662,23,-44,-19,17
768,-7585,-9,380,-4661,23,-44,-20,17
769,-7589,-6,368,-4663,23,-44,-19,17
770,-7582,-7,369,-4663,23,-44,-20,17
771,-7578,0,364,-4666,23,-43,-20,17
772,-7572,-13,366,-4664,23,-44,-20,17
773,-7578,-16,368,-4661,23,-44,-20,17
774,-7575,-1,371,-4660,23,-45,-20,17
775,-7577,-1,374,-4659,23,-44,-20,17
776,-7575,7,374,-4660,23,-44,-20,17
777,-7575,0,367,-4661,23,-44,-20,17
778,-7580,1,379,-4662,23,-44,-19,17
779,-7578,-13,372,-4661,23,-44,-20,17
780,-7574,-8,371,-4661,23,-45,-20,17
781,-7573,-3,371,-4660,23,-45,-20,17
782,-7577,3,362,-4662,23,-44,-20,17
783,-7579,3,371,-4662,23,-44,-20,17
784,-7578,-4,384,-4663,23,-44,-20,17
785,-7578,3,378,-4661,23,-44,-20,17
786,-7579,-4,360,-4660,23,-44,-20,17
787,-7576,-3,360,-4661,23,-44,-19,17
788,-7572,4,371,-4662,23,-44,-19,17
789,-7572,7,369,-4661,23,-44,-19,17
790,-7573,-4,373,-4662,23,-44,-20,17
791,-7576,-6,377,-4660,23,-44,-20,17
792,-7581,-6,363,-4659,23,-45,-20,17
793,-7583,-1,381,-4663,23,-44,-20,17
794,-7579,7,374,-4663,23,-44,-19,17
795,-7570,1,382,-4664,23,-44,-19,17
796,-7575,0,378,-4660,23,-44,-20,17
797,-7582,-5,386,-4662,23,-44,-20,17
798,-7581,-12,384,-4663,23,-44,-20,17
799,-7579,-11,382,-4663,23,-44,-19,17
800,-7583,-11,378,-4662,23,-44,-19,17
801,-7582,-3,366,-4664,23,-44,-20,17
802,-7587,5,381,-4662,23,-45,-19,18
803,-7578,1,382,-4663,23,-44,-19,17
804,-7583,-3,400,-4666,23,-45,-20,17
805,-7586,-2,386,-4663,23,-44,-19,17
806,-7584,-10,389,-4663,23,-44,-19,17
807,-7583,-6,380,-4662,23,-45,-19,17
808,-7591,-4,385,-4661,23,-45,-20,16
809,-7592,-7,369,-4662,23,-45,-20,16
810,-7588,-7,373,-4666,23,-44,-19,17
811,-7592,-13,368,-4665,23,-44,-20,17
812,-7588,-4,370,-4662,23,-44,-19,17
813,-7580,1,372,-4660,23,-44,-19,17
814,-7576,-6,379,-4657,23,-44,-19,17
815,-7588,0,377,-4657,23,-44,-20,17
816,-7586,2,380,-4659,23,-44,-20,17
817,-7600,2,376,-4659,23,-44,-20,16
818,-7596,4,380,-4658,23,-44,-20,17
819,-7587,1,373,-4657,23,-44,-20,17
820,-7580,-10,374,-4661,23,-44,-20,17
821,-7578,-16,380,-4658,23,-44,-20,17
822,-7576,-8,386,-4658,23,-44,-19,17
823,-7569,-3,379,-4658,23,-44,-19,17
824,-7564,1,387,-4662,23,-44,-19,18
825,-7572,6,394,-4661,23,-44,-19,17
826,-7582,4,391,-4659,23,-44,-19,17
827,-7582,3,374,-4660,23,-44,-19,17
828,-7578,2,385,-4661,23,-44,-19,17
829,-7578,-5,368,-4659,23,-44,-19,17
830,-7574,-3,375,-4657,23,-44,-19,17
831,-7577,-8,374,-4660,23,-44,-19,17
832,-7580,-11,375,-4660,23,-44,-19,17
833,-7581,-18,377,-4659,23,-44,-19,17
834,-7573,-11,386,-4658,23,-44,-20,17
835,-7583,-12,382,-4659,23,-44,-20,17
836,-7574,-17,375,-4659,23,-44,-20,17
837,-7575,-14,370,-4659,23,-44,-20,17
838,-7577,-3,373,-4661,23,-44,-19,17
839,-7572,-2,381,-4661,23,-44,-19,17
840,-7569,4,377,-4661,23,-44,-19,17
841,-7575,4,381,-4660,23,-44,-19,17
842,-7580,-5,382,-4661,23,-44,-19,16
843,-7571,-1,381,-4662,23,-44,-20,17
844,-7573,3,376,-4662,23,-44,-20,17
845,-7578,-6,399,-4661,23,-44,-19,17
846,-7581,-7,389,-4660,23,-44,-20,17
847,-7581,-12,385,-4659,23,-44,-19,17
848,-7578,-3,381,-4659,23,-44,-19,17
849,-7568,-4,380,-4659,23,-44,-19,17
850,-7580,-9,395,-4660,23,-44,-20,17
851,-7578,-3,401,-4659,23,-44,-19,17
852,-7578,4,391,-4656,23,-44,-19,17
853,-7575,-11,390,-4654,23,-44,-19,17
854,-7576,-15,370,-4656,23,-44,-19,17
855,-7575,-11,375,-4658,23,-44,-20,17
856,-7579,-7,376,-4658,23,-44,-20,17
857,-7577,-9,356,-4659,23,-44,-20,17
858,-7574,-10,357,-4660,23,-44,-19,17
859,-7574,-9,364,-4660,23,-44,-19,17
860,-7580,-1,374,-4657,23,-44,-20,17
861,-7578,-8,380,-4658,23,-44,-19,17
862,-7578,-9,371,-4658,23,-44,-20,17
863,-7582,-9,370,-4657,23,-44,-20,17
864,-7573,-8,373,-4659,23,-44,-20,17
865,-7570,-3,371,-4657,23,-44,-19,17
866,-7570,-2,358,-4658,23,-44,-20,17
867,-7571,-17,363,-4658,23,-44,-20,18
868,-7577,-16,369,-4659,23,-43,-20,18
869,-7581,-8,359,-4660,23,-43,-20,17
870,-7581,5,359,-4659,23,-43,-19,17
871,-7584,7,366,-4658,23,-44,-20,17
872,-7587,-7,373,-4656,23,-44,-20,17
873,-7590,-11,374,-4658,23,-44,-20,17
874,-7577,-6,375,-4659,23,-44,-19,17
875,-7575,5,375,-4657,23,-44,-19,17
876,-7572,2,371,-4658,23,-44,-20,17
877,-7574,-2,368,-4658,23,-44,-20,17
878,-7583,-4,378,-4655,23,-44,-20,17
879,-7583,-14,380,-4655,23,-44,-20,17
880,-7577,2,384,-4655,23,-44,-20,17
881,-7581,8,381,-4654,23,-44,-20,17
882,-7576,-2,379,-4654,23,-44,-20,17
883,-7580,-4,383,-4656,23,-44,-20,17
884,-7582,-13,388,-4654,23,-44,-19,17
885,-7579,-13,374,-4654,23,-44,-20,17
886,-7584,-12,371,-4656,23,-45,-19,17
887,-7589,-17,360,-4654,23,-44,-19,17
888,-7581,-18,374,-4659,23,-45,-20,17
889,-7587,-21,372,-4658,23,-44,-20,17
890,-7579,-13,384,-4656,23,-43,-19,17
891,-7578,-12,383,-4658,23,-44,-19,17
892,-7581,-6,373,-4658,23,-44,-20,17
893,-7576,-4,388,-4661,23,-43,-19,17
894,-7564,7,380,-4660,23,-43,-19,17
895,-7557,11,377,-4658,23,-43,-20,17
896,-7562,-3,373,-4657,23,-44,-20,17
897,-7564,2,372,-4657,23,-44,-20,17
898,-7575,0,365,-4657,23,-43,-20,17
899,-7577,-3,366,-4656,23,-44,-20,17
900,-7579,-16,370,-4652,23,-44,-20,17
901,-7580,-13,371,-4653,23,-44,-20,17
902,-7582,-8,372,-4655,23,-44,-20,17
903,-7583,-6,374,-4656,23,-44,-19,17
904,-7585,-5,384,-4657,23,-44,-20,17
905,-7583,-3,384,-4656,23,-44,-20,17
906,-7581,-2,376,-4660,23,-44,-20,17
907,-7587,-8,371,-4660,23,-44,-20,17
908,-7585,-9,372,-4657,23,-44,-19,17
909,-7573,-5,372,-4659,23,-44,-19,17
910,-7571,-1,372,-4657,23,-45,-19,17
911,-7574,-5,378,-4657,23,-44,-20,17
912,-7567,-12,385,-4659,23,-44,-20,17
913,-7575,-4,385,-4661,23,-44,-20,17
914,-7577,-3,380,-4659,23,-44,-20,17
915,-7576,-8,374,-4658,23,-45,-20,17
916,-7577,-8,377,-4655,23,-44,-19,17
917,-7574,-4,376,-4655,23,-44,-20,17
918,-7581,6,370,-4656,23,-45,-19,17
919,-7581,-1,366,-4657,23,-44,-20,17
920,-7578,-10,392,-4655,23,-45,-20,17
921,-7578,-10,385,-4655,23,-45,-20,17
922,-7589,-4,375,-4656,23,-44,-19,17
923,-7584,-10,378,-4654,23,-44,-19,17
924,-7573,-9,386,-4656,23,-44,-19,17
925,-7570,-11,375,-4656,23,-44,-20,17
926,-7573,-4,373,-4658,23,-44,-20,17
927,-7576,-2,383,-4659,23,-44,-19,17
928,-7583,-8,372,-4658,23,-44,-20,17
929,-7574,-14,379,-4656,23,-44,-19,18
930,-7576,-11,373,-4658,23,-44,-20,18
931,-7578,-13,389,-4655,23,-44,-20,18
932,-7574,-18,377,-4656,23,-44,-21,17
933,-7577,-17,376,-4654,23,-44,-20,17
934,-7577,-16,371,-4653,23,-44,-20,17
935,-7575,-14,371,-4653,23,-45,-20,17
936,-7579,-12,369,-4653,23,-44,-20,17
937,-7589,-12,390,-4650,23,-43,-20,17
938,-7577,-7,383,-4652,23,-43,-20,16
939,-7582,-13,373,-4653,23,-44,-19,17
940,-7580,-8,363,-4658,23,-44,-19,17
941,-7572,-9,368,-4657,23,-44,-19,17
942,-7569,-5,380,-4655,23,-44,-19,17
943,-7580,0,392,-4655,23,-44,-19,17
944,-7589,4,378,-4658,23,-44,-19,18
945,-7586,-1,368,-4655,23,-44,-19,17
946,-7576,3,363,-4657,23,-44,-19,17
947,-7578,-7,354,-4655,23,-44,-20,17
948,-7580,-9,366,-4656,23,-44,-19,17
949,-7579,-8,373,-4658,23,-44,-20,17
950,-7573,-3,367,-4659,23,-45,-20,17
951,-7575,0,372,-4657,23,-45,-20,17
952,-7580,-7,370,-4656,23,-44,-20,17
953,-7579,-3,385,-4656,23,-44,-19,17
954,-7578,6,384,-4657,23,-44,-20,17
955,-7567,5,379,-4656,23,-44,-19,17
956,-7583,5,375,-4656,23,-43,-20,16
957,-7577,-8,377,-4651,23,-44,-19,16
958,-7577,-12,396,-4651,23,-44,-20,17
959,-7581,-1,383,-4652,23,-44,-20,17
960,-7572,-4,374,-4653,23,-44,-19,17
961,-7581,-3,372,-4651,23,-44,-20,17
962,-7570,-6,380,-4653,23,-44,-19,17
963,-7567,1,385,-4654,23,-44,-19,18
964,-7578,1,381,-4656,23,-44,-19,17
965,-7584,-2,378,-4655,23,-44,-20,17
966,-7588,-4,377,-4654,23,-44,-19,17
967,-7580,2,371,-4654,23,-44,-20,17
968,-7580,0,364,-4653,23,-44,-19,17
969,-7581,-2,364,-4651,23,-43,-19,17
970,-7573,-10,365,-4648,23,-44,-20,17
971,-7581,-9,359,-4648,23,-44,-19,17
972,-7589,-13,365,-4650,23,-45,-19,17
973,-7585,-9,383,-4651,23,-45,-19,17
974,-7586,-11,385,-4653,23,-44,-19,17
975,-7575,-7,372,-4657,23,-44,-20,17
976,-7579,0,360,-4655,23,-44,-19,17
977,-7571,-3,350,-4655,23,-44,-20,17
978,-7581,-13,347,-4655,23,-44,-20,17
979,-7575,-14,363,-4658,23,-44,-20,18
980,-7571,-22,363,-4656,23,-44,-20,17
981,-7575,-11,366,-4656,23,-44,-20,17
982,-7578,-8,366,-4659,23,-44,-19,17
983,-7572,-15,380,-4658,23,-44,-20,17
984,-7577,-16,392,-4659,23,-44,-20,17
985,-7587,-13,388,-4661,23,-44,-19,17
986,-7588,-11,375,-4661,23,-45,-19,17
987,-7579,2,368,-4659,23,-44,-20,17
988,-7583,-4,366,-4658,23,-44,-19,17
989,-7570,-4,368,-4658,23,-44,-19,17
990,-7569,-3,385,-4657,23,-43,-19,17
991,-7576,-3,382,-4656,23,-44,-20,17
992,-7580,-6,380,-4653,23,-44,-20,17
993,-7573,-7,379,-4651,23,-44,-19,17
994,-7579,-13,376,-4651,23,-44,-19,17
995,-7582,-11,368,-4654,23,-44,-20,16
