,acc_X,acc_Y,acc_Z,temp,tempC,gyr_X,gyr_Y,gyr_Z
0,-1893,-2,92,-4652,23,-86,-40,36
1,-1893,-3,94,-4656,23,-86,-39,36
2,-1894,-2,94,-4653,23,-86,-37,37
3,-1894,-4,95,-4650,23,-88,-38,35
4,-1896,-4,94,-4648,23,-87,-38,35
5,-1895,-2,95,-4652,23,-87,-39,35
6,-1900,-6,96,-4653,23,-88,-39,35
7,-1896,-1,101,-4659,23,-87,-38,35
8,-1893,0,94,-4653,23,-87,-38,36
9,-1893,0,96,-4650,23,-87,-39,35
10,-1893,0,96,-4650,23,-87,-38,35
11,-1891,-1,95,-4655,23,-87,-40,35
12,-1895,0,96,-4650,23,-86,-40,35
13,-1891,1,92,-4651,23,-88,-40,35
14,-1894,-3,90,-4660,23,-85,-40,34
15,-1898,-4,90,-4657,23,-87,-39,35
16,-1897,-2,87,-4656,23,-86,-38,35
17,-1895,-6,91,-4653,23,-87,-39,34
18,-1896,-5,93,-4654,23,-88,-39,35
19,-1897,-3,92,-4654,23,-88,-39,36
20,-1896,-3,95,-4650,23,-87,-38,37
21,-1898,-2,96,-4652,23,-87,-38,35
22,-1898,-3,98,-4654,23,-87,-38,34
23,-1893,-3,97,-4651,23,-87,-38,34
24,-1892,-1,96,-4658,23,-88,-39,34
25,-1892,-6,96,-4659,23,-87,-39,35
26,-1896,-4,91,-4658,23,-88,-39,34
27,-1896,-5,93,-4654,23,-87,-38,35
28,-1895,0,98,-4650,23,-88,-39,34
29,-1896,-4,93,-4652,23,-86,-42,34
30,-1899,-4,93,-4653,23,-88,-39,33
31,-1895,-2,95,-4658,23,-87,-39,35
32,-1896,0,93,-4653,23,-87,-37,35
33,-1892,-1,94,-4651,23,-87,-37,35
34,-1892,-2,93,-4654,23,-86,-37,34
35,-1896,-5,96,-4653,23,-85,-38,35
36,-1897,0,98,-4650,23,-87,-40,36
37,-1895,-4,95,-4656,23,-88,-39,37
38,-1895,-2,85,-4657,23,-87,-40,35
39,-1894,-4,85,-4659,23,-89,-38,34
40,-1890,2,89,-4657,23,-88,-38,34
41,-1891,0,94,-4657,23,-88,-40,33
42,-1896,-1,93,-4657,23,-87,-39,36
43,-1897,-5,92,-4653,23,-87,-37,35
44,-1895,-4,92,-4650,23,-87,-38,35
45,-1895,-3,92,-4646,23,-86,-39,35
46,-1896,-1,91,-4645,23,-86,-41,33
47,-1897,-1,91,-4650,23,-85,-41,34
48,-1895,-1,98,-4653,23,-87,-41,35
49,-1892,1,96,-4653,23,-88,-38,35
50,-1895,-2,96,-4653,23,-88,-38,34
51,-1892,-6,98,-4652,23,-88,-39,34
52,-1893,-7,95,-4651,23,-88,-39,35
53,-1894,-8,98,-4654,23,-87,-39,36
54,-1895,-5,91,-4653,23,-85,-40,36
55,-1897,-5,96,-4646,23,-87,-38,33
56,-1891,-4,94,-4650,23,-90,-39,35
57,-1891,-6,87,-4656,23,-88,-39,36
58,-1887,-4,93,-4651,23,-88,-38,34
59,-1889,-2,88,-4651,23,-88,-38,34
60,-1893,-3,92,-4646,23,-89,-37,34
61,-1895,-5,95,-4650,23,-87,-38,35
62,-1897,-7,87,-4649,23,-89,-39,33
63,-1891,-7,95,-4646,23,-88,-38,34
64,-1897,-2,92,-4652,23,-88,-40,36
65,-1893,-2,93,-4655,23,-87,-39,35
66,-1893,-2,94,-4654,23,-88,-39,35
67,-1896,-3,93,-4655,23,-86,-38,33
68,-1894,-4,93,-4653,23,-88,-40,34
69,-1892,-4,96,-4654,23,-89,-37,34
70,-1895,-1,93,-4653,23,-87,-38,34
71,-1893,-3,96,-4653,23,-87,-38,35
72,-1892,-5,97,-4651,23,-86,-37,34
73,-1895,-3,92,-4651,23,-89,-38,33
74,-1895,-3,89,-4648,23,-89,-38,36
75,-1898,-1,97,-4653,23,-89,-40,36
76,-1897,-3,92,-4653,23,-89,-40,35
77,-1899,-3,96,-4651,23,-88,-38,34
78,-1893,-2,95,-4653,23,-88,-39,33
79,-1893,-2,99,-4656,23,-87,-40,34
80,-1893,-4,95,-4656,23,-87,-38,34
81,-1892,0,90,-4655,23,-87,-38,33
82,-1892,-3,92,-4648,23,-87,-38,33
83,-1896,-1,91,-4649,23,-88,-39,34
84,-1895,-3,90,-4651,23,-88,-37,35
85,-1892,1,90,-4649,23,-87,-37,34
86,-1894,-2,96,-4648,23,-88,-37,33
87,-1894,-1,95,-4652,23,-88,-36,36
88,-1897,-4,93,-4652,23,-90,-37,35
89,-1897,-5,92,-4656,23,-88,-40,36
90,-1896,-4,92,-4654,23,-87,-40,35
91,-1895,-3,95,-4654,23,-87,-39,35
92,-1899,-3,99,-4651,23,-87,-37,34
93,-1897,2,94,-4649,23,-86,-39,35
94,-1896,-3,95,-4651,23,-86,-39,34
95,-1893,-2,96,-4652,23,-87,-39,34
96,-1893,-3,97,-4652,23,-86,-37,35
97,-1894,-1,96,-4654,23,-87,-39,35
98,-1892,-1,90,-4656,23,-88,-38,35
99,-1890,-4,92,-4651,23,-88,-36,35
100,-1896,-3,90,-4656,23,-89,-37,34
101,-1897,0,92,-4653,23,-87,-38,34
102,-1897,1,92,-4647,23,-86,-39,34
103,-1896,0,94,-4651,23,-87,-39,34
104,-1893,0,92,-4653,23,-87,-40,35
105,-1894,1,88,-4652,23,-86,-41,36
106,-1891,-2,89,-4653,23,-86,-39,36
107,-1891,-5,90,-4654,23,-87,-40,34
108,-1891,-2,95,-4651,23,-88,-39,34
109,-1894,-1,91,-4653,23,-88,-39,34
110,-1892,1,94,-4650,23,-89,-38,34
111,-1893,-4,91,-4650,23,-88,-39,33
112,-1898,0,85,-4648,23,-87,-39,35
113,-1899,-6,93,-4648,23,-89,-38,35
114,-1895,-5,91,-4650,23,-87,-37,35
115,-1897,-7,92,-4651,23,-87,-38,35
116,-1897,0,94,-4648,23,-88,-38,35
117,-1895,-2,93,-4645,23,-87,-39,32
118,-1894,-2,93,-4641,23,-87,-40,35
119,-1895,0,93,-4652,23,-88,-37,35
120,-1896,3,91,-4651,23,-88,-38,34
121,-1898,2,98,-4647,23,-88,-38,33
122,-1893,2,98,-4652,23,-87,-37,34
123,-1891,0,96,-4647,23,-88,-38,36
124,-1895,-2,96,-4650,23,-88,-37,35
125,-1895,-5,94,-4650,23,-89,-39,35
126,-1895,1,95,-4656,23,-88,-40,34
127,-1896,0,88,-4657,23,-87,-39,34
128,-1899,-1,93,-4658,23,-88,-40,34
129,-1896,-2,87,-4657,23,-87,-39,34
130,-1896,-2,97,-4653,23,-87,-40,34
131,-1898,-4,93,-4649,23,-88,-38,34
132,-1895,-2,94,-4654,23,-90,-39,34
133,-1898,-1,93,-4655,23,-90,-38,34
134,-1894,-2,98,-4649,23,-88,-36,35
135,-1896,-5,102,-4651,23,-88,-39,34
136,-1896,-4,97,-4652,23,-88,-36,34
137,-1892,0,94,-4651,23,-88,-38,35
138,-1895,-2,99,-4651,23,-89,-38,35
139,-1897,-1,93,-4649,23,-89,-37,35
140,-1896,1,96,-4651,23,-86,-37,34
141,-1893,2,95,-4652,23,-88,-37,34
142,-1893,-3,97,-4652,23,-88,-36,35
143,-1897,-1,97,-4650,23,-88,-37,35
144,-1899,-2,92,-4646,23,-87,-38,35
145,-1897,-4,90,-4652,23,-87,-37,35
146,-1896,-2,95,-4649,23,-86,-38,34
147,-1896,-5,92,-4650,23,-87,-39,34
148,-1895,-2,95,-4648,23,-88,-39,33
149,-1896,-3,95,-4650,23,-87,-39,34
150,-1894,-2,95,-4653,23,-88,-40,33
151,-1893,-1,95,-4650,23,-88,-40,35
152,-1896,-5,97,-4656,23,-88,-41,34
153,-1893,-1,99,-4655,23,-89,-40,35
154,-1895,-2,96,-4656,23,-89,-39,34
155,-1891,-2,91,-4650,23,-87,-39,34
156,-1895,-3,97,-4652,23,-87,-38,36
157,-1893,-1,90,-4647,23,-88,-39,36
158,-1895,-2,88,-4649,23,-87,-37,34
159,-1898,-2,95,-4649,23,-87,-39,35
160,-1894,-3,93,-4648,23,-87,-38,35
161,-1899,-2,95,-4645,23,-87,-39,35
162,-1895,0,92,-4650,23,-87,-37,35
163,-1892,4,88,-4652,23,-88,-38,35
164,-1893,-2,94,-4652,23,-88,-39,35
165,-1893,-2,94,-4656,23,-88,-39,34
166,-1895,-2,94,-4651,23,-87,-39,35
167,-1892,-4,94,-4650,23,-87,-38,35
168,-1890,-6,92,-4647,23,-87,-39,34
169,-1893,-7,96,-4645,23,-88,-38,34
170,-1894,-2,99,-4648,23,-87,-37,34
171,-1895,-4,94,-4649,23,-88,-39,34
172,-1897,-4,95,-4650,23,-87,-39,34
173,-1894,-5,91,-4650,23,-87,-40,34
174,-1895,-2,93,-4655,23,-88,-40,35
175,-1896,-1,97,-4656,23,-88,-39,34
176,-1896,0,99,-4652,23,-87,-40,32
177,-1894,-3,98,-4651,23,-88,-40,34
178,-1895,0,94,-4649,23,-88,-40,35
179,-1897,0,92,-4654,23,-87,-39,34
180,-1896,1,94,-4651,23,-87,-38,36
181,-1895,3,95,-4651,23,-87,-39,34
182,-1895,-2,94,-4656,23,-86,-38,35
183,-1895,-6,97,-4653,23,-86,-40,35
184,-1893,-6,87,-4651,23,-88,-37,34
185,-1897,-3,93,-4649,23,-88,-40,34
186,-1892,-2,94,-4652,23,-88,-38,34
187,-1893,-2,90,-4650,23,-87,-39,35
188,-1890,2,97,-4652,23,-89,-39,35
189,-1895,0,88,-4649,23,-88,-39,34
190,-1895,-1,94,-4647,23,-87,-40,34
191,-1896,-4,91,-4650,23,-85,-40,35
192,-1893,-5,92,-4651,23,-86,-41,35
193,-1895,-4,93,-4646,23,-88,-39,35
194,-1897,-5,92,-4654,23,-89,-40,34
195,-1897,-3,93,-4653,23,-87,-42,34
196,-1900,-3,92,-4654,23,-86,-38,34
197,-1893,-4,88,-4650,23,-88,-40,34
198,-1893,-6,91,-4649,23,-89,-38,34
199,-1895,-4,89,-4650,23,-89,-41,34
200,-1893,0,93,-4652,23,-88,-38,35
201,-1892,0,90,-4654,23,-87,-37,35
202,-1893,-3,91,-4648,23,-88,-39,34
203,-1894,-2,96,-4652,23,-87,-40,35
204,-1894,-3,95,-4654,23,-87,-38,34
205,-1896,-5,100,-4656,23,-87,-39,34
206,-1891,-5,95,-4654,23,-87,-40,34
207,-1894,-3,90,-4652,23,-87,-38,35
208,-1898,-4,88,-4647,23,-86,-39,35
209,-1896,-4,90,-4647,23,-85,-39,33
210,-1899,-2,95,-4651,23,-87,-38,34
211,-1895,-3,88,-4648,23,-86,-38,35
212,-1894,-4,97,-4657,23,-87,-38,35
213,-1894,-2,100,-4653,23,-86,-38,34
214,-1897,-2,95,-4654,23,-87,-39,35
215,-1892,-2,90,-4654,23,-87,-37,34
216,-1892,-1,96,-4655,23,-87,-37,35
217,-1897,-3,91,-4652,23,-86,-39,34
218,-1896,1,88,-4658,23,-87,-38,34
219,-1894,0,89,-4653,23,-88,-40,35
220,-1893,-5,89,-4653,23,-87,-39,34
221,-1895,-7,88,-4652,23,-88,-36,35
222,-1898,-3,93,-4651,23,-88,-39,36
223,-1898,0,93,-4647,23,-86,-39,35
224,-1894,2,94,-4650,23,-87,-37,34
225,-1895,-1,91,-4651,23,-89,-37,35
226,-1896,-1,89,-4649,23,-88,-39,37
227,-1895,3,87,-4658,23,-87,-40,34
228,-1898,-4,90,-4656,23,-87,-38,36
229,-1898,-3,92,-4653,23,-88,-40,33
230,-1895,-2,96,-4658,23,-86,-40,34
231,-1896,-4,98,-4655,23,-85,-39,35
232,-1898,-5,97,-4655,23,-87,-38,34
233,-1894,-1,97,-4657,23,-88,-39,34
234,-1897,-3,97,-4656,23,-89,-38,36
235,-1895,-5,91,-4655,23,-88,-38,36
236,-1895,-3,96,-4652,23,-87,-38,35
237,-1895,-5,94,-4655,23,-87,-37,34
238,-1900,-5,95,-4649,23,-87,-37,36
239,-1900,-4,100,-4655,23,-87,-39,35
240,-1895,-3,98,-4656,23,-86,-39,34
241,-1891,-4,95,-4652,23,-87,-38,34
242,-1890,-5,94,-4652,23,-88,-39,36
243,-1894,-5,91,-4655,23,-86,-39,34
244,-1894,-1,90,-4647,23,-86,-40,33
245,-1890,-4,95,-4650,23,-89,-40,34
246,-1893,-3,93,-4653,23,-88,-39,34
247,-1896,-3,96,-4651,23,-88,-39,34
248,-1895,-3,97,-4649,23,-88,-41,35
249,-1895,-3,93,-4652,23,-89,-40,34
250,-1897,-3,93,-4647,23,-89,-39,34
251,-1895,-2,97,-4650,23,-88,-39,33
252,-1896,-2,94,-4649,23,-86,-39,34
253,-1895,-1,94,-4653,23,-87,-38,34
254,-1897,-1,93,-4656,23,-88,-39,35
255,-1900,-2,95,-4658,23,-88,-37,35
256,-1894,-3,94,-4655,23,-89,-38,34
257,-1895,-2,95,-4652,23,-87,-40,35
258,-1894,-5,87,-4651,23,-89,-38,36
259,-1896,-4,89,-4650,23,-89,-40,36
260,-1892,-4,96,-4650,23,-87,-39,36
261,-1891,-2,95,-4650,23,-87,-41,35
262,-1895,-7,92,-4649,23,-87,-39,35
263,-1894,-4,96,-4646,23,-87,-40,36
264,-1891,-4,94,-4651,23,-88,-38,37
265,-1893,-8,98,-4655,23,-87,-38,36
266,-1890,-1,92,-4655,23,-88,-38,34
267,-1892,-2,93,-4658,23,-87,-39,33
268,-1893,2,92,-4653,23,-88,-39,34
269,-1894,3,88,-4652,23,-88,-38,33
270,-1895,5,89,-4648,23,-88,-38,34
271,-1894,1,91,-4648,23,-88,-39,34
272,-1893,0,91,-4647,23,-88,-39,34
273,-1893,-1,94,-4652,23,-88,-40,34
274,-1892,-2,93,-4652,23,-87,-39,35
275,-1893,-1,91,-4651,23,-86,-40,34
276,-1895,-1,90,-4657,23,-87,-41,36
277,-1894,0,91,-4654,23,-88,-41,35
278,-1895,-1,91,-4652,23,-89,-38,36
279,-1895,-1,93,-4650,23,-88,-40,34
280,-1893,-2,94,-4647,23,-89,-39,35
281,-1894,1,91,-4650,23,-87,-39,35
282,-1893,-4,96,-4649,23,-87,-40,34
283,-1892,-1,95,-4648,23,-85,-41,34
284,-1894,0,98,-4650,23,-87,-39,34
285,-1894,-2,95,-4651,23,-88,-39,35
286,-1892,0,93,-4647,23,-86,-40,34
287,-1896,-5,87,-4649,23,-88,-40,34
288,-1897,-7,91,-4644,23,-89,-39,34
289,-1893,-3,89,-4647,23,-88,-39,34
290,-1891,-5,91,-4647,23,-87,-37,35
291,-1895,-6,93,-4645,23,-87,-37,34
292,-1896,-4,95,-4652,23,-87,-38,34
293,-1898,-4,95,-4651,23,-88,-37,33
294,-1897,-2,94,-4647,23,-87,-40,35
295,-1894,-4,92,-4648,23,-86,-41,35
296,-1895,-3,97,-4654,23,-89,-40,33
297,-1894,-1,95,-4654,23,-88,-40,34
298,-1894,-3,96,-4651,23,-87,-40,35
299,-1900,-3,92,-4651,23,-86,-40,33
300,-1897,-2,95,-4649,23,-87,-40,34
301,-1895,-5,91,-4648,23,-85,-40,34
302,-1896,-3,91,-4649,23,-88,-40,35
303,-1894,-1,91,-4650,23,-87,-38,35
304,-1892,-3,87,-4650,23,-88,-39,34
305,-1895,-5,91,-4648,23,-87,-40,35
306,-1895,-3,88,-4651,23,-88,-39,36
307,-1894,-4,92,-4653,23,-86,-39,36
308,-1892,-2,92,-4653,23,-87,-39,35
309,-1891,2,93,-4650,23,-87,-39,34
310,-1894,-2,90,-4651,23,-87,-39,35
311,-1892,0,91,-4655,23,-88,-37,35
312,-1895,-4,90,-4652,23,-88,-39,35
313,-1894,-6,92,-4653,23,-87,-39,35
314,-1896,-3,95,-4654,23,-88,-38,35
315,-1901,-3,100,-4653,23,-89,-38,37
316,-1895,-3,98,-4651,23,-89,-39,37
317,-1895,1,92,-4647,23,-87,-39,37
318,-1895,-2,92,-4651,23,-89,-39,35
319,-1896,-3,98,-4650,23,-88,-40,36
320,-1894,-4,94,-4646,23,-88,-40,34
321,-1895,-3,88,-4646,23,-88,-40,34
322,-1892,-5,89,-4649,23,-87,-39,35
323,-1894,-1,86,-4650,23,-88,-38,35
324,-1892,-2,88,-4651,23,-87,-38,32
325,-1895,-3,96,-4652,23,-88,-39,33
326,-1895,-2,94,-4654,23,-87,-38,34
327,-1891,-3,98,-4653,23,-87,-40,34
328,-1891,-2,97,-4650,23,-88,-41,33
329,-1894,-2,94,-4655,23,-86,-40,33
330,-1894,-1,92,-4654,23,-87,-39,35
331,-1894,-1,90,-4647,23,-88,-38,34
332,-1895,-3,93,-4649,23,-88,-39,35
333,-1894,-2,94,-4648,23,-87,-38,34
334,-1895,2,87,-4658,23,-86,-40,34
335,-1895,-3,91,-4652,23,-88,-39,35
336,-1892,-3,94,-4650,23,-88,-40,35
337,-1896,-4,98,-4652,23,-87,-38,36
338,-1892,-2,97,-4652,23,-86,-37,35
339,-1895,1,90,-4650,23,-89,-38,35
340,-1894,-2,95,-4649,23,-88,-40,35
341,-1892,1,92,-4646,23,-88,-39,36
342,-1893,-3,92,-4647,23,-88,-38,35
343,-1895,-4,88,-4648,23,-90,-38,34
344,-1899,-4,92,-4645,23,-88,-38,35
345,-1896,-1,93,-4644,23,-88,-40,34
346,-1895,-7,92,-4647,23,-86,-40,34
347,-1893,-3,95,-4650,23,-88,-38,36
348,-1897,-5,87,-4652,23,-88,-38,35
349,-1893,-5,86,-4654,23,-87,-41,35
350,-1892,-7,88,-4653,23,-89,-40,36
351,-1897,-3,92,-4651,23,-88,-39,35
352,-1895,-3,88,-4649,23,-88,-39,38
353,-1892,1,91,-4648,23,-87,-38,35
354,-1893,-1,96,-4650,23,-87,-39,36
355,-1892,-3,96,-4648,23,-87,-39,35
356,-1897,-2,96,-4656,23,-88,-38,34
357,-1895,-3,94,-4656,23,-87,-40,34
358,-1892,1,93,-4648,23,-86,-38,34
359,-1890,0,89,-4650,23,-89,-37,34
360,-1894,-1,92,-4649,23,-87,-39,35
361,-1900,-1,92,-4650,23,-89,-38,35
362,-1896,-5,93,-4647,23,-87,-39,35
363,-1896,-5,88,-4648,23,-87,-38,34
364,-1898,0,95,-4646,23,-86,-39,35
365,-1898,-3,93,-4646,23,-86,-38,34
366,-1896,-1,90,-4646,23,-86,-38,34
367,-1896,-4,96,-4648,23,-89,-40,35
368,-1894,-4,94,-4650,23,-88,-40,34
369,-1893,-2,96,-4650,23,-86,-37,36
370,-1895,-5,95,-4655,23,-87,-36,36
371,-1899,-1,98,-4657,23,-87,-36,36
372,-1896,-1,94,-4655,23,-88,-37,35
373,-1894,1,94,-4647,23,-88,-39,34
374,-1893,-1,86,-4652,23,-87,-37,35
375,-1896,-2,94,-4649,23,-89,-39,34
376,-1894,-3,99,-4648,23,-87,-36,34
377,-1891,-1,96,-4648,23,-88,-39,33
378,-1899,-3,87,-4649,23,-88,-39,34
379,-1896,-4,92,-4649,23,-88,-39,34
380,-1897,-2,88,-4651,23,-87,-39,34
381,-1897,1,96,-4651,23,-88,-37,35
382,-1896,0,97,-4650,23,-88,-40,35
383,-1894,-1,97,-4651,23,-88,-37,33
384,-1900,-7,89,-4653,23,-88,-36,35
385,-1894,-6,95,-4651,23,-89,-38,35
386,-1897,-5,97,-4651,23,-89,-38,36
387,-1897,-4,93,-4644,23,-89,-39,37
388,-1897,-5,91,-4649,23,-88,-39,36
389,-1894,-4,93,-4644,23,-88,-38,36
390,-1895,-1,98,-4646,23,-87,-39,34
391,-1895,5,98,-4645,23,-88,-37,35
392,-1898,-3,97,-4646,23,-87,-38,34
393,-1896,-3,94,-4651,23,-87,-38,35
394,-1893,-4,93,-4652,23,-87,-39,36
395,-1896,-5,96,-4651,23,-88,-37,37
396,-1895,-4,96,-4650,23,-88,-38,36
397,-1897,-4,100,-4650,23,-87,-39,35
398,-1900,-1,97,-4647,23,-87,-39,36
399,-1894,-4,95,-4650,23,-87,-38,35
400,-1892,0,94,-4642,23,-86,-38,35
401,-1894,-1,96,-4644,23,-88,-37,36
402,-1893,-4,100,-4642,23,-86,-39,35
403,-1893,-3,94,-4646,23,-86,-38,35
404,-1894,-4,96,-4645,23,-86,-39,34
405,-1896,-4,93,-4647,23,-85,-39,35
406,-1888,-3,90,-4653,23,-88,-38,36
407,-1891,-1,94,-4651,23,-88,-37,36
408,-1891,-2,97,-4649,23,-89,-38,34
409,-1894,-5,96,-4650,23,-88,-38,36
410,-1895,-3,97,-4649,23,-89,-39,35
411,-1899,-3,95,-4648,23,-87,-40,35
412,-1896,-5,96,-4649,23,-88,-40,35
413,-1900,-1,94,-4654,23,-86,-38,36
414,-1898,0,89,-4654,23,-88,-38,36
415,-1896,-2,96,-4651,23,-88,-39,37
416,-1895,1,92,-4646,23,-87,-38,36
417,-1899,5,90,-4648,23,-88,-39,36
418,-1894,1,91,-4645,23,-87,-39,35
419,-1893,0,87,-4650,23,-88,-39,36
420,-1898,0,89,-4655,23,-88,-38,35
421,-1898,-2,89,-4649,23,-88,-38,35
422,-1898,1,94,-4650,23,-86,-37,35
423,-1896,2,97,-4651,23,-88,-39,36
424,-1894,-3,97,-4651,23,-87,-38,35
425,-1893,-2,93,-4648,23,-87,-37,35
426,-1895,-3,95,-4646,23,-86,-38,35
427,-1893,-3,91,-4646,23,-89,-39,35
428,-1897,-3,91,-4645,23,-88,-40,35
429,-1897,-5,92,-4647,23,-88,-40,35
430,-1896,-2,90,-4652,23,-86,-39,34
431,-1895,-4,94,-4647,23,-88,-39,34
432,-1895,0,94,-4651,23,-88,-40,35
433,-1896,-5,100,-4644,23,-86,-39,35
434,-1895,-2,98,-4641,23,-86,-39,36
435,-1897,-2,92,-4643,23,-87,-39,36
436,-1897,-4,92,-4641,23,-88,-40,35
437,-1896,-2,90,-4649,23,-88,-39,35
438,-1895,-3,89,-4647,23,-88,-41,34
439,-1894,-7,86,-4643,23,-87,-38,35
440,-1896,-3,88,-4644,23,-87,-39,35
441,-1893,-4,92,-4650,23,-87,-39,36
442,-1896,-4,90,-4652,23,-87,-38,35
443,-1895,-3,94,-4651,23,-87,-38,35
444,-1896,-3,95,-4651,23,-87,-37,36
445,-1898,-5,95,-4655,23,-87,-37,34
446,-1896,-4,93,-4650,23,-88,-40,35
447,-1892,-5,91,-4652,23,-88,-38,35
448,-1895,-3,88,-4653,23,-88,-37,35
449,-1896,0,88,-4646,23,-87,-39,34
450,-1900,-2,91,-4651,23,-88,-39,35
451,-1897,-4,96,-4652,23,-87,-38,34
452,-1898,-1,93,-4652,23,-88,-40,36
453,-1898,-1,94,-4650,23,-88,-38,36
454,-1896,-1,94,-4647,23,-88,-35,35
455,-1896,2,96,-4653,23,-86,-37,34
456,-1893,4,95,-4650,23,-86,-39,35
457,-1894,2,94,-4648,23,-87,-38,36
458,-1892,-2,93,-4650,23,-87,-37,36
459,-1895,0,95,-4652,23,-88,-39,36
460,-1894,-3,93,-4651,23,-86,-37,36
461,-1896,-2,88,-4646,23,-87,-39,35
462,-1891,1,95,-4644,23,-86,-38,34
463,-1894,-1,94,-4648,23,-88,-40,33
464,-1896,-2,96,-4648,23,-87,-40,34
465,-1895,-1,90,-4651,23,-88,-38,35
466,-1893,-2,92,-4646,23,-88,-40,36
467,-1898,-5,92,-4642,23,-88,-39,35
468,-1898,-4,92,-4649,23,-89,-40,35
469,-1894,-7,95,-4653,23,-88,-39,32
470,-1891,-6,92,-4650,23,-88,-39,34
471,-1897,-2,91,-4647,23,-87,-39,34
472,-1895,-3,94,-4650,23,-88,-39,35
473,-1896,1,94,-4647,23,-88,-38,34
474,-1898,-4,91,-4653,23,-87,-40,34
475,-1897,-3,96,-4653,23,-87,-38,34
476,-1896,-2,95,-4652,23,-88,-39,34
477,-1895,-2,91,-4655,23,-87,-39,33
478,-1893,-4,94,-4652,23,-85,-37,34
479,-1893,-2,90,-4651,23,-86,-38,36
480,-1895,-2,92,-4648,23,-87,-38,36
481,-1893,-3,88,-4650,23,-89,-39,37
482,-1893,-2,92,-4647,23,-88,-39,34
483,-1895,-3,95,-4649,23,-87,-38,34
484,-1895,-6,92,-4644,23,-88,-38,35
485,-1893,-3,95,-4646,23,-87,-38,37
486,-1894,-5,91,-4647,23,-88,-38,36
487,-1894,-2,93,-4652,23,-88,-38,36
488,-1899,-1,97,-4650,23,-87,-39,36
489,-1893,-1,95,-4649,23,-88,-40,34
490,-1895,-3,93,-4651,23,-87,-40,34
491,-1894,-2,90,-4654,23,-88,-39,33
492,-1894,-6,92,-4650,23,-87,-38,36
493,-1894,-5,92,-4652,23,-88,-38,35
494,-1892,-4,90,-4653,23,-86,-39,35
495,-1891,-3,94,-4655,23,-88,-39,35
496,-1896,1,93,-4658,23,-88,-38,35
497,-1892,0,94,-4655,23,-89,-37,36
498,-1892,2,94,-4652,23,-88,-39,36
499,-1894,2,95,-4657,23,-88,-39,36
500,-1891,-3,90,-4651,23,-88,-39,36
501,-1894,-2,95,-4656,23,-87,-39,35
502,-1891,-4,88,-4654,23,-88,-38,34
503,-1892,0,88,-4649,23,-85,-38,35
504,-1896,-1,96,-4650,23,-87,-38,35
505,-1894,-3,92,-4653,23,-87,-41,35
506,-1898,-3,93,-4654,23,-87,-39,36
507,-1896,-3,98,-4651,23,-89,-39,34
508,-1890,-4,96,-4655,23,-88,-40,34
509,-1896,-2,93,-4653,23,-87,-37,35
510,-1892,-5,97,-4653,23,-87,-40,34
511,-1896,-5,96,-4649,23,-86,-40,35
512,-1898,-1,92,-4655,23,-86,-40,35
513,-1897,-2,96,-4649,23,-88,-39,35
514,-1898,-1,103,-4648,23,-87,-40,34
515,-1895,-2,100,-4655,23,-87,-38,34
516,-1898,0,98,-4653,23,-88,-39,35
517,-1895,-4,94,-4653,23,-87,-39,35
518,-1896,-2,95,-4653,23,-88,-38,34
519,-1898,-1,94,-4654,23,-89,-38,34
520,-1895,-2,93,-4658,23,-87,-37,33
521,-1890,-3,94,-4656,23,-88,-39,34
522,-1897,-3,88,-4653,23,-88,-39,35
523,-1894,-2,94,-4653,23,-88,-37,34
524,-1893,-4,87,-4657,23,-88,-37,34
525,-1892,-1,91,-4655,23,-89,-40,36
526,-1896,-1,96,-4657,23,-88,-39,35
527,-1894,-2,93,-4652,23,-88,-38,34
528,-1892,-4,92,-4648,23,-86,-38,36
529,-1894,-4,98,-4648,23,-85,-39,34
530,-1896,-6,97,-4651,23,-87,-37,34
531,-1893,-3,96,-4653,23,-88,-38,36
532,-1892,-2,98,-4655,23,-88,-40,36
533,-1893,-3,96,-4649,23,-89,-39,34
534,-1894,-4,96,-4653,23,-89,-40,35
535,-1891,-4,91,-4652,23,-90,-38,35
536,-1892,-3,93,-4654,23,-87,-38,35
537,-1894,-2,99,-4653,23,-87,-40,35
538,-1895,-2,89,-4656,23,-86,-38,35
539,-1893,-3,88,-4651,23,-87,-40,34
540,-1898,-5,86,-4651,23,-87,-39,35
541,-1892,-8,86,-4648,23,-88,-38,35
542,-1895,-4,86,-4650,23,-89,-36,35
543,-1893,-4,90,-4650,23,-90,-37,35
544,-1895,-1,90,-4651,23,-89,-37,35
545,-1894,-4,95,-4654,23,-89,-36,35
546,-1897,-2,88,-4648,23,-88,-37,35
547,-1894,-3,88,-4650,23,-88,-40,36
548,-1894,-3,92,-4647,23,-87,-38,36
549,-1896,-3,95,-4648,23,-87,-37,34
550,-1899,-1,95,-4656,23,-86,-37,35
551,-1899,-1,93,-4654,23,-87,-39,36
552,-1898,-6,95,-4650,23,-86,-39,35
553,-1896,-1,95,-4649,23,-87,-39,34
554,-1900,-3,93,-4643,23,-89,-38,35
555,-1901,-1,95,-4643,23,-86,-40,34
556,-1895,-2,92,-4650,23,-87,-39,35
557,-1894,-2,85,-4652,23,-86,-39,37
558,-1895,2,92,-4655,23,-86,-38,35
559,-1898,-1,87,-4651,23,-87,-36,35
560,-1896,-2,89,-4652,23,-88,-36,34
561,-1896,-5,88,-4654,23,-88,-38,35
562,-1894,-4,91,-4647,23,-88,-37,34
563,-1895,0,88,-4646,23,-86,-38,35
564,-1890,-1,88,-4647,23,-88,-38,34
565,-1897,-2,93,-4652,23,-88,-38,34
566,-1894,-4,94,-4653,23,-87,-40,33
567,-1891,-2,94,-4651,23,-88,-40,34
568,-1893,-4,93,-4650,23,-88,-39,34
569,-1895,0,91,-4652,23,-88,-39,32
570,-1893,-2,95,-4654,23,-87,-39,34
571,-1892,-2,94,-4653,23,-88,-38,36
572,-1894,-2,91,-4651,23,-87,-39,36
573,-1895,1,87,-4650,23,-86,-40,35
574,-1893,5,96,-4650,23,-86,-39,36
575,-1893,1,94,-4654,23,-88,-37,36
576,-1894,-1,94,-4656,23,-88,-38,36
577,-1896,-2,92,-4652,23,-89,-38,35
578,-1899,-4,89,-4652,23,-89,-38,35
579,-1902,-3,90,-4654,23,-88,-41,34
580,-1900,-3,93,-4652,23,-88,-37,33
581,-1897,0,90,-4648,23,-87,-38,33
582,-1897,-2,94,-4649,23,-89,-40,34
583,-1896,-6,94,-4648,23,-88,-41,35
584,-1893,-8,97,-4655,23,-88,-40,35
585,-1893,-6,92,-4648,23,-89,-39,36
586,-1896,-6,93,-4651,23,-89,-37,35
587,-1894,-6,92,-4654,23,-89,-38,36
588,-1894,-3,98,-4651,23,-87,-39,34
589,-1895,-1,96,-4648,23,-89,-38,36
590,-1897,-1,91,-4651,23,-89,-40,34
591,-1894,-2,88,-4654,23,-89,-39,35
592,-1893,-4,90,-4649,23,-89,-41,35
593,-1894,-5,92,-4647,23,-87,-38,35
594,-1894,-4,91,-4651,23,-87,-39,36
595,-1894,-4,91,-4655,23,-86,-38,35
596,-1893,1,89,-4652,23,-87,-39,36
597,-1893,0,98,-4649,23,-87,-39,34
598,-1891,-4,95,-4648,23,-88,-39,33
599,-1895,-1,97,-4648,23,-88,-37,35
600,-1892,-2,103,-4647,23,-88,-37,33
601,-1894,0,97,-4647,23,-89,-37,34
602,-1898,-4,96,-4642,23,-87,-37,35
603,-1896,-3,92,-4647,23,-89,-38,35
604,-1897,-3,95,-4650,23,-87,-36,36
605,-1894,-5,95,-4646,23,-88,-36,36
606,-1893,-2,92,-4646,23,-87,-38,35
607,-1896,1,95,-4646,23,-87,-40,37
608,-1896,0,94,-4647,23,-89,-38,34
609,-1896,-2,95,-4647,23,-90,-41,36
610,-1897,-4,93,-4648,23,-89,-38,36
611,-1894,-4,92,-4648,23,-89,-39,35
612,-1894,-1,89,-4647,23,-86,-39,35
613,-1893,-1,90,-4650,23,-89,-37,35
614,-1895,-2,94,-4648,23,-89,-38,36
615,-1893,-2,91,-4643,23,-89,-40,36
616,-1895,-2,94,-4647,23,-89,-38,36
617,-1895,-1,93,-4645,23,-87,-38,34
618,-1894,-4,91,-4648,23,-86,-39,35
619,-1898,-4,96,-4651,23,-87,-39,33
620,-1897,-4,98,-4648,23,-89,-38,34
621,-1894,0,95,-4655,23,-89,-38,35
622,-1894,0,93,-4653,23,-88,-40,34
623,-1897,-1,93,-4653,23,-88,-39,36
624,-1895,-1,100,-4651,23,-87,-40,35
625,-1896,-2,93,-4649,23,-86,-40,35
626,-1893,0,90,-4652,23,-88,-38,35
627,-1895,-4,91,-4648,23,-89,-37,35
628,-1894,-4,95,-4648,23,-89,-39,35
629,-1888,-3,91,-4650,23,-88,-40,35
630,-1894,-2,94,-4654,23,-88,-39,35
631,-1895,1,93,-4648,23,-86,-39,35
632,-1894,-6,85,-4645,23,-86,-39,34
633,-1893,-3,91,-4649,23,-87,-39,34
634,-1896,-5,92,-4650,23,-86,-37,34
635,-1897,-3,88,-4645,23,-86,-37,34
636,-1892,0,90,-4646,23,-87,-38,35
637,-1893,-2,93,-4643,23,-86,-39,36
638,-1895,-4,92,-4648,23,-87,-39,34
639,-1895,-1,93,-4645,23,-89,-39,35
640,-1895,-5,99,-4647,23,-88,-39,34
641,-1893,-1,92,-4650,23,-87,-39,35
642,-1896,-3,97,-4652,23,-87,-40,34
643,-1894,-6,99,-4652,23,-88,-38,34
644,-1897,-2,98,-4649,23,-86,-40,36
645,-1896,-3,92,-4654,23,-88,-38,35
646,-1893,0,89,-4652,23,-87,-38,34
647,-1895,-3,97,-4648,23,-87,-40,36
648,-1894,-4,100,-4647,23,-88,-38,34
649,-1891,1,95,-4650,23,-87,-39,34
650,-1891,0,97,-4652,23,-88,-38,34
651,-1896,1,88,-4647,23,-88,-39,34
652,-1896,0,93,-4652,23,-88,-40,33
653,-1899,0,95,-4648,23,-87,-40,32
654,-1897,-1,91,-4646,23,-86,-39,35
655,-1894,2,85,-4646,23,-87,-38,33
656,-1894,3,91,-4645,23,-88,-39,35
657,-1896,-4,92,-4642,23,-88,-37,35
658,-1897,-3,92,-4645,23,-87,-37,34
659,-1897,-6,93,-4649,23,-87,-37,33
660,-1898,-2,91,-4648,23,-88,-38,36
661,-1896,-1,90,-4651,23,-88,-37,34
662,-1896,2,93,-4646,23,-87,-38,34
663,-1895,-4,98,-4647,23,-86,-38,34
664,-1891,-5,98,-4643,23,-88,-38,34
665,-1891,-2,98,-4648,23,-87,-39,34
666,-1893,-6,91,-4647,23,-86,-38,35
667,-1896,-1,93,-4652,23,-87,-37,35
668,-1898,0,95,-4648,23,-87,-38,36
669,-1898,3,95,-4645,23,-88,-38,35
670,-1897,-2,93,-4646,23,-88,-38,34
671,-1892,-1,92,-4645,23,-87,-39,35
672,-1894,-2,91,-4647,23,-86,-39,35
673,-1895,-2,96,-4648,23,-86,-40,34
674,-1898,-1,89,-4649,23,-88,-38,35
675,-1894,-2,95,-4641,23,-86,-38,35
676,-1894,-4,95,-4646,23,-87,-38,33
677,-1892,-2,92,-4650,23,-87,-37,34
678,-1894,-1,86,-4647,23,-89,-38,34
679,-1897,-2,95,-4645,23,-87,-40,34
680,-1899,-1,93,-4649,23,-87,-40,33
681,-1897,-4,90,-4648,23,-87,-39,33
682,-1893,-3,96,-4648,23,-89,-38,34
683,-1897,-3,94,-4650,23,-89,-37,35
684,-1897,-2,86,-4649,23,-88,-38,34
685,-1896,-4,92,-4646,23,-87,-39,35
686,-1894,-2,93,-4652,23,-90,-37,34
687,-1892,-3,92,-4641,23,-88,-36,34
688,-1895,-1,91,-4645,23,-87,-36,35
689,-1891,0,89,-4648,23,-87,-39,34
690,-1890,-5,91,-4646,23,-87,-39,35
691,-1895,-6,89,-4641,23,-86,-38,35
692,-1894,-5,101,-4648,23,-88,-39,37
693,-1895,-2,97,-4652,23,-87,-37,35
694,-1894,-2,92,-4655,23,-87,-37,34
695,-1897,-2,93,-4652,23,-87,-39,36
696,-1898,-4,89,-4650,23,-88,-40,34
697,-1894,-3,93,-4646,23,-85,-37,34
698,-1894,-2,97,-4643,23,-85,-38,35
699,-1892,-1,99,-4650,23,-87,-39,35
700,-1895,2,96,-4648,23,-87,-39,36
701,-1897,2,93,-4652,23,-87,-40,36
702,-1897,2,93,-4647,23,-88,-40,34
703,-1895,0,92,-4652,23,-88,-39,34
704,-1892,-4,93,-4648,23,-87,-39,34
705,-1890,0,96,-4651,23,-87,-38,35
706,-1895,-2,92,-4651,23,-87,-40,35
707,-1892,2,94,-4645,23,-89,-40,34
708,-1893,-3,91,-4644,23,-89,-41,34
709,-1893,-4,90,-4647,23,-90,-39,35
710,-1894,-1,89,-4647,23,-89,-38,35
711,-1892,-7,91,-4646,23,-89,-37,36
712,-1899,-4,97,-4648,23,-87,-38,36
713,-1897,0,93,-4651,23,-87,-38,35
714,-1897,-3,93,-4648,23,-89,-39,36
715,-1901,0,94,-4645,23,-88,-39,35
716,-1898,-3,94,-4645,23,-87,-37,36
717,-1898,-2,100,-4645,23,-87,-37,33
718,-1899,-2,96,-4649,23,-88,-38,34
719,-1893,-5,99,-4649,23,-88,-38,35
720,-1894,-3,98,-4646,23,-89,-38,35
721,-1894,-2,96,-4646,23,-89,-38,36
722,-1892,-1,88,-4651,23,-88,-38,35
723,-1895,0,92,-4652,23,-86,-40,35
724,-1893,1,91,-4648,23,-87,-39,34
725,-1890,-2,91,-4650,23,-87,-40,34
726,-1896,-4,93,-4651,23,-89,-38,36
727,-1892,-5,94,-4646,23,-88,-39,35
728,-1897,-2,88,-4651,23,-87,-40,35
729,-1893,2,96,-4648,23,-88,-39,35
730,-1890,-1,94,-4649,23,-87,-40,35
731,-1894,0,93,-4646,23,-88,-39,35
732,-1895,2,90,-4650,23,-89,-36,35
733,-1895,0,95,-4649,23,-87,-39,34
734,-1895,0,93,-4646,23,-87,-37,33
735,-1892,0,92,-4642,23,-88,-38,34
736,-1896,-2,96,-4644,23,-87,-39,34
737,-1894,1,90,-4647,23,-86,-40,34
738,-1892,-1,86,-4649,23,-87,-39,35
739,-1891,-7,87,-4651,23,-87,-40,35
740,-1890,-4,93,-4650,23,-86,-37,35
741,-1894,-5,97,-4653,23,-85,-39,35
742,-1896,-1,95,-4652,23,-87,-38,35
743,-1899,1,94,-4651,23,-87,-39,35
744,-1896,1,92,-4649,23,-89,-39,36
745,-1890,-1,88,-4647,23,-87,-39,35
746,-1891,-1,94,-4646,23,-87,-39,34
747,-1895,-4,92,-4647,23,-86,-38,34
748,-1899,-3,92,-4647,23,-88,-40,34
749,-1898,-8,91,-4650,23,-87,-40,34
750,-1896,-2,93,-4649,23,-88,-39,36
751,-1894,-2,91,-4651,23,-86,-39,35
752,-1894,-2,98,-4655,23,-86,-38,33
753,-1897,-4,100,-4649,23,-88,-37,34
754,-1898,-5,97,-4652,23,-86,-38,34
755,-1893,-5,101,-4653,23,-88,-38,36
756,-1896,-1,100,-4652,23,-89,-37,35
757,-1898,-1,93,-4649,23,-88,-37,35
758,-1894,-1,96,-4643,23,-88,-39,35
759,-1896,1,99,-4651,23,-89,-39,35
760,-1894,-2,96,-4647,23,-88,-38,35
761,-1899,-2,93,-4646,23,-89,-38,34
762,-1899,-1,94,-4644,23,-89,-37,34
763,-1896,-3,92,-4644,23,-90,-39,34
764,-1898,2,93,-4645,23,-88,-37,35
765,-1894,-2,94,-4644,23,-86,-38,35
766,-1896,-2,92,-4645,23,-88,-39,35
767,-1896,1,97,-4642,23,-89,-38,35
768,-1896,0,97,-4647,23,-89,-38,34
769,-1891,-1,98,-4646,23,-89,-37,34
770,-1893,-3,95,-4652,23,-89,-38,34
771,-1897,0,92,-4657,23,-87,-38,35
772,-1895,-4,95,-4654,23,-88,-37,36
773,-1900,-6,94,-4650,23,-89,-39,35
774,-1899,-2,90,-4646,23,-88,-38,35
775,-1894,-3,99,-4640,23,-88,-38,36
776,-1895,-5,99,-4640,23,-87,-38,37
777,-1898,-5,95,-4643,23,-86,-37,34
778,-1898,-1,92,-4647,23,-88,-38,35
779,-1896,3,87,-4652,23,-87,-37,35
780,-1896,1,94,-4651,23,-87,-36,35
781,-1895,-3,98,-4647,23,-88,-37,34
782,-1893,-3,93,-4651,23,-87,-38,37
783,-1892,1,92,-4647,23,-89,-40,36
784,-1892,-2,95,-4644,23,-87,-38,36
785,-1898,-4,96,-4649,23,-86,-39,36
786,-1895,-2,97,-4643,23,-88,-37,35
787,-1894,1,99,-4652,23,-88,-39,34
788,-1893,-1,94,-4647,23,-88,-39,35
789,-1898,-2,94,-4645,23,-88,-38,35
790,-1898,1,92,-4648,23,-88,-37,34
791,-1895,2,94,-4646,23,-87,-38,34
792,-1890,0,96,-4654,23,-87,-38,33
793,-1891,-1,98,-4654,23,-88,-38,34
794,-1893,-1,98,-4649,23,-88,-38,34
795,-1893,-3,90,-4643,23,-89,-38,34
796,-1894,-5,93,-4644,23,-87,-38,34
797,-1890,-4,92,-4644,23,-88,-38,35
798,-1892,-3,92,-4643,23,-88,-40,35
799,-1897,0,94,-4648,23,-87,-39,35
800,-1896,-1,93,-4644,23,-87,-37,35
801,-1894,-1,89,-4647,23,-89,-38,35
802,-1892,-1,92,-4646,23,-88,-38,34
803,-1896,1,99,-4649,23,-89,-35,34
804,-1898,-2,97,-4650,23,-89,-37,34
805,-1897,-1,98,-4646,23,-88,-37,35
806,-1895,-5,99,-4647,23,-88,-38,35
807,-1891,-3,98,-4644,23,-88,-37,35
808,-1893,-2,99,-4645,23,-89,-37,35
809,-1895,-6,94,-4648,23,-87,-38,36
810,-1894,-1,94,-4644,23,-88,-40,34
811,-1895,-4,92,-4649,23,-87,-39,34
812,-1896,-4,95,-4647,23,-88,-40,34
813,-1893,-4,98,-4644,23,-89,-39,36
814,-1895,2,97,-4648,23,-88,-37,34
815,-1892,-1,95,-4652,23,-90,-37,35
816,-1893,-5,94,-4653,23,-89,-37,36
817,-1893,-4,93,-4652,23,-87,-35,35
818,-1893,-2,89,-4647,23,-87,-38,36
819,-1893,1,98,-4650,23,-86,-37,36
820,-1896,-1,96,-4646,23,-87,-37,34
821,-1894,-4,94,-4644,23,-87,-36,35
822,-1893,-7,94,-4647,23,-86,-38,34
823,-1897,-6,95,-4648,23,-88,-39,34
824,-1899,-4,94,-4649,23,-88,-38,35
825,-1895,1,95,-4649,23,-87,-38,34
826,-1896,1,95,-4646,23,-88,-38,33
827,-1893,1,95,-4646,23,-87,-38,34
828,-1891,-2,93,-4641,23,-88,-39,33
829,-1896,-1,94,-4646,23,-86,-39,34
830,-1894,0,91,-4647,23,-87,-39,35
831,-1896,-3,89,-4647,23,-87,-38,33
832,-1894,-3,93,-4646,23,-88,-38,34
833,-1893,-2,96,-4648,23,-87,-37,34
834,-1894,2,96,-4647,23,-87,-38,34
835,-1891,-2,90,-4647,23,-88,-38,35
836,-1895,-3,92,-4647,23,-86,-39,34
837,-1895,-5,100,-4647,23,-89,-40,34
838,-1892,-3,96,-4641,23,-89,-37,35
839,-1894,-9,95,-4643,23,-87,-40,34
840,-1892,-3,96,-4644,23,-85,-39,35
841,-1894,-2,96,-4645,23,-85,-39,34
842,-1893,-1,96,-4643,23,-85,-39,33
843,-1895,-7,91,-4644,23,-87,-39,34
844,-1895,-7,85,-4643,23,-88,-37,33
845,-1895,-5,92,-4649,23,-87,-38,32
846,-1897,-10,88,-4651,23,-87,-39,33
847,-1896,-3,94,-4649,23,-88,-37,33
848,-1897,-3,95,-4647,23,-88,-38,33
849,-1896,-4,90,-4649,23,-88,-39,34
850,-1895,-5,91,-4648,23,-88,-39,34
851,-1895,-7,97,-4650,23,-88,-39,34
852,-1896,-4,95,-4651,23,-88,-38,36
853,-1897,-1,95,-4650,23,-88,-39,35
854,-1895,0,92,-4652,23,-88,-40,35
855,-1897,-1,92,-4650,23,-88,-40,34
856,-1895,-1,92,-4652,23,-87,-40,34
857,-1892,0,94,-4648,23,-88,-40,34
858,-1893,-3,89,-4649,23,-88,-39,34
859,-1894,-3,95,-4651,23,-90,-38,35
860,-1893,-4,93,-4645,23,-89,-38,35
861,-1895,-4,89,-4644,23,-91,-38,35
862,-1895,-3,93,-4642,23,-89,-39,35
863,-1898,-2,97,-4643,23,-89,-39,36
864,-1900,-4,92,-4647,23,-88,-39,36
865,-1902,-3,91,-4649,23,-89,-39,35
866,-1895,-4,92,-4647,23,-88,-39,34
867,-1894,-6,88,-4647,23,-87,-38,36
868,-1895,-4,91,-4646,23,-89,-39,36
869,-1895,-8,93,-4640,23,-88,-39,35
870,-1895,-3,97,-4643,23,-88,-37,35
871,-1892,-1,94,-4646,23,-88,-39,34
872,-1893,-2,96,-4642,23,-87,-41,35
873,-1893,-1,96,-4645,23,-88,-40,34
874,-1897,1,96,-4647,23,-86,-40,36
875,-1894,-1,96,-4642,23,-86,-41,37
876,-1896,-3,98,-4645,23,-88,-39,36
877,-1895,-2,90,-4647,23,-87,-40,35
878,-1895,0,88,-4646,23,-87,-38,34
879,-1892,-1,88,-4648,23,-88,-38,33
880,-1896,-2,90,-4654,23,-88,-37,34
881,-1897,-1,91,-4652,23,-88,-38,33
882,-1895,-2,88,-4647,23,-87,-38,34
883,-1895,0,92,-4646,23,-87,-39,34
884,-1895,0,89,-4647,23,-87,-38,35
885,-1895,-1,92,-4647,23,-88,-37,34
886,-1898,-1,92,-4646,23,-90,-37,34
887,-1897,-2,91,-4642,23,-88,-38,34
888,-1890,1,96,-4644,23,-88,-37,35
889,-1898,4,99,-4648,23,-85,-36,32
890,-1895,2,97,-4642,23,-88,-38,35
891,-1894,-2,92,-4638,23,-86,-38,34
892,-1898,-3,95,-4641,23,-87,-38,35
893,-1894,1,94,-4643,23,-88,-37,34
894,-1892,-1,98,-4644,23,-86,-38,34
895,-1896,0,92,-4649,23,-86,-39,34
896,-1900,0,90,-4643,23,-87,-40,33
897,-1896,0,88,-4639,23,-87,-40,34
898,-1896,1,93,-4642,23,-86,-37,33
899,-1899,0,97,-4644,23,-88,-38,33
900,-1900,-2,92,-4643,23,-88,-38,32
901,-1895,3,94,-4647,23,-87,-40,32
902,-1896,-1,94,-4649,23,-87,-39,33
903,-1895,-1,97,-4646,23,-87,-38,35
904,-1897,2,96,-4648,23,-86,-36,35
905,-1893,2,94,-4643,23,-88,-39,34
906,-1896,0,93,-4646,23,-88,-38,35
907,-1895,-2,84,-4649,23,-86,-38,37
908,-1895,3,89,-4649,23,-88,-36,37
909,-1896,2,87,-4642,23,-87,-39,35
910,-1894,0,94,-4643,23,-87,-39,33
911,-1897,-1,94,-4646,23,-86,-39,34
912,-1890,-3,97,-4643,23,-87,-37,35
913,-1892,-2,102,-4651,23,-87,-37,34
914,-1897,1,96,-4648,23,-88,-38,36
915,-1896,1,99,-4646,23,-86,-37,36
916,-1899,-2,98,-4651,23,-86,-39,35
917,-1893,0,96,-4644,23,-88,-38,36
918,-1895,-2,96,-4644,23,-87,-39,36
919,-1900,-1,91,-4646,23,-88,-39,36
920,-1899,-4,96,-4644,23,-88,-38,35
921,-1898,-2,91,-4646,23,-88,-39,36
922,-1893,-4,93,-4649,23,-86,-40,35
923,-1895,-2,93,-4646,23,-88,-39,35
924,-1894,-4,99,-4643,23,-89,-38,35
925,-1891,-4,93,-4648,23,-89,-38,33
926,-1895,-3,95,-4645,23,-89,-38,35
927,-1893,-2,92,-4647,23,-88,-38,36
928,-1892,-4,97,-4643,23,-88,-38,35
929,-1894,-2,98,-4646,23,-88,-37,34
930,-1892,1,96,-4645,23,-88,-38,34
931,-1893,-2,95,-4649,23,-89,-40,35
932,-1897,-2,95,-4651,23,-90,-39,36
933,-1898,-4,94,-4650,23,-88,-39,35
934,-1897,-4,98,-4644,23,-89,-38,35
935,-1898,-3,93,-4643,23,-88,-38,35
936,-1890,-4,96,-4644,23,-88,-39,33
937,-1891,-4,97,-4644,23,-89,-40,33
938,-1897,-6,91,-4641,23,-86,-37,34
939,-1895,-1,91,-4643,23,-86,-37,34
940,-1893,2,95,-4643,23,-86,-38,34
941,-1892,-3,93,-4643,23,-85,-39,32
942,-1890,-1,94,-4641,23,-87,-39,33
943,-1894,0,93,-4647,23,-88,-40,34
944,-1893,-2,97,-4648,23,-87,-39,36
945,-1896,-1,93,-4642,23,-87,-38,36
946,-1893,-6,97,-4647,23,-87,-39,34
947,-1895,-7,91,-4644,23,-87,-39,35
948,-1895,-5,97,-4646,23,-88,-40,34
949,-1898,1,95,-4653,23,-87,-37,37
950,-1895,-2,90,-4652,23,-87,-39,36
951,-1895,-3,92,-4649,23,-86,-40,35
952,-1892,-4,92,-4650,23,-87,-38,34
953,-1894,-4,98,-4645,23,-87,-37,35
954,-1894,-7,95,-4649,23,-87,-40,36
955,-1892,-7,99,-4647,23,-88,-37,36
956,-1892,-3,100,-4642,23,-87,-38,35
957,-1895,0,94,-4645,23,-87,-37,35
958,-1896,1,100,-4649,23,-88,-38,34
959,-1894,2,98,-4647,23,-87,-38,34
960,-1893,0,91,-4643,23,-88,-38,34
961,-1897,-2,95,-4650,23,-87,-39,35
962,-1899,-3,95,-4647,23,-88,-38,34
963,-1897,-6,95,-4643,23,-88,-38,36
964,-1896,-5,98,-4646,23,-88,-39,35
965,-1900,-5,94,-4647,23,-88,-38,35
966,-1894,0,95,-4652,23,-87,-37,33
967,-1896,-2,95,-4648,23,-89,-38,33
968,-1895,-2,92,-4649,23,-88,-39,35
969,-1896,0,88,-4646,23,-87,-39,35
970,-1894,0,88,-4649,23,-88,-37,34
971,-1895,-4,93,-4644,23,-87,-39,35
972,-1898,-4,94,-4646,23,-88,-38,35
973,-1892,-1,95,-4645,23,-87,-39,36
974,-1892,-2,90,-4643,23,-87,-38,35
975,-1896,-2,94,-4646,23,-87,-37,35
976,-1893,0,89,-4649,23,-89,-37,36
977,-1894,-2,99,-4653,23,-87,-37,35
978,-1895,-4,100,-4652,23,-88,-39,32
979,-1897,1,94,-4648,23,-87,-38,34
980,-1896,2,95,-4647,23,-88,-38,34
981,-1895,-1,97,-4644,23,-87,-37,34
982,-1894,1,99,-4643,23,-88,-38,36
983,-1895,3,94,-4649,23,-88,-38,36
984,-1893,0,94,-4647,23,-89,-40,35
985,-1893,-4,94,-4641,23,-88,-39,35
986,-1893,-5,94,-4647,23,-87,-39,35
987,-1893,-4,93,-4645,23,-87,-39,34
988,-1895,-2,94,-4641,23,-87,-40,33
989,-1894,-4,89,-4641,23,-86,-37,34
990,-1894,-4,89,-4649,23,-85,-37,34
991,-1891,-5,89,-4645,23,-85,-37,35
992,-1891,1,95,-4648,23,-87,-38,35
993,-1889,-2,93,-4650,23,-87,-38,34
994,-1891,-2,90,-4649,23,-88,-38,36
995,-1894,-4,95,-4647,23,-88,-39,35
996,-1892,-1,94,-4654,23,-87,-40,35
997,-1897,1,93,-4649,23,-88,-39,35
998,-1894,2,98,-4648,23,-87,-39,35
