,acc_X,acc_Y,acc_Z,temp,tempC,gyr_X,gyr_Y,gyr_Z
0,-3787,0,187,-4742,23,-87,-40,34
1,-3789,-4,184,-4742,23,-87,-39,34
2,-3785,-5,182,-4743,23,-87,-39,34
3,-3786,-3,185,-4743,23,-87,-39,35
4,-3786,-1,191,-4743,23,-88,-39,35
5,-3788,-3,190,-4741,23,-88,-39,35
6,-3789,-2,188,-4742,23,-88,-39,35
7,-3789,0,193,-4741,23,-87,-38,35
8,-3791,-1,191,-4739,23,-88,-38,35
9,-3791,0,192,-4739,23,-88,-39,35
10,-3789,0,194,-4738,23,-87,-38,35
11,-3788,-1,193,-4737,23,-87,-39,34
12,-3787,0,191,-4738,23,-86,-39,34
13,-3789,-2,192,-4741,23,-87,-38,34
14,-3789,0,191,-4740,23,-87,-38,35
15,-3790,-1,191,-4740,23,-86,-38,34
16,-3792,-2,192,-4741,23,-87,-38,34
17,-3791,-2,192,-4740,23,-87,-38,35
18,-3791,-3,191,-4737,23,-86,-38,34
19,-3790,-3,192,-4739,23,-87,-38,34
20,-3790,-1,192,-4739,23,-87,-38,34
21,-3788,-1,190,-4740,23,-86,-38,35
22,-3789,-2,187,-4741,23,-86,-38,35
23,-3790,-4,186,-4740,23,-86,-37,35
24,-3790,-2,183,-4741,23,-86,-38,35
25,-3792,-1,179,-4742,23,-86,-38,34
26,-3792,-4,181,-4741,23,-87,-38,35
27,-3793,-1,185,-4741,23,-87,-38,34
28,-3792,0,183,-4741,23,-87,-38,35
29,-3792,1,185,-4743,23,-87,-39,35
30,-3791,-1,185,-4741,23,-87,-39,35
31,-3792,-2,187,-4740,23,-86,-39,35
32,-3788,-2,185,-4739,23,-86,-39,34
33,-3787,0,187,-4739,23,-86,-40,34
34,-3789,-1,189,-4739,23,-87,-39,34
35,-3787,-2,184,-4737,23,-87,-40,33
36,-3787,-2,183,-4739,23,-87,-40,34
37,-3788,-1,184,-4739,23,-87,-40,34
38,-3790,-2,184,-4739,23,-87,-39,34
39,-3791,-2,183,-4740,23,-87,-39,34
40,-3791,-2,184,-4741,23,-86,-39,34
41,-3792,-4,185,-4743,23,-86,-39,35
42,-3791,-3,186,-4743,23,-86,-39,35
43,-3788,-3,188,-4741,23,-86,-40,35
44,-3790,-3,186,-4740,23,-86,-39,35
45,-3790,-4,188,-4739,23,-86,-39,34
46,-3789,-5,187,-4739,23,-87,-39,34
47,-3788,-8,184,-4739,23,-86,-39,34
48,-3789,-8,186,-4740,23,-86,-39,35
49,-3788,-8,189,-4739,23,-86,-39,35
50,-3786,-7,189,-4737,23,-87,-39,34
51,-3788,-6,188,-4736,23,-86,-39,34
52,-3791,-9,188,-4735,23,-87,-39,34
53,-3792,-6,185,-4735,23,-86,-39,34
54,-3792,-4,189,-4735,23,-87,-39,34
55,-3792,-3,190,-4736,23,-87,-40,34
56,-3790,-4,188,-4737,23,-87,-40,34
57,-3789,-3,189,-4738,23,-87,-40,34
58,-3787,-3,191,-4739,23,-87,-40,35
59,-3788,-2,186,-4741,23,-86,-40,35
60,-3788,-3,184,-4740,23,-86,-40,35
61,-3788,-2,184,-4739,23,-86,-40,35
62,-3789,-5,186,-4739,23,-86,-39,34
63,-3790,-2,187,-4739,23,-86,-39,34
64,-3790,-2,185,-4739,23,-87,-39,35
65,-3790,0,184,-4739,23,-87,-38,35
66,-3790,-2,184,-4738,23,-87,-38,35
67,-3790,-3,185,-4737,23,-87,-38,35
68,-3791,-4,186,-4737,23,-87,-38,34
69,-3792,-4,187,-4738,23,-87,-38,34
70,-3793,-3,186,-4738,23,-87,-38,34
71,-3792,-6,185,-4739,23,-87,-39,34
72,-3793,-7,186,-4738,23,-87,-39,33
73,-3792,-5,186,-4740,23,-86,-39,34
74,-3791,-3,184,-4741,23,-87,-39,34
75,-3792,-4,185,-4739,23,-87,-41,34
76,-3790,-3,186,-4739,23,-87,-40,34
77,-3789,-3,184,-4739,23,-86,-40,34
78,-3791,-5,185,-4740,23,-86,-39,34
79,-3792,-6,186,-4740,23,-86,-39,33
80,-3790,-5,185,-4740,23,-86,-40,34
81,-3788,-5,184,-4739,23,-87,-40,34
82,-3787,-6,186,-4741,23,-86,-40,34
83,-3785,-5,186,-4740,23,-86,-40,33
84,-3787,-6,187,-4741,23,-86,-40,33
85,-3789,-6,185,-4741,23,-86,-40,33
86,-3789,-5,186,-4740,23,-86,-39,33
87,-3791,-5,187,-4737,23,-86,-39,33
88,-3789,-7,187,-4738,23,-87,-39,34
89,-3788,-5,187,-4738,23,-87,-39,35
90,-3790,-5,190,-4738,23,-86,-39,35
91,-3790,-7,187,-4739,23,-87,-39,35
92,-3790,-9,185,-4741,23,-87,-40,35
93,-3793,-7,182,-4741,23,-86,-40,35
94,-3793,-5,183,-4742,23,-86,-40,35
95,-3792,-4,184,-4742,23,-87,-40,35
96,-3793,-5,184,-4741,23,-87,-40,35
97,-3794,-6,185,-4741,23,-87,-40,35
98,-3793,-5,188,-4741,23,-87,-40,34
99,-3792,-6,189,-4742,23,-87,-39,35
100,-3789,-6,187,-4742,23,-87,-39,35
101,-3789,-6,184,-4742,23,-86,-39,35
102,-3790,-4,186,-4741,23,-86,-39,35
103,-3789,-4,184,-4739,23,-86,-39,35
104,-3789,-4,184,-4738,23,-87,-39,35
105,-3790,-4,182,-4737,23,-87,-38,35
106,-3789,-4,183,-4737,23,-87,-39,35
107,-3787,-4,186,-4737,23,-87,-39,35
108,-3789,-5,189,-4738,23,-87,-39,34
109,-3790,-4,185,-4738,23,-87,-39,34
110,-3789,-4,192,-4737,23,-87,-39,34
111,-3786,-4,192,-4738,23,-86,-39,34
112,-3788,-4,190,-4738,23,-87,-39,35
113,-3785,-5,193,-4736,23,-86,-39,34
114,-3785,-8,192,-4735,23,-87,-39,34
115,-3785,-7,191,-4735,23,-87,-39,35
116,-3784,-8,193,-4736,23,-86,-39,34
117,-3786,-10,192,-4736,23,-86,-39,34
118,-3788,-9,193,-4736,23,-86,-40,35
119,-3787,-8,191,-4737,23,-86,-40,35
120,-3789,-8,188,-4737,23,-86,-39,35
121,-3789,-6,185,-4737,23,-86,-39,34
122,-3790,-5,186,-4737,23,-86,-39,34
123,-3788,-2,185,-4737,23,-86,-38,34
124,-3790,-4,182,-4737,23,-86,-38,34
125,-3790,-6,182,-4736,23,-86,-39,34
126,-3791,-5,184,-4736,23,-86,-39,34
127,-3791,-4,181,-4737,23,-86,-39,34
128,-3791,-3,182,-4738,23,-86,-38,34
129,-3789,-2,182,-4739,23,-85,-39,34
130,-3789,-2,177,-4739,23,-86,-38,33
131,-3792,-3,179,-4739,23,-86,-38,34
132,-3790,-4,177,-4741,23,-87,-38,34
133,-3790,-6,177,-4740,23,-87,-38,34
134,-3787,-7,181,-4741,23,-87,-39,34
135,-3788,-5,181,-4741,23,-87,-39,34
136,-3788,-4,183,-4741,23,-87,-39,35
137,-3789,-4,183,-4741,23,-87,-39,34
138,-3788,-5,185,-4740,23,-86,-39,34
139,-3789,-6,185,-4739,23,-86,-39,34
140,-3790,-4,187,-4740,23,-86,-39,35
141,-3789,-5,187,-4740,23,-86,-39,34
142,-3790,-6,185,-4738,23,-86,-39,34
143,-3787,-4,182,-4740,23,-86,-39,35
144,-3788,-5,181,-4741,23,-87,-39,34
145,-3787,-7,182,-4743,23,-87,-39,34
146,-3785,-5,181,-4744,23,-88,-39,34
147,-3785,-5,184,-4744,23,-87,-39,34
148,-3787,-5,183,-4742,23,-87,-39,34
149,-3789,-4,187,-4743,23,-87,-39,34
150,-3791,-5,184,-4742,23,-87,-39,34
151,-3793,-2,181,-4742,23,-87,-39,34
152,-3790,-3,184,-4740,23,-87,-39,34
153,-3788,0,183,-4742,23,-87,-39,35
154,-3788,-2,183,-4739,23,-87,-38,35
155,-3786,-2,185,-4739,23,-87,-38,35
156,-3786,0,187,-4738,23,-87,-38,35
157,-3788,-2,187,-4738,23,-87,-38,35
158,-3789,-5,185,-4738,23,-87,-38,35
159,-3791,-3,184,-4738,23,-87,-38,35
160,-3790,-4,182,-4739,23,-88,-38,35
161,-3790,-4,182,-4738,23,-88,-38,35
162,-3791,-4,182,-4738,23,-88,-39,35
163,-3792,-4,182,-4737,23,-87,-38,35
164,-3790,-4,182,-4737,23,-87,-38,35
165,-3791,-3,187,-4738,23,-87,-38,35
166,-3790,-1,188,-4740,23,-88,-38,35
167,-3790,-1,188,-4740,23,-87,-39,35
168,-3793,-1,188,-4739,23,-87,-39,35
169,-3794,-1,188,-4737,23,-87,-39,35
170,-3792,-1,186,-4736,23,-87,-38,35
171,-3793,-2,185,-4736,23,-87,-38,35
172,-3794,-5,187,-4736,23,-87,-38,35
173,-3793,-4,184,-4736,23,-87,-38,35
174,-3795,-3,183,-4736,23,-87,-38,35
175,-3794,-1,184,-4737,23,-87,-39,35
176,-3794,1,181,-4738,23,-87,-39,35
177,-3794,2,182,-4737,23,-87,-39,35
178,-3793,0,180,-4738,23,-87,-38,35
179,-3791,-1,184,-4738,23,-86,-39,35
180,-3791,-1,185,-4737,23,-87,-38,35
181,-3791,-1,185,-4737,23,-87,-39,34
182,-3793,0,184,-4738,23,-87,-39,35
183,-3793,-1,188,-4739,23,-87,-38,34
184,-3790,-1,187,-4740,23,-87,-38,34
185,-3790,-1,184,-4739,23,-86,-39,35
186,-3787,-3,185,-4738,23,-86,-39,34
187,-3789,-4,186,-4737,23,-85,-39,34
188,-3789,-8,186,-4737,23,-86,-39,34
189,-3789,-6,184,-4739,23,-86,-38,34
190,-3791,-6,185,-4739,23,-86,-38,34
191,-3791,-7,190,-4741,23,-87,-38,33
192,-3791,-6,191,-4739,23,-87,-39,33
193,-3791,-4,192,-4739,23,-87,-38,33
194,-3790,-5,192,-4738,23,-87,-39,33
195,-3789,-5,192,-4737,23,-87,-38,34
196,-3787,-4,192,-4737,23,-87,-39,34
197,-3790,-3,192,-4737,23,-87,-38,34
198,-3790,-5,189,-4738,23,-87,-39,34
199,-3791,-4,188,-4739,23,-87,-40,34
200,-3792,-3,189,-4738,23,-87,-39,34
201,-3789,-3,189,-4737,23,-87,-39,34
202,-3790,-3,188,-4737,23,-87,-40,34
203,-3790,-4,189,-4736,23,-87,-40,34
204,-3790,-4,190,-4738,23,-87,-39,34
205,-3791,-3,187,-4737,23,-87,-38,34
206,-3788,-3,186,-4737,23,-87,-38,34
207,-3788,-2,187,-4738,23,-87,-39,35
208,-3787,-1,185,-4738,23,-86,-40,35
209,-3789,-4,188,-4737,23,-86,-39,35
210,-3788,-4,189,-4737,23,-87,-39,35
211,-3785,-5,188,-4736,23,-87,-39,35
212,-3786,-4,186,-4736,23,-87,-39,35
213,-3791,-6,185,-4738,23,-87,-39,35
214,-3789,-5,190,-4739,23,-87,-39,35
215,-3791,-4,189,-4739,23,-86,-39,34
216,-3789,-5,189,-4739,23,-86,-40,34
217,-3788,-7,185,-4740,23,-86,-39,35
218,-3788,-7,183,-4740,23,-86,-38,35
219,-3786,-6,184,-4740,23,-87,-38,35
220,-3787,-4,183,-4740,23,-87,-38,35
221,-3788,-5,181,-4741,23,-87,-38,35
222,-3790,-3,184,-4741,23,-87,-38,35
223,-3786,-2,184,-4741,23,-87,-38,35
224,-3788,-4,188,-4740,23,-87,-38,35
225,-3786,-3,188,-4740,23,-87,-38,35
226,-3785,-4,187,-4738,23,-86,-38,34
227,-3784,-5,185,-4738,23,-87,-38,35
228,-3788,-5,186,-4737,23,-86,-39,35
229,-3788,-7,186,-4740,23,-86,-39,34
230,-3787,-5,187,-4740,23,-87,-39,34
231,-3787,-5,185,-4739,23,-87,-39,34
232,-3787,-5,184,-4738,23,-87,-39,34
233,-3787,-7,182,-4738,23,-87,-39,34
234,-3785,-7,181,-4735,23,-87,-39,34
235,-3785,-8,182,-4735,23,-87,-39,34
236,-3787,-7,180,-4736,23,-87,-38,34
237,-3787,-8,179,-4737,23,-87,-39,34
238,-3788,-9,178,-4737,23,-87,-39,34
239,-3789,-5,179,-4737,23,-86,-38,34
240,-3789,-6,184,-4738,23,-87,-39,34
241,-3790,-7,185,-4739,23,-87,-39,34
242,-3789,-6,182,-4737,23,-87,-39,34
243,-3788,-6,181,-4737,23,-87,-39,34
244,-3786,-7,182,-4736,23,-87,-39,34
245,-3786,-7,183,-4737,23,-86,-39,34
246,-3787,-8,185,-4736,23,-87,-39,34
247,-3789,-7,186,-4737,23,-87,-38,34
248,-3790,-7,186,-4737,23,-86,-38,34
249,-3786,-6,186,-4737,23,-86,-38,35
250,-3787,-6,184,-4738,23,-87,-38,35
251,-3784,-4,183,-4737,23,-86,-38,35
252,-3785,-3,184,-4736,23,-87,-39,35
253,-3788,-3,181,-4736,23,-87,-39,35
254,-3789,-1,181,-4735,23,-87,-39,35
255,-3789,-1,181,-4735,23,-87,-39,35
256,-3789,-2,182,-4736,23,-86,-39,35
257,-3788,-2,185,-4738,23,-86,-39,35
258,-3790,-3,186,-4737,23,-86,-39,35
259,-3788,0,183,-4737,23,-87,-38,35
260,-3787,1,184,-4738,23,-86,-38,34
261,-3787,0,186,-4739,23,-87,-38,35
262,-3785,2,183,-4738,23,-87,-38,34
263,-3782,-1,180,-4739,23,-87,-38,34
264,-3784,-4,182,-4739,23,-87,-39,34
265,-3787,-5,183,-4739,23,-87,-39,34
266,-3788,-3,183,-4738,23,-87,-39,34
267,-3785,-2,186,-4738,23,-87,-39,35
268,-3782,-2,184,-4739,23,-87,-38,35
269,-3786,-1,186,-4737,23,-87,-39,35
270,-3786,-2,187,-4735,23,-87,-39,35
271,-3789,-1,183,-4736,23,-86,-39,35
272,-3792,-3,186,-4737,23,-86,-39,34
273,-3789,-5,188,-4739,23,-86,-39,35
274,-3786,-4,189,-4739,23,-85,-39,35
275,-3785,-6,190,-4740,23,-87,-40,35
276,-3786,-5,185,-4741,23,-87,-40,35
277,-3787,-6,183,-4741,23,-87,-39,35
278,-3786,-6,183,-4740,23,-87,-39,34
279,-3787,-6,186,-4740,23,-87,-39,34
280,-3789,-8,187,-4741,23,-87,-38,34
281,-3789,-6,186,-4743,23,-87,-38,34
282,-3788,-4,189,-4742,23,-87,-38,34
283,-3790,-6,186,-4740,23,-86,-39,34
284,-3790,-5,185,-4739,23,-86,-39,34
285,-3789,-6,186,-4739,23,-85,-39,34
286,-3788,-2,187,-4738,23,-86,-38,35
287,-3788,-3,187,-4737,23,-86,-38,35
288,-3787,-2,186,-4737,23,-87,-38,35
289,-3786,-2,187,-4739,23,-87,-38,34
290,-3786,-2,185,-4740,23,-87,-38,34
291,-3785,-3,186,-4742,23,-87,-38,34
292,-3788,-3,186,-4741,23,-87,-38,34
293,-3789,-1,188,-4741,23,-87,-38,34
294,-3791,-1,187,-4741,23,-88,-39,34
295,-3791,-2,186,-4741,23,-87,-39,34
296,-3790,0,183,-4740,23,-87,-39,34
297,-3791,0,185,-4739,23,-87,-39,34
298,-3788,0,184,-4738,23,-86,-39,34
299,-3789,-1,185,-4739,23,-86,-38,34
300,-3788,-2,186,-4738,23,-86,-38,34
301,-3788,-5,185,-4738,23,-86,-38,34
302,-3787,-3,186,-4736,23,-86,-38,34
303,-3786,-2,182,-4738,23,-86,-38,34
304,-3787,-1,181,-4738,23,-86,-38,35
305,-3788,-1,182,-4739,23,-86,-39,34
306,-3788,-2,182,-4740,23,-86,-39,35
307,-3789,-5,186,-4738,23,-86,-38,35
308,-3790,-7,180,-4738,23,-86,-38,35
309,-3791,-7,182,-4739,23,-87,-39,35
310,-3793,-6,186,-4738,23,-87,-38,35
311,-3791,-4,184,-4737,23,-87,-38,35
312,-3789,-4,189,-4738,23,-87,-38,35
313,-3789,-2,191,-4739,23,-86,-38,35
314,-3791,-4,190,-4738,23,-87,-39,35
315,-3788,-3,191,-4737,23,-87,-39,35
316,-3787,-4,191,-4738,23,-88,-40,35
317,-3789,-4,189,-4737,23,-87,-39,35
318,-3788,-3,185,-4739,23,-87,-40,35
319,-3786,-4,186,-4738,23,-86,-40,35
320,-3787,-4,182,-4738,23,-86,-39,35
321,-3787,-3,181,-4738,23,-87,-40,35
322,-3786,-3,187,-4737,23,-87,-39,34
323,-3788,-3,188,-4737,23,-87,-39,35
324,-3789,-3,190,-4737,23,-87,-38,35
325,-3789,-6,185,-4735,23,-87,-38,35
326,-3791,-7,182,-4736,23,-87,-39,35
327,-3791,-4,181,-4737,23,-87,-39,34
328,-3792,-4,180,-4738,23,-87,-39,34
329,-3792,-3,181,-4738,23,-87,-39,34
330,-3791,-4,182,-4736,23,-87,-39,34
331,-3789,-3,181,-4734,23,-86,-38,35
332,-3788,-2,184,-4735,23,-87,-38,34
333,-3790,-1,187,-4735,23,-87,-38,34
334,-3789,-2,185,-4735,23,-87,-39,35
335,-3790,-3,188,-4735,23,-87,-38,35
336,-3788,-3,186,-4734,23,-87,-39,34
337,-3789,-6,184,-4735,23,-87,-39,34
338,-3788,-8,183,-4734,23,-87,-39,35
339,-3789,-7,183,-4734,23,-86,-39,35
340,-3788,-6,182,-4734,23,-86,-39,35
341,-3790,-4,183,-4733,23,-86,-39,35
342,-3790,-4,180,-4733,23,-87,-39,35
343,-3789,-3,180,-4733,23,-87,-39,35
344,-3791,-2,184,-4734,23,-86,-39,35
345,-3787,-2,185,-4733,23,-87,-38,35
346,-3784,-2,189,-4733,23,-87,-38,35
347,-3784,-3,188,-4735,23,-86,-38,34
348,-3784,-1,184,-4735,23,-87,-38,34
349,-3786,-3,185,-4733,23,-88,-38,34
350,-3790,-4,182,-4732,23,-87,-38,34
351,-3791,-7,181,-4732,23,-87,-39,35
352,-3792,-6,182,-4733,23,-87,-39,35
353,-3793,-6,183,-4733,23,-88,-39,35
354,-3796,-6,185,-4735,23,-88,-39,35
355,-3794,-5,185,-4736,23,-88,-39,34
356,-3794,-2,182,-4736,23,-88,-39,34
357,-3793,-2,180,-4736,23,-88,-38,34
358,-3794,-4,180,-4735,23,-88,-38,34
359,-3791,-5,181,-4734,23,-88,-38,34
360,-3790,-5,181,-4735,23,-88,-38,34
361,-3790,-5,183,-4734,23,-87,-38,34
362,-3790,-4,184,-4736,23,-87,-38,33
363,-3789,-5,183,-4735,23,-87,-39,34
364,-3788,-6,185,-4735,23,-87,-38,34
365,-3788,-2,185,-4736,23,-87,-38,35
366,-3787,-2,187,-4736,23,-87,-39,35
367,-3788,-3,186,-4735,23,-87,-39,35
368,-3789,-1,188,-4734,23,-87,-39,35
369,-3792,0,185,-4734,23,-87,-38,35
370,-3793,0,183,-4733,23,-87,-39,35
371,-3793,-2,183,-4733,23,-87,-39,35
372,-3793,-3,185,-4734,23,-87,-39,34
373,-3790,-1,181,-4733,23,-87,-39,34
374,-3789,-1,180,-4733,23,-87,-39,34
375,-3787,-2,179,-4732,23,-87,-40,34
376,-3788,-2,179,-4732,23,-87,-40,34
377,-3788,-2,177,-4733,23,-87,-40,34
378,-3789,-2,178,-4734,23,-87,-40,34
379,-3789,-3,182,-4733,23,-87,-40,34
380,-3790,-4,185,-4735,23,-87,-40,34
381,-3791,-4,190,-4734,23,-86,-40,35
382,-3791,-5,189,-4734,23,-86,-40,35
383,-3791,-6,188,-4731,23,-86,-40,35
384,-3789,-7,188,-4732,23,-87,-40,34
385,-3789,-7,189,-4732,23,-87,-39,35
386,-3788,-7,189,-4734,23,-86,-39,34
387,-3788,-6,189,-4734,23,-86,-39,34
388,-3789,-5,185,-4734,23,-86,-39,34
389,-3791,-3,184,-4732,23,-87,-40,34
390,-3791,-2,186,-4731,23,-87,-40,34
391,-3789,-2,187,-4732,23,-87,-40,34
392,-3787,-1,190,-4732,23,-86,-39,34
393,-3787,-1,187,-4734,23,-86,-39,35
394,-3788,-1,188,-4734,23,-86,-38,35
395,-3789,0,188,-4734,23,-86,-39,35
396,-3789,1,188,-4735,23,-87,-39,35
397,-3789,0,189,-4736,23,-86,-39,35
398,-3789,0,189,-4738,23,-86,-39,35
399,-3790,-1,187,-4739,23,-86,-39,35
400,-3787,-1,185,-4737,23,-87,-39,34
401,-3790,-2,188,-4738,23,-87,-39,35
402,-3789,-1,189,-4737,23,-86,-39,34
403,-3788,-2,189,-4739,23,-87,-39,35
404,-3788,-4,181,-4738,23,-87,-39,34
405,-3790,-2,183,-4737,23,-86,-39,35
406,-3789,1,184,-4736,23,-86,-39,35
407,-3791,-1,188,-4735,23,-87,-39,36
408,-3790,-2,189,-4735,23,-87,-38,36
409,-3789,-1,186,-4735,23,-87,-39,36
410,-3791,0,187,-4735,23,-87,-39,35
411,-3790,-2,187,-4737,23,-87,-39,35
412,-3790,-3,188,-4734,23,-87,-38,35
413,-3788,0,189,-4733,23,-87,-38,35
414,-3789,-1,186,-4733,23,-87,-38,35
415,-3789,0,187,-4734,23,-87,-38,34
416,-3788,-1,184,-4735,23,-87,-38,34
417,-3786,-4,185,-4737,23,-87,-38,34
418,-3786,-4,184,-4739,23,-87,-39,34
419,-3786,-4,188,-4738,23,-87,-39,33
420,-3787,-4,188,-4738,23,-88,-39,33
421,-3787,-4,188,-4737,23,-88,-40,33
422,-3786,-5,187,-4737,23,-88,-39,34
423,-3790,-5,186,-4737,23,-88,-40,34
424,-3788,-5,188,-4736,23,-88,-40,34
425,-3790,-7,187,-4736,23,-87,-39,34
426,-3790,-6,186,-4736,23,-87,-40,34
427,-3789,-4,188,-4736,23,-88,-40,35
428,-3790,-3,184,-4734,23,-88,-40,34
429,-3789,-4,182,-4734,23,-88,-40,34
430,-3789,-3,184,-4735,23,-88,-39,34
431,-3789,0,185,-4736,23,-88,-39,33
432,-3789,-1,184,-4737,23,-87,-39,34
433,-3790,-3,180,-4735,23,-87,-38,34
434,-3790,-7,181,-4737,23,-87,-39,34
435,-3790,-5,182,-4738,23,-87,-39,34
436,-3789,-3,182,-4737,23,-87,-39,34
437,-3789,-2,184,-4739,23,-87,-39,34
438,-3789,-2,184,-4738,23,-87,-39,34
439,-3790,1,183,-4737,23,-87,-39,35
440,-3790,0,184,-4738,23,-87,-39,34
441,-3790,-1,184,-4738,23,-87,-39,34
442,-3789,-1,182,-4737,23,-87,-39,35
443,-3788,-1,184,-4736,23,-87,-39,35
444,-3788,0,184,-4737,23,-87,-38,35
445,-3790,0,183,-4737,23,-87,-38,35
446,-3792,1,185,-4736,23,-87,-38,35
447,-3789,1,190,-4737,23,-87,-38,35
448,-3787,0,189,-4735,23,-87,-38,35
449,-3789,0,188,-4734,23,-87,-38,34
450,-3789,-3,189,-4733,23,-87,-39,35
451,-3789,-4,189,-4733,23,-87,-39,34
452,-3792,-4,186,-4734,23,-87,-39,34
453,-3788,-2,185,-4733,23,-86,-39,34
454,-3788,-3,184,-4733,23,-86,-38,34
455,-3791,-4,185,-4732,23,-86,-39,35
456,-3792,-4,187,-4732,23,-85,-39,35
457,-3791,-3,187,-4733,23,-86,-39,35
458,-3787,-1,188,-4734,23,-86,-39,35
459,-3787,-1,187,-4734,23,-86,-39,35
460,-3788,-1,187,-4736,23,-86,-38,34
461,-3789,-1,186,-4735,23,-86,-38,34
462,-3789,-2,187,-4734,23,-86,-38,34
463,-3789,-2,188,-4736,23,-86,-38,34
464,-3788,-6,187,-4736,23,-87,-38,34
465,-3788,-7,186,-4736,23,-87,-38,34
466,-3785,-4,188,-4735,23,-87,-38,34
467,-3786,-5,192,-4736,23,-87,-38,34
468,-3788,-2,190,-4738,23,-87,-39,34
469,-3788,-2,187,-4737,23,-87,-38,34
470,-3787,-2,186,-4733,23,-87,-38,34
471,-3790,-3,187,-4733,23,-87,-39,34
472,-3791,-1,189,-4734,23,-87,-40,34
473,-3791,0,191,-4732,23,-86,-39,34
474,-3786,0,188,-4734,23,-87,-39,34
475,-3786,1,189,-4734,23,-87,-39,34
476,-3788,-1,187,-4734,23,-87,-39,35
477,-3790,-1,187,-4734,23,-87,-39,35
478,-3788,-3,188,-4735,23,-87,-39,35
479,-3790,-6,186,-4735,23,-87,-38,35
480,-3791,-5,188,-4734,23,-87,-38,35
481,-3792,-5,190,-4734,23,-87,-39,34
482,-3789,-6,187,-4733,23,-86,-39,35
483,-3789,-5,186,-4731,23,-86,-39,35
484,-3789,-4,186,-4733,23,-86,-38,34
485,-3789,-5,185,-4733,23,-86,-39,34
486,-3790,-7,185,-4733,23,-86,-39,34
487,-3789,-6,184,-4732,23,-87,-39,34
488,-3788,-7,184,-4733,23,-87,-39,34
489,-3789,-7,183,-4733,23,-87,-39,34
490,-3789,-6,181,-4733,23,-87,-40,34
491,-3789,-2,181,-4733,23,-87,-40,34
492,-3788,-1,179,-4733,23,-87,-39,34
493,-3788,-1,180,-4732,23,-88,-39,35
494,-3786,-2,181,-4734,23,-88,-39,34
495,-3788,-4,180,-4733,23,-88,-38,35
496,-3788,-3,181,-4734,23,-88,-38,35
497,-3788,-4,185,-4737,23,-88,-38,35
498,-3788,-2,189,-4737,23,-88,-39,35
499,-3789,-3,190,-4736,23,-87,-38,35
500,-3789,-3,188,-4735,23,-88,-38,35
501,-3789,-6,186,-4734,23,-87,-38,34
502,-3790,-6,186,-4735,23,-88,-39,34
503,-3789,-5,185,-4736,23,-87,-40,34
504,-3788,-7,187,-4738,23,-87,-40,34
505,-3787,-8,185,-4738,23,-87,-39,34
506,-3789,-10,180,-4737,23,-87,-39,34
507,-3789,-9,181,-4737,23,-88,-39,34
508,-3787,-9,183,-4735,23,-88,-39,34
509,-3788,-8,186,-4734,23,-87,-40,34
510,-3789,-7,188,-4733,23,-87,-40,35
511,-3789,-7,188,-4735,23,-87,-40,35
512,-3788,-5,183,-4736,23,-87,-40,35
513,-3788,-5,186,-4735,23,-87,-40,35
514,-3787,-6,188,-4734,23,-86,-39,35
515,-3788,-7,189,-4733,23,-87,-39,34
516,-3789,-8,190,-4734,23,-86,-39,34
517,-3790,-6,188,-4734,23,-87,-39,34
518,-3790,-6,183,-4736,23,-87,-39,34
519,-3791,-6,184,-4736,23,-87,-39,34
520,-3791,-6,181,-4736,23,-87,-39,34
521,-3790,-5,180,-4735,23,-87,-40,34
522,-3790,-7,184,-4735,23,-87,-39,34
523,-3790,-7,186,-4733,23,-86,-40,34
524,-3789,-6,189,-4732,23,-87,-40,34
525,-3789,-6,189,-4732,23,-87,-39,34
526,-3789,-6,188,-4733,23,-87,-39,35
527,-3789,-6,187,-4732,23,-87,-39,34
528,-3790,-3,187,-4731,23,-87,-39,34
529,-3789,-1,185,-4730,23,-87,-39,34
530,-3789,-1,184,-4731,23,-87,-39,34
531,-3788,0,182,-4732,23,-86,-39,35
532,-3788,0,182,-4732,23,-87,-40,35
533,-3789,0,182,-4732,23,-87,-39,34
534,-3790,0,186,-4734,23,-87,-39,34
535,-3790,2,183,-4734,23,-87,-39,35
536,-3789,2,185,-4736,23,-87,-39,34
537,-3787,-1,183,-4736,23,-87,-39,34
538,-3788,-1,180,-4736,23,-87,-40,35
539,-3787,-1,186,-4735,23,-87,-40,35
540,-3788,0,182,-4734,23,-87,-40,35
541,-3789,-3,182,-4735,23,-87,-39,35
542,-3790,-3,180,-4736,23,-87,-39,35
543,-3790,-2,184,-4734,23,-87,-38,35
544,-3789,-2,182,-4735,23,-86,-38,34
545,-3790,-3,179,-4734,23,-87,-38,34
546,-3789,-3,184,-4735,23,-86,-38,34
547,-3788,-3,185,-4735,23,-86,-39,34
548,-3787,-3,185,-4733,23,-86,-39,34
549,-3787,-1,185,-4731,23,-87,-39,34
550,-3787,-1,189,-4732,23,-87,-40,34
551,-3786,1,187,-4731,23,-87,-40,34
552,-3787,-2,189,-4733,23,-87,-40,34
553,-3789,-4,185,-4732,23,-87,-39,34
554,-3787,-3,184,-4732,23,-87,-39,34
555,-3787,-1,187,-4732,23,-87,-39,34
556,-3787,-5,184,-4732,23,-87,-39,34
557,-3787,-5,185,-4732,23,-87,-39,34
558,-3788,-4,186,-4731,23,-87,-39,34
559,-3788,-4,184,-4731,23,-87,-39,34
560,-3787,-2,183,-4732,23,-87,-39,34
561,-3786,-2,181,-4730,23,-88,-39,34
562,-3786,-4,184,-4730,23,-87,-39,34
563,-3789,-3,187,-4732,23,-88,-39,34
564,-3789,-4,187,-4732,23,-88,-39,34
565,-3789,-7,187,-4732,23,-87,-39,34
566,-3788,-9,185,-4733,23,-87,-39,35
567,-3785,-6,184,-4731,23,-87,-39,35
568,-3785,-5,182,-4730,23,-86,-39,35
569,-3786,-4,182,-4730,23,-86,-39,35
570,-3788,-4,185,-4730,23,-86,-39,34
571,-3788,-3,184,-4730,23,-86,-39,34
572,-3789,-4,182,-4731,23,-86,-39,34
573,-3786,-4,183,-4732,23,-86,-39,34
574,-3784,-2,183,-4732,23,-86,-39,35
575,-3784,-2,183,-4732,23,-87,-39,35
576,-3784,0,183,-4733,23,-86,-39,35
577,-3783,-2,185,-4733,23,-87,-39,35
578,-3785,-1,183,-4732,23,-86,-39,34
579,-3788,0,181,-4733,23,-87,-39,34
580,-3789,1,181,-4732,23,-87,-38,34
581,-3788,-1,181,-4733,23,-87,-39,34
582,-3787,-1,182,-4733,23,-87,-39,34
583,-3788,-2,186,-4734,23,-87,-38,34
584,-3789,-1,185,-4735,23,-87,-38,34
585,-3787,-4,183,-4735,23,-87,-38,33
586,-3788,-4,182,-4734,23,-87,-39,34
587,-3788,-5,182,-4733,23,-86,-38,33
588,-3788,-6,183,-4732,23,-86,-39,33
589,-3790,-5,184,-4732,23,-86,-40,33
590,-3788,-7,183,-4732,23,-87,-39,34
591,-3789,-6,185,-4736,23,-87,-40,34
592,-3787,-7,186,-4735,23,-87,-40,34
593,-3787,-7,188,-4736,23,-87,-40,34
594,-3789,-7,192,-4736,23,-87,-40,35
595,-3788,-6,191,-4737,23,-88,-39,35
596,-3786,-5,192,-4736,23,-87,-40,35
597,-3785,-6,195,-4736,23,-87,-40,35
598,-3786,-6,191,-4737,23,-87,-40,35
599,-3788,-6,190,-4736,23,-86,-40,35
600,-3787,-3,192,-4735,23,-87,-40,35
601,-3788,-6,195,-4737,23,-87,-40,35
602,-3787,-4,194,-4735,23,-87,-40,35
603,-3787,-4,189,-4736,23,-87,-39,35
604,-3787,-5,189,-4736,23,-87,-40,34
605,-3791,-2,187,-4735,23,-87,-39,34
606,-3789,-3,187,-4735,23,-87,-40,34
607,-3790,-3,188,-4734,23,-87,-39,34
608,-3789,-3,190,-4734,23,-87,-39,34
609,-3788,-3,189,-4736,23,-87,-39,35
610,-3789,-3,190,-4736,23,-87,-39,35
611,-3790,-5,189,-4736,23,-87,-39,35
612,-3790,-7,192,-4734,23,-87,-39,34
613,-3789,-8,190,-4736,23,-87,-38,35
614,-3792,-9,191,-4736,23,-86,-38,34
615,-3791,-10,187,-4736,23,-87,-38,34
616,-3789,-8,186,-4735,23,-87,-38,34
617,-3789,-6,187,-4734,23,-86,-38,34
618,-3789,-7,184,-4734,23,-87,-38,34
619,-3789,-5,183,-4732,23,-87,-38,34
620,-3789,-3,184,-4732,23,-87,-38,34
621,-3789,-3,185,-4731,23,-87,-39,34
622,-3788,-3,184,-4732,23,-87,-40,34
623,-3787,-4,184,-4733,23,-87,-40,34
624,-3787,-6,185,-4733,23,-87,-40,34
625,-3788,-5,187,-4735,23,-87,-40,34
626,-3788,-5,183,-4735,23,-88,-40,34
627,-3788,-5,187,-4735,23,-87,-39,34
628,-3789,-6,189,-4735,23,-88,-39,34
629,-3790,-5,188,-4735,23,-88,-39,35
630,-3790,-7,187,-4734,23,-87,-39,34
631,-3789,-6,189,-4735,23,-87,-39,34
632,-3787,-9,188,-4735,23,-87,-39,34
633,-3786,-10,181,-4737,23,-87,-39,34
634,-3790,-7,182,-4736,23,-87,-39,34
635,-3789,-6,182,-4736,23,-86,-39,34
636,-3790,-4,183,-4737,23,-87,-39,34
637,-3788,-6,183,-4737,23,-87,-39,34
638,-3788,-5,183,-4735,23,-87,-39,34
639,-3789,-3,185,-4734,23,-87,-39,34
640,-3790,-3,187,-4733,23,-86,-40,34
641,-3790,-1,189,-4731,23,-86,-39,34
642,-3790,1,190,-4731,23,-86,-39,34
643,-3790,-1,187,-4731,23,-86,-39,34
644,-3789,-1,185,-4730,23,-87,-39,34
645,-3790,-1,187,-4732,23,-87,-39,34
646,-3790,-3,186,-4732,23,-87,-39,35
647,-3791,-3,185,-4732,23,-87,-39,35
648,-3795,-4,179,-4733,23,-88,-39,35
649,-3793,-2,181,-4733,23,-88,-39,35
650,-3792,-4,183,-4732,23,-87,-39,34
651,-3791,-3,184,-4731,23,-87,-38,34
652,-3791,-2,186,-4731,23,-86,-38,34
653,-3791,-2,187,-4732,23,-86,-38,34
654,-3789,-4,187,-4733,23,-86,-38,34
655,-3790,-2,190,-4733,23,-86,-39,34
656,-3790,-6,191,-4731,23,-86,-39,34
657,-3787,-8,188,-4731,23,-86,-39,35
658,-3784,-5,187,-4732,23,-86,-39,35
659,-3784,-6,188,-4734,23,-87,-39,35
660,-3785,-6,187,-4733,23,-87,-38,34
661,-3785,-5,188,-4734,23,-87,-39,34
662,-3787,-5,188,-4734,23,-87,-39,34
663,-3787,-4,191,-4735,23,-87,-39,34
664,-3788,-1,189,-4734,23,-87,-39,34
665,-3789,-5,193,-4736,23,-87,-39,34
666,-3788,-7,192,-4736,23,-87,-39,34
667,-3788,-10,194,-4738,23,-87,-39,35
668,-3788,-7,193,-4738,23,-87,-39,35
669,-3787,-5,190,-4739,23,-88,-39,35
670,-3787,-5,191,-4736,23,-88,-39,35
671,-3787,-6,191,-4737,23,-88,-39,35
672,-3789,-4,188,-4737,23,-88,-39,35
673,-3787,-5,189,-4735,23,-88,-39,35
674,-3787,-4,185,-4735,23,-87,-39,35
675,-3786,-3,185,-4733,23,-88,-39,35
676,-3788,-3,188,-4734,23,-87,-38,35
677,-3790,-5,188,-4734,23,-88,-38,35
678,-3790,-5,186,-4733,23,-88,-38,35
679,-3788,-2,186,-4732,23,-87,-38,35
680,-3790,-3,186,-4734,23,-87,-38,35
681,-3792,-3,185,-4733,23,-87,-38,35
682,-3791,-5,189,-4732,23,-87,-38,34
683,-3789,-5,188,-4729,23,-87,-38,34
684,-3788,-3,189,-4730,23,-87,-38,35
685,-3788,-5,187,-4731,23,-87,-39,35
686,-3788,-7,191,-4730,23,-86,-39,35
687,-3789,-4,189,-4730,23,-87,-38,35
688,-3789,-5,186,-4732,23,-87,-39,35
689,-3789,-4,186,-4732,23,-88,-39,35
690,-3787,-2,183,-4731,23,-87,-39,35
691,-3787,-2,184,-4732,23,-87,-39,35
692,-3787,-2,182,-4733,23,-88,-39,35
693,-3789,-3,180,-4733,23,-87,-39,34
694,-3788,-6,183,-4732,23,-87,-38,35
695,-3786,-5,183,-4731,23,-87,-39,35
696,-3787,-6,187,-4731,23,-87,-39,35
697,-3791,-7,188,-4731,23,-87,-39,35
698,-3792,-7,188,-4732,23,-87,-39,35
699,-3791,-6,189,-4732,23,-87,-39,35
700,-3789,-6,186,-4731,23,-87,-39,35
701,-3790,-4,180,-4732,23,-87,-39,34
702,-3789,-4,178,-4732,23,-87,-39,34
703,-3788,-2,180,-4730,23,-87,-38,35
704,-3789,-3,181,-4730,23,-87,-38,35
705,-3790,-4,184,-4730,23,-87,-38,35
706,-3792,-6,187,-4728,23,-87,-38,35
707,-3791,-6,189,-4730,23,-87,-39,35
708,-3790,-4,191,-4729,23,-86,-38,34
709,-3790,-2,189,-4730,23,-87,-38,34
710,-3789,-3,188,-4731,23,-88,-39,34
711,-3789,-2,193,-4731,23,-87,-39,34
712,-3788,-4,193,-4732,23,-87,-39,34
713,-3787,-4,194,-4732,23,-87,-40,34
714,-3788,-3,192,-4731,23,-87,-39,34
715,-3790,-4,191,-4730,23,-87,-39,35
716,-3789,-3,190,-4731,23,-87,-38,35
717,-3789,-3,188,-4730,23,-87,-39,35
718,-3789,-5,189,-4731,23,-87,-39,35
719,-3791,-7,188,-4729,23,-87,-39,35
720,-3790,-7,182,-4727,23,-87,-38,34
721,-3790,-7,183,-4730,23,-87,-39,34
722,-3790,-5,181,-4732,23,-86,-39,34
723,-3791,-7,183,-4729,23,-86,-39,35
724,-3791,-6,185,-4729,23,-86,-39,34
725,-3790,-4,185,-4730,23,-87,-39,34
726,-3792,-3,185,-4730,23,-87,-39,35
727,-3790,-4,183,-4732,23,-87,-39,35
728,-3789,-2,184,-4731,23,-87,-38,34
729,-3790,-3,188,-4732,23,-87,-38,35
730,-3788,-2,186,-4734,23,-87,-38,34
731,-3788,-3,182,-4733,23,-87,-38,34
732,-3787,-4,184,-4734,23,-87,-38,35
733,-3788,-3,182,-4735,23,-87,-39,35
734,-3789,-5,180,-4735,23,-87,-39,34
735,-3791,-5,182,-4734,23,-87,-39,35
736,-3791,-5,178,-4733,23,-87,-39,35
737,-3793,-5,180,-4734,23,-87,-40,34
738,-3793,-7,182,-4733,23,-87,-39,35
739,-3794,-8,187,-4735,23,-87,-39,35
740,-3792,-4,188,-4734,23,-86,-38,35
741,-3792,-4,187,-4735,23,-86,-38,35
742,-3791,-3,186,-4733,23,-86,-38,35
743,-3789,-2,187,-4733,23,-86,-38,34
744,-3791,-1,189,-4734,23,-86,-39,35
745,-3790,-4,188,-4734,23,-86,-40,35
746,-3790,-7,184,-4733,23,-87,-39,35
747,-3792,-7,184,-4733,23,-87,-39,35
748,-3790,-7,188,-4732,23,-87,-39,35
749,-3789,-8,186,-4731,23,-87,-39,35
750,-3791,-4,185,-4733,23,-88,-39,34
751,-3791,-3,184,-4731,23,-87,-38,34
752,-3790,-2,182,-4731,23,-87,-39,34
753,-3788,-4,185,-4731,23,-87,-38,34
754,-3790,-4,185,-4731,23,-87,-39,34
755,-3791,-7,185,-4732,23,-87,-38,34
756,-3791,-7,185,-4732,23,-88,-39,34
757,-3790,-12,184,-4731,23,-87,-38,34
758,-3790,-10,186,-4730,23,-87,-39,35
759,-3789,-9,185,-4731,23,-87,-39,34
760,-3790,-8,185,-4730,23,-87,-39,34
761,-3790,-7,187,-4729,23,-87,-39,34
762,-3789,-7,190,-4729,23,-87,-39,34
763,-3788,-8,185,-4731,23,-87,-39,34
764,-3791,-6,187,-4731,23,-87,-39,34
765,-3790,-3,186,-4731,23,-87,-39,34
766,-3790,-4,187,-4731,23,-87,-39,34
767,-3789,-2,187,-4730,23,-87,-39,34
768,-3790,-1,183,-4732,23,-87,-39,34
769,-3786,-3,186,-4731,23,-87,-39,34
770,-3788,-2,185,-4731,23,-87,-39,34
771,-3787,-6,187,-4732,23,-88,-38,34
772,-3787,-5,187,-4732,23,-88,-38,34
773,-3787,-8,188,-4734,23,-87,-39,35
774,-3788,-8,187,-4734,23,-87,-38,34
775,-3789,-8,186,-4732,23,-87,-39,35
776,-3789,-6,186,-4732,23,-87,-38,35
777,-3790,-5,188,-4734,23,-87,-38,35
778,-3787,-6,189,-4736,23,-87,-39,34
779,-3786,-6,186,-4735,23,-88,-39,34
780,-3790,-4,188,-4737,23,-87,-39,34
781,-3789,-4,183,-4736,23,-87,-39,34
782,-3791,-2,183,-4738,23,-86,-39,34
783,-3791,-1,184,-4737,23,-86,-39,34
784,-3790,-3,181,-4737,23,-87,-39,34
785,-3791,-3,182,-4735,23,-86,-39,34
786,-3790,-2,185,-4736,23,-86,-39,34
787,-3789,-3,181,-4735,23,-86,-39,34
788,-3788,-3,184,-4735,23,-87,-38,35
789,-3788,-3,185,-4736,23,-87,-38,34
790,-3790,-4,188,-4735,23,-86,-39,34
791,-3787,-2,183,-4735,23,-86,-39,35
792,-3788,-1,181,-4736,23,-86,-39,35
793,-3790,-4,180,-4735,23,-87,-39,35
794,-3786,-3,184,-4734,23,-86,-38,35
795,-3788,-4,186,-4733,23,-86,-39,35
796,-3788,-5,188,-4732,23,-86,-39,34
797,-3788,-7,187,-4732,23,-86,-39,35
798,-3787,-8,188,-4731,23,-86,-39,34
799,-3786,-5,189,-4732,23,-86,-39,34
800,-3786,-7,194,-4731,23,-87,-40,34
801,-3786,-5,192,-4733,23,-86,-40,34
802,-3788,-5,191,-4733,23,-86,-39,35
803,-3790,-4,192,-4735,23,-86,-39,34
804,-3792,-3,189,-4735,23,-86,-39,34
805,-3789,-3,186,-4734,23,-87,-39,34
806,-3787,-4,185,-4736,23,-86,-39,34
807,-3786,-2,189,-4735,23,-86,-39,34
808,-3785,-3,187,-4734,23,-86,-40,34
809,-3785,-4,186,-4735,23,-87,-39,34
810,-3786,-6,184,-4734,23,-87,-39,35
811,-3786,-6,185,-4733,23,-87,-39,35
812,-3784,-5,184,-4733,23,-87,-38,35
813,-3785,-5,184,-4733,23,-87,-39,34
814,-3787,-5,185,-4735,23,-87,-39,34
815,-3786,-6,187,-4733,23,-87,-39,35
816,-3785,-6,187,-4732,23,-86,-39,34
817,-3786,-5,188,-4732,23,-87,-38,34
818,-3787,-5,188,-4733,23,-87,-38,34
819,-3783,-6,187,-4732,23,-87,-39,34
820,-3786,-4,188,-4731,23,-86,-39,34
821,-3789,-5,188,-4732,23,-87,-39,35
822,-3788,-7,189,-4731,23,-86,-39,34
823,-3788,-4,187,-4732,23,-87,-38,34
824,-3789,-4,188,-4732,23,-87,-39,35
825,-3786,-4,187,-4734,23,-87,-39,34
826,-3787,-6,187,-4732,23,-87,-39,35
827,-3788,-3,187,-4733,23,-87,-39,35
828,-3788,0,187,-4730,23,-87,-39,35
829,-3788,1,187,-4729,23,-87,-39,35
830,-3789,0,183,-4730,23,-87,-39,35
831,-3790,0,183,-4731,23,-86,-39,36
832,-3791,-1,182,-4732,23,-87,-39,35
833,-3792,0,185,-4735,23,-87,-39,35
834,-3792,-3,187,-4735,23,-87,-39,35
835,-3791,-3,189,-4736,23,-87,-38,34
836,-3791,-4,186,-4735,23,-87,-39,35
837,-3794,-3,189,-4735,23,-87,-38,34
838,-3790,-2,191,-4735,23,-88,-39,34
839,-3789,-3,190,-4733,23,-87,-39,34
840,-3789,-6,186,-4733,23,-88,-38,34
841,-3790,-6,184,-4732,23,-87,-39,35
842,-3787,-4,184,-4732,23,-88,-39,35
843,-3789,-4,184,-4731,23,-88,-39,35
844,-3788,-5,182,-4733,23,-88,-39,35
845,-3789,-6,184,-4735,23,-87,-39,35
846,-3789,-7,182,-4735,23,-87,-39,35
847,-3789,-6,181,-4734,23,-87,-39,34
848,-3791,-5,181,-4733,23,-86,-40,35
849,-3791,-6,179,-4731,23,-86,-39,34
850,-3791,-7,180,-4733,23,-86,-40,34
851,-3790,-4,183,-4733,23,-87,-39,34
852,-3791,-5,180,-4733,23,-86,-39,34
853,-3791,-5,180,-4734,23,-86,-39,34
854,-3789,-2,180,-4733,23,-86,-39,34
855,-3789,0,180,-4732,23,-86,-38,34
856,-3790,0,180,-4732,23,-86,-39,34
857,-3789,0,179,-4732,23,-86,-38,34
858,-3790,0,182,-4732,23,-87,-39,34
859,-3791,-1,187,-4732,23,-87,-39,34
860,-3787,1,185,-4732,23,-87,-39,35
861,-3788,2,179,-4734,23,-87,-39,35
862,-3789,-1,179,-4733,23,-87,-39,35
863,-3788,-6,181,-4735,23,-87,-39,35
864,-3788,-8,184,-4734,23,-87,-39,35
865,-3790,-7,186,-4732,23,-87,-38,35
866,-3788,-6,184,-4731,23,-86,-38,35
867,-3788,-5,181,-4730,23,-87,-38,34
868,-3789,-6,186,-4731,23,-88,-38,34
869,-3788,-6,186,-4732,23,-88,-38,34
870,-3790,-7,182,-4732,23,-88,-38,34
871,-3788,-9,177,-4731,23,-87,-38,34
872,-3790,-9,179,-4731,23,-87,-39,34
873,-3790,-8,184,-4731,23,-87,-39,34
874,-3789,-9,184,-4731,23,-87,-38,35
875,-3789,-9,186,-4731,23,-87,-38,34
876,-3789,-9,190,-4732,23,-87,-38,35
877,-3789,-8,188,-4732,23,-87,-39,34
878,-3786,-7,189,-4731,23,-87,-38,35
879,-3787,-7,186,-4733,23,-86,-38,35
880,-3786,-7,188,-4732,23,-86,-39,35
881,-3786,-8,186,-4732,23,-87,-39,35
882,-3786,-6,187,-4732,23,-87,-39,34
883,-3786,-3,184,-4733,23,-88,-38,34
884,-3785,-4,187,-4733,23,-87,-39,34
885,-3787,-6,187,-4733,23,-87,-40,34
886,-3787,-3,191,-4733,23,-87,-39,34
887,-3787,-4,191,-4732,23,-87,-39,34
888,-3788,-4,187,-4732,23,-87,-39,35
889,-3789,-3,188,-4732,23,-87,-39,35
890,-3788,-2,187,-4732,23,-87,-39,35
891,-3788,-3,183,-4732,23,-87,-39,35
892,-3792,-1,184,-4730,23,-87,-40,35
893,-3790,-2,180,-4729,23,-87,-39,35
894,-3789,-3,180,-4729,23,-87,-39,34
895,-3787,-5,182,-4728,23,-87,-38,34
896,-3790,-5,178,-4727,23,-87,-38,34
897,-3790,-5,180,-4726,23,-87,-39,34
898,-3786,-5,182,-4729,23,-87,-39,34
899,-3786,-4,187,-4729,23,-87,-39,33
900,-3788,-3,188,-4729,23,-86,-39,34
901,-3786,-4,186,-4729,23,-86,-39,34
902,-3788,-1,187,-4729,23,-86,-39,33
903,-3789,-2,188,-4729,23,-87,-39,34
904,-3789,-3,189,-4730,23,-87,-38,33
905,-3789,-3,187,-4731,23,-87,-39,34
906,-3788,-4,186,-4731,23,-87,-39,34
907,-3789,-5,183,-4731,23,-87,-39,34
908,-3788,-4,182,-4729,23,-87,-40,34
909,-3788,-4,183,-4730,23,-87,-40,34
910,-3787,-4,182,-4730,23,-87,-40,34
911,-3788,-4,181,-4729,23,-87,-40,34
912,-3788,-3,183,-4728,23,-87,-39,34
913,-3789,-5,183,-4728,23,-86,-39,34
914,-3790,-5,184,-4728,23,-86,-39,33
915,-3790,-6,189,-4727,23,-86,-39,33
916,-3791,-5,190,-4729,23,-86,-39,34
917,-3787,-4,188,-4727,23,-86,-40,34
918,-3787,-3,188,-4727,23,-86,-39,34
919,-3786,-3,190,-4728,23,-86,-39,34
920,-3788,-4,188,-4729,23,-86,-39,34
921,-3787,-1,187,-4728,23,-86,-39,34
922,-3790,-4,185,-4728,23,-87,-38,34
923,-3789,-5,183,-4729,23,-87,-38,34
924,-3789,-6,178,-4730,23,-87,-39,34
925,-3789,-5,183,-4730,23,-86,-38,34
926,-3789,-4,183,-4729,23,-87,-38,33
927,-3791,-3,185,-4731,23,-87,-39,34
928,-3793,-3,183,-4730,23,-87,-39,34
929,-3793,-2,184,-4733,23,-87,-39,34
930,-3794,-1,184,-4731,23,-87,-39,34
931,-3793,-2,187,-4731,23,-87,-39,34
932,-3790,-2,184,-4731,23,-87,-39,34
933,-3791,-4,183,-4732,23,-87,-39,35
934,-3792,-4,183,-4732,23,-87,-39,35
935,-3790,-6,185,-4730,23,-87,-38,35
936,-3791,-7,184,-4731,23,-87,-38,35
937,-3790,-5,186,-4730,23,-87,-38,34
938,-3791,-4,189,-4730,23,-88,-38,34
939,-3792,-4,184,-4729,23,-87,-38,35
940,-3789,-5,185,-4728,23,-88,-38,35
941,-3789,-5,185,-4728,23,-87,-38,34
942,-3791,-4,187,-4728,23,-87,-38,34
943,-3789,-3,188,-4728,23,-87,-39,34
944,-3788,-3,185,-4728,23,-87,-39,34
945,-3790,-4,186,-4729,23,-87,-39,34
946,-3792,-5,188,-4730,23,-87,-39,34
947,-3790,-3,188,-4731,23,-87,-39,35
948,-3789,-3,192,-4730,23,-87,-39,35
949,-3788,-3,190,-4730,23,-87,-39,35
950,-3787,-2,193,-4730,23,-87,-39,35
951,-3789,-2,193,-4730,23,-87,-39,35
952,-3789,-2,193,-4729,23,-87,-39,35
953,-3789,-1,193,-4729,23,-87,-38,35
954,-3789,-4,196,-4729,23,-88,-38,35
955,-3789,-6,195,-4729,23,-88,-39,35
956,-3789,-3,192,-4729,23,-88,-39,36
957,-3791,-5,191,-4728,23,-88,-38,35
958,-3792,-4,188,-4727,23,-87,-38,35
959,-3792,-2,188,-4727,23,-87,-38,35
960,-3790,-1,185,-4728,23,-87,-39,35
961,-3793,-1,185,-4729,23,-87,-38,35
962,-3788,-1,185,-4728,23,-87,-39,35
963,-3789,-1,183,-4728,23,-87,-38,34
964,-3790,-2,185,-4727,23,-86,-38,35
965,-3789,-1,185,-4728,23,-86,-38,35
966,-3790,-4,181,-4729,23,-86,-38,35
967,-3789,-3,181,-4728,23,-86,-38,35
968,-3790,-4,183,-4727,23,-87,-38,35
969,-3790,-5,187,-4728,23,-87,-39,35
970,-3790,-4,186,-4728,23,-87,-38,35
971,-3790,-6,182,-4729,23,-87,-38,34
972,-3791,-3,187,-4728,23,-87,-38,35
973,-3789,-5,186,-4729,23,-87,-38,35
974,-3788,-5,184,-4729,23,-88,-39,35
975,-3787,-3,185,-4730,23,-88,-39,35
976,-3787,-4,183,-4730,23,-88,-39,35
977,-3787,-2,184,-4731,23,-88,-39,35
978,-3787,-3,188,-4732,23,-87,-39,35
979,-3787,-3,188,-4732,23,-87,-39,35
980,-3786,-4,187,-4733,23,-87,-39,35
981,-3786,-6,188,-4733,23,-87,-39,35
982,-3788,-6,190,-4733,23,-87,-39,34
983,-3789,-3,190,-4731,23,-87,-38,34
984,-3788,-3,184,-4732,23,-87,-38,34
985,-3789,-3,186,-4731,23,-87,-39,35
986,-3788,-2,186,-4731,23,-87,-40,34
987,-3789,-2,186,-4730,23,-87,-39,34
988,-3788,-2,186,-4728,23,-87,-40,35
989,-3788,-2,184,-4729,23,-87,-40,34
990,-3788,-2,187,-4728,23,-86,-40,34
991,-3786,-4,188,-4729,23,-87,-39,34
992,-3789,-5,187,-4730,23,-86,-39,34
993,-3790,-4,190,-4732,23,-86,-39,34
994,-3787,-3,186,-4731,23,-87,-39,35
995,-3789,-3,188,-4730,23,-87,-39,35
996,-3789,-1,187,-4730,23,-87,-39,35
997,-3790,0,187,-4729,23,-87,-39,35
998,-3790,0,188,-4730,23,-87,-38,35
