,acc_X,acc_Y,acc_Z,temp,tempC,gyr_X,gyr_Y,gyr_Z
0,-1897,-2,95,-4570,23,-348,-155,142
1,-1896,-2,95,-4570,23,-348,-156,140
2,-1896,-2,95,-4571,23,-346,-155,142
3,-1897,-1,93,-4572,23,-345,-153,141
4,-1897,0,92,-4572,23,-346,-151,140
5,-1895,-2,94,-4572,23,-346,-150,139
6,-1896,-3,95,-4572,23,-349,-153,138
7,-1895,-2,93,-4573,23,-352,-152,135
8,-1895,-1,93,-4574,23,-352,-153,136
9,-1896,0,93,-4574,23,-353,-151,136
10,-1895,-1,94,-4572,23,-354,-151,136
11,-1896,-1,94,-4573,23,-354,-152,136
12,-1894,-2,94,-4571,23,-352,-154,137
13,-1895,-2,94,-4572,23,-351,-153,137
14,-1894,-3,94,-4573,23,-350,-153,139
15,-1895,-2,95,-4573,23,-353,-155,142
16,-1894,-3,95,-4572,23,-352,-154,141
17,-1895,-4,95,-4569,23,-352,-152,139
18,-1895,-3,96,-4570,23,-352,-154,137
19,-1896,-4,96,-4568,23,-354,-155,138
20,-1896,-2,97,-4568,23,-353,-153,140
21,-1896,-1,96,-4568,23,-352,-153,139
22,-1895,0,98,-4567,23,-352,-153,138
23,-1896,-1,97,-4567,23,-353,-153,139
24,-1896,0,96,-4567,23,-353,-151,139
25,-1895,0,94,-4569,23,-354,-149,140
26,-1895,0,95,-4569,23,-351,-149,141
27,-1896,0,94,-4569,23,-351,-149,141
28,-1895,0,96,-4570,23,-352,-151,140
29,-1896,-2,93,-4570,23,-351,-153,143
30,-1895,-2,94,-4570,23,-351,-153,144
31,-1897,-2,95,-4569,23,-351,-153,144
32,-1897,-2,95,-4571,23,-352,-153,144
33,-1895,-1,95,-4571,23,-353,-155,141
34,-1895,0,95,-4572,23,-352,-153,138
35,-1895,0,95,-4570,23,-352,-155,137
36,-1895,-1,96,-4569,23,-351,-155,138
37,-1895,-2,96,-4569,23,-351,-154,139
38,-1896,-1,95,-4569,23,-350,-152,140
39,-1895,-1,96,-4572,23,-350,-152,141
40,-1895,-2,95,-4572,23,-350,-150,143
41,-1895,-1,95,-4572,23,-349,-151,142
42,-1896,-1,96,-4572,23,-350,-153,142
43,-1894,-1,96,-4572,23,-350,-154,140
44,-1895,-2,97,-4571,23,-347,-154,142
45,-1894,-2,96,-4573,23,-347,-157,142
46,-1894,-2,97,-4572,23,-348,-158,142
47,-1895,-2,98,-4571,23,-350,-157,141
48,-1894,-2,98,-4569,23,-350,-158,141
49,-1895,-3,97,-4569,23,-350,-157,142
50,-1895,-3,97,-4569,23,-350,-155,139
51,-1895,-4,96,-4568,23,-350,-153,140
52,-1895,-3,95,-4569,23,-352,-153,143
53,-1894,-3,95,-4568,23,-351,-154,143
54,-1894,-2,94,-4567,23,-352,-155,145
55,-1894,-2,93,-4570,23,-352,-154,143
56,-1895,-2,94,-4571,23,-352,-154,143
57,-1895,-1,93,-4572,23,-351,-155,143
58,-1895,-2,94,-4571,23,-350,-154,142
59,-1895,0,96,-4572,23,-350,-150,143
60,-1896,-2,95,-4573,23,-351,-150,144
61,-1894,-2,95,-4572,23,-351,-152,141
62,-1895,-2,95,-4570,23,-350,-152,141
63,-1895,-1,97,-4569,23,-349,-152,142
64,-1896,-2,97,-4568,23,-349,-157,140
65,-1893,-3,97,-4568,23,-347,-157,140
66,-1893,-3,97,-4567,23,-347,-155,137
67,-1893,-2,98,-4566,23,-346,-156,135
68,-1892,-2,98,-4567,23,-347,-154,134
69,-1893,-2,98,-4567,23,-347,-155,135
70,-1892,-3,98,-4566,23,-349,-154,135
71,-1894,-2,97,-4568,23,-349,-155,137
72,-1895,-3,98,-4569,23,-349,-154,136
73,-1895,-3,97,-4569,23,-350,-156,140
74,-1895,-2,95,-4568,23,-352,-156,139
75,-1895,-3,95,-4567,23,-351,-155,137
76,-1894,-2,95,-4567,23,-351,-154,136
77,-1896,-2,96,-4566,23,-351,-154,137
78,-1895,-3,95,-4567,23,-350,-153,138
79,-1896,-2,97,-4568,23,-349,-152,138
80,-1895,-1,96,-4569,23,-349,-154,138
81,-1895,-2,94,-4570,23,-347,-153,138
82,-1895,-2,95,-4568,23,-346,-153,139
83,-1896,-4,94,-4569,23,-347,-155,139
84,-1895,-3,95,-4571,23,-347,-155,138
85,-1895,-3,95,-4570,23,-347,-157,139
86,-1895,-2,95,-4569,23,-347,-156,138
87,-1895,-2,93,-4568,23,-347,-156,138
88,-1895,-2,94,-4567,23,-347,-159,139
89,-1894,-2,94,-4567,23,-347,-155,138
90,-1894,-2,94,-4568,23,-347,-153,137
91,-1894,-1,95,-4571,23,-348,-155,138
92,-1894,-1,98,-4572,23,-345,-157,140
93,-1896,-1,97,-4572,23,-345,-157,139
94,-1896,-2,98,-4571,23,-346,-157,141
95,-1896,-2,97,-4571,23,-346,-153,140
96,-1897,-2,96,-4571,23,-347,-151,139
97,-1896,-1,97,-4571,23,-348,-153,140
98,-1896,0,96,-4571,23,-350,-153,141
99,-1894,1,96,-4571,23,-350,-154,141
100,-1893,-1,94,-4570,23,-350,-154,141
101,-1895,-1,93,-4570,23,-349,-154,142
102,-1896,-2,92,-4569,23,-350,-153,140
103,-1896,-1,94,-4570,23,-347,-152,141
104,-1895,-2,94,-4570,23,-349,-154,139
105,-1896,-2,94,-4568,23,-348,-155,140
106,-1896,-2,94,-4569,23,-350,-152,140
107,-1898,-1,93,-4568,23,-349,-152,140
108,-1898,-2,93,-4567,23,-349,-150,139
109,-1896,-2,93,-4570,23,-350,-149,137
110,-1895,-2,93,-4568,23,-350,-151,137
111,-1896,-1,94,-4568,23,-352,-151,136
112,-1897,-1,95,-4568,23,-349,-151,137
113,-1897,-1,97,-4569,23,-347,-149,138
114,-1897,-1,95,-4569,23,-346,-152,139
115,-1896,0,94,-4570,23,-350,-152,139
116,-1895,1,95,-4569,23,-348,-154,140
117,-1895,2,94,-4569,23,-348,-152,140
118,-1896,1,93,-4568,23,-346,-155,139
119,-1897,1,92,-4567,23,-346,-155,141
120,-1896,0,95,-4568,23,-346,-157,139
121,-1896,-2,94,-4566,23,-349,-156,139
122,-1896,-1,95,-4565,23,-349,-155,139
123,-1895,0,95,-4565,23,-351,-156,139
124,-1895,0,96,-4564,23,-351,-155,138
125,-1895,1,97,-4564,23,-351,-155,137
126,-1895,2,96,-4565,23,-350,-156,137
127,-1894,1,96,-4565,23,-349,-155,138
128,-1895,2,95,-4564,23,-351,-153,137
129,-1894,1,95,-4564,23,-352,-153,137
130,-1893,1,96,-4566,23,-350,-153,137
131,-1893,0,97,-4563,23,-351,-154,137
132,-1893,0,96,-4563,23,-351,-152,135
133,-1894,-1,94,-4562,23,-352,-150,138
134,-1896,-1,94,-4563,23,-352,-152,138
135,-1896,-1,93,-4565,23,-352,-152,141
136,-1896,-1,93,-4565,23,-353,-152,141
137,-1897,0,94,-4566,23,-353,-152,141
138,-1897,-1,95,-4565,23,-352,-153,140
139,-1897,-1,97,-4565,23,-348,-152,141
140,-1895,-1,97,-4565,23,-346,-151,142
141,-1896,0,97,-4566,23,-347,-152,142
142,-1897,-1,95,-4568,23,-349,-152,143
143,-1897,-1,94,-4569,23,-347,-153,142
144,-1896,-2,94,-4571,23,-347,-152,143
145,-1897,-2,95,-4570,23,-347,-153,141
146,-1896,-1,94,-4570,23,-349,-153,141
147,-1897,-1,92,-4568,23,-348,-154,140
148,-1897,-2,93,-4566,23,-351,-154,141
149,-1896,-2,93,-4568,23,-350,-153,141
150,-1896,-2,95,-4567,23,-349,-155,142
151,-1896,-2,94,-4566,23,-352,-154,139
152,-1895,-2,94,-4563,23,-351,-154,139
153,-1894,-3,93,-4564,23,-351,-154,138
154,-1895,-3,91,-4564,23,-351,-156,136
155,-1897,-3,90,-4567,23,-350,-154,137
156,-1896,-2,90,-4567,23,-351,-153,138
157,-1896,-2,91,-4568,23,-350,-153,138
158,-1896,-2,89,-4567,23,-349,-153,138
159,-1896,-2,92,-4566,23,-351,-155,138
160,-1897,-3,93,-4565,23,-350,-154,139
161,-1895,-3,94,-4565,23,-351,-153,138
162,-1896,-4,94,-4566,23,-352,-154,138
163,-1895,-4,96,-4567,23,-349,-155,138
164,-1895,-4,95,-4567,23,-348,-152,138
165,-1894,-2,95,-4567,23,-346,-152,140
166,-1894,-2,95,-4567,23,-346,-152,139
167,-1895,-3,94,-4567,23,-349,-153,139
168,-1893,-4,94,-4567,23,-348,-154,138
169,-1892,-3,94,-4569,23,-350,-153,138
170,-1894,-2,94,-4569,23,-352,-155,139
171,-1894,-2,93,-4569,23,-350,-157,140
172,-1895,-1,95,-4569,23,-349,-156,139
173,-1895,-2,95,-4570,23,-350,-158,140
174,-1896,-3,96,-4569,23,-348,-157,139
175,-1897,-3,96,-4569,23,-349,-158,140
176,-1897,-3,96,-4567,23,-350,-158,138
177,-1896,-4,97,-4566,23,-351,-156,139
178,-1895,-2,96,-4566,23,-350,-156,137
179,-1894,-4,96,-4566,23,-353,-153,137
180,-1895,-4,95,-4567,23,-351,-154,138
181,-1896,-5,94,-4567,23,-351,-154,137
182,-1895,-4,95,-4567,23,-351,-155,138
183,-1896,-3,93,-4566,23,-350,-157,137
184,-1895,-3,94,-4565,23,-349,-157,139
185,-1895,-3,94,-4565,23,-351,-158,140
186,-1895,-2,94,-4565,23,-351,-157,138
187,-1894,-2,97,-4565,23,-349,-157,140
188,-1894,0,96,-4563,23,-349,-158,139
189,-1894,0,95,-4562,23,-350,-156,138
190,-1894,0,94,-4561,23,-351,-154,137
191,-1895,-1,93,-4562,23,-351,-155,137
192,-1895,-1,93,-4564,23,-351,-156,139
193,-1893,-2,93,-4564,23,-350,-158,139
194,-1894,-2,92,-4564,23,-349,-157,142
195,-1895,-2,94,-4566,23,-350,-158,142
196,-1894,-2,94,-4565,23,-349,-157,140
197,-1894,-2,92,-4566,23,-349,-155,142
198,-1894,-2,92,-4566,23,-348,-153,141
199,-1895,-2,92,-4567,23,-349,-152,139
200,-1895,-4,94,-4569,23,-347,-151,141
201,-1895,-5,93,-4570,23,-349,-151,140
202,-1893,-3,93,-4570,23,-348,-152,140
203,-1894,-3,94,-4568,23,-348,-152,139
204,-1895,-2,92,-4566,23,-346,-153,140
205,-1895,-2,91,-4568,23,-348,-154,141
206,-1895,0,91,-4568,23,-348,-153,143
207,-1895,1,93,-4567,23,-350,-152,143
208,-1896,-1,94,-4566,23,-350,-151,140
209,-1896,-1,94,-4565,23,-352,-151,141
210,-1896,0,94,-4565,23,-351,-153,141
211,-1896,-1,93,-4566,23,-351,-152,140
212,-1896,-2,92,-4564,23,-354,-152,139
213,-1896,-2,93,-4565,23,-354,-154,140
214,-1897,-1,95,-4565,23,-354,-153,139
215,-1896,-2,94,-4566,23,-353,-153,141
216,-1896,-2,94,-4564,23,-352,-151,141
217,-1895,-3,95,-4565,23,-353,-154,141
218,-1894,-3,96,-4567,23,-350,-152,142
219,-1894,-3,95,-4566,23,-353,-149,141
220,-1895,-2,95,-4564,23,-352,-150,141
221,-1895,-2,96,-4566,23,-353,-150,142
222,-1897,-2,95,-4566,23,-352,-149,141
223,-1896,-2,93,-4565,23,-351,-150,141
224,-1895,-1,93,-4565,23,-350,-152,142
225,-1894,-1,95,-4565,23,-350,-153,141
226,-1895,0,96,-4565,23,-351,-152,138
227,-1894,-1,96,-4566,23,-350,-154,138
228,-1895,0,97,-4569,23,-348,-153,138
229,-1895,0,96,-4566,23,-348,-155,139
230,-1894,0,97,-4566,23,-346,-156,137
231,-1894,0,95,-4563,23,-347,-154,138
232,-1895,0,96,-4564,23,-347,-154,137
233,-1896,1,96,-4563,23,-346,-155,140
234,-1895,-1,95,-4563,23,-348,-152,139
235,-1895,0,94,-4564,23,-349,-154,141
236,-1896,0,94,-4565,23,-349,-156,142
237,-1895,0,94,-4567,23,-349,-154,141
238,-1895,0,94,-4566,23,-348,-155,140
239,-1896,0,95,-4566,23,-349,-154,140
240,-1897,-1,97,-4566,23,-349,-154,140
241,-1896,-1,96,-4566,23,-351,-153,140
242,-1897,0,96,-4567,23,-351,-151,140
243,-1897,-1,95,-4565,23,-352,-153,139
244,-1896,0,94,-4565,23,-351,-156,139
245,-1895,0,95,-4565,23,-351,-157,141
246,-1895,0,96,-4565,23,-350,-157,143
247,-1894,-1,95,-4566,23,-349,-155,142
248,-1894,-1,95,-4566,23,-350,-155,142
249,-1894,0,95,-4565,23,-349,-155,140
250,-1895,-1,96,-4567,23,-348,-156,140
251,-1895,-2,98,-4568,23,-349,-154,137
252,-1895,-1,96,-4566,23,-350,-155,137
253,-1894,-1,93,-4567,23,-347,-153,138
254,-1895,-1,92,-4567,23,-346,-154,138
255,-1896,0,91,-4567,23,-346,-151,140
256,-1896,0,93,-4568,23,-346,-151,140
257,-1896,-2,93,-4567,23,-345,-151,142
258,-1895,-2,92,-4567,23,-344,-151,142
259,-1895,-2,92,-4567,23,-343,-151,139
260,-1895,-2,93,-4566,23,-344,-152,140
261,-1894,-1,94,-4566,23,-345,-152,139
262,-1895,-1,94,-4564,23,-347,-152,138
263,-1896,-2,94,-4565,23,-348,-150,141
264,-1896,-2,93,-4566,23,-348,-151,141
265,-1895,-2,92,-4564,23,-348,-153,142
266,-1895,-2,92,-4565,23,-346,-153,140
267,-1895,-2,92,-4565,23,-346,-153,140
268,-1896,-1,93,-4565,23,-344,-152,142
269,-1896,-2,94,-4568,23,-343,-153,144
270,-1896,-2,94,-4568,23,-344,-153,143
271,-1896,-2,94,-4568,23,-345,-153,143
272,-1897,-2,96,-4568,23,-349,-154,143
273,-1897,-3,95,-4567,23,-350,-154,141
274,-1896,-4,96,-4567,23,-349,-154,141
275,-1896,-4,96,-4566,23,-349,-157,141
276,-1896,-4,97,-4566,23,-349,-157,141
277,-1896,-4,95,-4566,23,-351,-154,142
278,-1896,-4,94,-4565,23,-352,-157,140
279,-1896,-4,94,-4563,23,-352,-155,141
280,-1896,-3,96,-4566,23,-350,-156,144
281,-1895,-3,96,-4567,23,-350,-154,143
282,-1894,-2,96,-4567,23,-348,-152,141
283,-1894,-1,96,-4566,23,-349,-154,141
284,-1894,-1,98,-4567,23,-350,-152,139
285,-1894,-2,98,-4567,23,-349,-151,140
286,-1895,-2,98,-4568,23,-348,-152,139
287,-1895,-1,99,-4569,23,-350,-151,140
288,-1896,-1,98,-4568,23,-349,-151,140
289,-1895,-3,97,-4568,23,-351,-153,139
290,-1895,-1,98,-4569,23,-351,-151,139
291,-1896,-1,97,-4570,23,-351,-152,141
292,-1896,-2,96,-4569,23,-354,-154,142
293,-1895,-2,94,-4568,23,-353,-153,141
294,-1894,-1,92,-4568,23,-350,-152,141
295,-1893,-1,93,-4569,23,-352,-153,139
296,-1894,-3,94,-4567,23,-350,-152,141
297,-1894,-3,93,-4567,23,-349,-152,139
298,-1895,0,92,-4566,23,-347,-152,140
299,-1894,0,94,-4567,23,-348,-152,141
300,-1895,0,93,-4567,23,-348,-153,140
301,-1896,-1,93,-4565,23,-350,-150,140
302,-1897,-1,95,-4564,23,-348,-150,138
303,-1896,0,93,-4566,23,-349,-149,136
304,-1895,-1,94,-4567,23,-347,-153,136
305,-1894,-1,94,-4567,23,-350,-152,137
306,-1894,-1,96,-4565,23,-348,-153,139
307,-1895,-2,96,-4566,23,-347,-153,140
308,-1894,-2,96,-4567,23,-348,-155,141
309,-1894,-1,97,-4566,23,-350,-157,142
310,-1893,-1,96,-4565,23,-351,-159,143
311,-1893,-3,94,-4566,23,-352,-156,144
312,-1894,-2,91,-4565,23,-354,-153,142
313,-1894,-2,91,-4565,23,-352,-151,142
314,-1894,-2,92,-4565,23,-352,-151,140
315,-1895,-2,92,-4563,23,-352,-153,141
316,-1895,-2,92,-4564,23,-353,-154,142
317,-1895,-2,92,-4563,23,-352,-153,141
318,-1895,-2,95,-4563,23,-352,-154,140
319,-1894,-3,95,-4563,23,-352,-155,139
320,-1895,-2,93,-4562,23,-350,-154,139
321,-1894,0,93,-4562,23,-350,-153,139
322,-1896,-1,92,-4564,23,-350,-153,141
323,-1896,0,91,-4567,23,-351,-152,140
324,-1895,0,93,-4565,23,-349,-151,140
325,-1896,0,93,-4566,23,-352,-150,139
326,-1895,0,94,-4567,23,-352,-154,138
327,-1895,-1,96,-4568,23,-349,-154,137
328,-1895,-1,96,-4567,23,-347,-154,137
329,-1895,-1,95,-4567,23,-348,-152,137
330,-1897,-1,95,-4566,23,-350,-150,136
331,-1896,-1,96,-4566,23,-350,-151,137
332,-1897,-1,94,-4565,23,-349,-151,141
333,-1897,1,96,-4565,23,-350,-154,141
334,-1896,0,97,-4565,23,-349,-153,142
335,-1896,1,95,-4563,23,-347,-152,143
336,-1895,-1,95,-4566,23,-347,-151,143
337,-1895,-1,97,-4567,23,-347,-151,142
338,-1895,-2,97,-4567,23,-349,-153,140
339,-1893,0,97,-4566,23,-351,-152,141
340,-1894,0,96,-4566,23,-352,-151,141
341,-1895,-1,94,-4566,23,-352,-151,140
342,-1896,-2,95,-4568,23,-352,-151,140
343,-1895,-2,95,-4568,23,-352,-154,140
344,-1895,-3,94,-4568,23,-352,-152,140
345,-1894,-3,93,-4568,23,-352,-153,140
346,-1894,-2,93,-4565,23,-350,-154,139
347,-1893,-3,94,-4567,23,-350,-152,140
348,-1894,-3,94,-4567,23,-351,-152,138
349,-1894,-3,92,-4566,23,-349,-153,140
350,-1894,-2,93,-4567,23,-346,-154,141
351,-1893,-2,93,-4565,23,-347,-155,141
352,-1894,-2,93,-4565,23,-346,-155,140
353,-1895,-2,92,-4565,23,-348,-154,140
354,-1896,-2,92,-4564,23,-347,-157,140
355,-1897,-2,91,-4563,23,-349,-158,140
356,-1896,-3,92,-4565,23,-347,-155,139
357,-1896,-3,91,-4566,23,-345,-155,140
358,-1897,-3,93,-4569,23,-344,-157,141
359,-1896,-2,95,-4569,23,-346,-156,139
360,-1896,-2,95,-4569,23,-346,-156,141
361,-1896,-2,96,-4568,23,-347,-154,140
362,-1895,-2,95,-4568,23,-348,-154,140
363,-1895,-2,95,-4568,23,-348,-155,140
364,-1894,-3,95,-4567,23,-347,-155,141
365,-1895,-3,95,-4565,23,-346,-155,140
366,-1895,-2,94,-4566,23,-348,-154,139
367,-1893,-2,96,-4567,23,-350,-158,139
368,-1894,-2,95,-4569,23,-348,-154,141
369,-1894,-1,92,-4567,23,-350,-154,141
370,-1894,0,92,-4566,23,-347,-153,140
371,-1893,1,93,-4565,23,-346,-155,142
372,-1894,1,92,-4563,23,-347,-154,141
373,-1894,1,93,-4562,23,-347,-155,141
374,-1894,-1,93,-4563,23,-349,-154,141
375,-1893,-1,94,-4563,23,-350,-153,141
376,-1894,-2,95,-4562,23,-350,-154,138
377,-1894,-3,95,-4561,23,-351,-152,139
378,-1894,-2,96,-4562,23,-350,-154,136
379,-1894,-4,96,-4562,23,-351,-155,136
380,-1895,-3,96,-4563,23,-349,-157,135
381,-1896,-3,96,-4562,23,-350,-157,135
382,-1896,-2,95,-4562,23,-349,-158,137
383,-1895,-2,95,-4563,23,-348,-159,138
384,-1895,-3,95,-4563,23,-348,-158,138
385,-1897,-2,94,-4563,23,-349,-156,140
386,-1895,-1,95,-4564,23,-347,-156,140
387,-1895,0,95,-4563,23,-346,-153,140
388,-1895,0,95,-4563,23,-349,-153,140
389,-1895,0,94,-4563,23,-349,-153,140
390,-1896,1,93,-4561,23,-350,-152,141
391,-1896,1,95,-4562,23,-350,-152,141
392,-1895,1,96,-4563,23,-350,-150,139
393,-1895,1,95,-4563,23,-349,-152,141
394,-1894,2,93,-4564,23,-348,-154,140
395,-1896,0,93,-4563,23,-349,-154,141
396,-1896,0,95,-4564,23,-348,-153,141
397,-1897,0,96,-4564,23,-347,-155,140
398,-1897,-1,96,-4563,23,-347,-154,138
399,-1896,-2,97,-4562,23,-349,-156,138
400,-1897,-3,97,-4562,23,-349,-156,140
401,-1896,-3,97,-4564,23,-351,-157,142
402,-1896,-3,97,-4564,23,-352,-159,140
403,-1897,-3,96,-4563,23,-351,-157,140
404,-1897,-2,94,-4562,23,-351,-157,141
405,-1898,-3,95,-4562,23,-350,-155,141
406,-1897,-4,96,-4563,23,-350,-155,140
407,-1896,-3,96,-4563,23,-351,-155,141
408,-1895,-3,96,-4563,23,-353,-152,139
409,-1894,-3,95,-4565,23,-353,-152,139
410,-1894,-3,96,-4564,23,-351,-153,140
411,-1894,-2,97,-4564,23,-350,-151,141
412,-1895,-2,97,-4564,23,-351,-150,142
413,-1894,-1,96,-4563,23,-349,-153,143
414,-1894,-2,96,-4562,23,-348,-156,143
415,-1894,-2,95,-4564,23,-346,-155,142
416,-1895,-4,96,-4563,23,-346,-157,141
417,-1895,-4,96,-4563,23,-349,-156,143
418,-1895,-2,96,-4563,23,-348,-157,142
419,-1894,-2,96,-4565,23,-350,-158,141
420,-1895,-1,95,-4565,23,-352,-160,140
421,-1895,-2,96,-4564,23,-352,-159,140
422,-1894,-2,97,-4564,23,-351,-157,138
423,-1895,-2,96,-4564,23,-350,-155,141
424,-1896,-3,94,-4562,23,-349,-155,139
425,-1896,-3,94,-4564,23,-349,-155,137
426,-1896,-3,94,-4565,23,-350,-157,137
427,-1896,-3,95,-4564,23,-350,-157,136
428,-1897,-2,93,-4563,23,-349,-157,136
429,-1896,-2,93,-4562,23,-352,-154,134
430,-1897,-1,93,-4563,23,-352,-154,136
431,-1897,-1,92,-4563,23,-351,-153,139
432,-1897,-1,92,-4563,23,-349,-155,138
433,-1897,-1,91,-4564,23,-347,-156,137
434,-1898,0,93,-4564,23,-348,-156,137
435,-1897,0,94,-4563,23,-350,-155,137
436,-1897,0,95,-4564,23,-350,-156,137
437,-1897,-2,97,-4564,23,-351,-158,138
438,-1897,-1,96,-4566,23,-352,-158,138
439,-1895,-1,94,-4563,23,-351,-157,137
440,-1896,-2,93,-4565,23,-348,-157,138
441,-1896,-2,94,-4567,23,-347,-157,138
442,-1896,-2,92,-4566,23,-348,-155,140
443,-1895,-2,93,-4565,23,-347,-156,142
444,-1897,-2,95,-4563,23,-348,-157,141
445,-1897,-1,96,-4562,23,-347,-157,140
446,-1896,-2,97,-4563,23,-349,-158,139
447,-1895,-1,96,-4563,23,-350,-158,140
448,-1895,-1,94,-4562,23,-349,-157,141
449,-1895,-3,93,-4561,23,-349,-157,141
450,-1896,-2,94,-4560,23,-348,-158,141
451,-1895,-2,93,-4561,23,-348,-156,143
452,-1895,-5,93,-4562,23,-347,-156,142
453,-1896,-5,95,-4561,23,-349,-160,143
454,-1896,-3,95,-4561,23,-346,-163,144
455,-1896,-4,95,-4559,23,-346,-161,143
456,-1895,-4,95,-4559,23,-345,-159,143
457,-1895,-3,95,-4559,23,-348,-159,142
458,-1895,-2,95,-4558,23,-347,-159,141
459,-1895,-2,93,-4560,23,-348,-160,139
460,-1894,-2,93,-4559,23,-347,-159,139
461,-1895,-3,93,-4560,23,-348,-158,138
462,-1895,-2,96,-4561,23,-348,-157,138
463,-1895,-3,97,-4562,23,-347,-156,137
464,-1896,-2,98,-4563,23,-349,-154,138
465,-1896,-2,98,-4562,23,-349,-153,140
466,-1896,-1,98,-4563,23,-351,-154,141
467,-1896,-1,98,-4565,23,-351,-153,140
468,-1896,-1,97,-4564,23,-350,-156,141
469,-1895,-2,95,-4564,23,-350,-154,143
470,-1896,0,95,-4563,23,-349,-156,145
471,-1895,0,93,-4564,23,-349,-157,145
472,-1895,-1,93,-4564,23,-349,-155,144
473,-1894,-2,93,-4565,23,-348,-158,142
474,-1895,-2,94,-4564,23,-346,-159,140
475,-1895,-2,94,-4565,23,-347,-159,138
476,-1896,-2,96,-4564,23,-345,-158,139
477,-1896,-4,97,-4564,23,-347,-157,140
478,-1897,-3,97,-4564,23,-348,-158,138
479,-1897,-3,99,-4567,23,-350,-158,139
480,-1895,-2,97,-4566,23,-349,-157,139
481,-1895,-2,94,-4563,23,-348,-158,139
482,-1896,-2,95,-4563,23,-349,-157,138
483,-1895,-1,96,-4564,23,-348,-154,141
484,-1895,-3,97,-4564,23,-350,-154,140
485,-1896,-2,96,-4563,23,-350,-154,139
486,-1897,-2,95,-4563,23,-351,-153,140
487,-1897,-2,95,-4563,23,-348,-155,140
488,-1896,-2,94,-4565,23,-350,-155,138
489,-1896,-2,95,-4564,23,-349,-154,139
490,-1896,-2,96,-4564,23,-349,-155,139
491,-1896,-2,95,-4563,23,-351,-156,140
492,-1897,-2,94,-4561,23,-349,-154,140
493,-1896,-1,94,-4561,23,-349,-154,139
494,-1895,-1,94,-4562,23,-350,-157,138
495,-1894,-1,94,-4562,23,-348,-157,138
496,-1894,-1,94,-4563,23,-346,-155,139
497,-1894,-1,94,-4564,23,-347,-155,140
498,-1894,0,95,-4565,23,-348,-155,139
499,-1895,0,95,-4564,23,-347,-156,139
500,-1894,-1,95,-4564,23,-347,-155,137
501,-1895,-2,94,-4565,23,-348,-156,137
502,-1895,-3,93,-4565,23,-349,-155,137
503,-1895,-2,94,-4564,23,-349,-156,137
504,-1894,-2,95,-4563,23,-348,-155,138
505,-1894,-1,94,-4563,23,-350,-157,140
506,-1894,-1,92,-4564,23,-351,-158,140
507,-1893,-2,92,-4564,23,-352,-157,139
508,-1893,-2,92,-4562,23,-351,-157,138
509,-1893,-2,92,-4563,23,-350,-160,137
510,-1894,-2,93,-4563,23,-349,-159,140
511,-1894,-2,96,-4563,23,-348,-158,140
512,-1895,-1,95,-4563,23,-348,-156,141
513,-1895,-1,94,-4564,23,-351,-155,142
514,-1895,-1,94,-4566,23,-353,-154,140
515,-1895,-1,94,-4565,23,-353,-153,139
516,-1894,-1,92,-4565,23,-350,-154,139
517,-1894,-1,92,-4566,23,-350,-159,139
518,-1893,-2,94,-4567,23,-350,-159,139
519,-1893,-1,94,-4566,23,-350,-160,139
520,-1893,-2,95,-4567,23,-350,-160,141
521,-1893,-1,95,-4566,23,-351,-160,142
522,-1894,-1,93,-4564,23,-350,-160,142
523,-1895,-1,94,-4563,23,-351,-159,143
524,-1895,0,95,-4563,23,-352,-156,143
525,-1897,0,95,-4563,23,-351,-156,143
526,-1895,0,95,-4564,23,-351,-156,143
527,-1894,0,96,-4567,23,-349,-155,143
528,-1895,-1,96,-4566,23,-349,-155,142
529,-1895,-2,96,-4566,23,-349,-155,143
530,-1895,-3,96,-4567,23,-348,-154,142
531,-1895,-3,97,-4566,23,-347,-153,143
532,-1895,-3,95,-4567,23,-347,-154,141
533,-1895,-4,96,-4566,23,-346,-155,139
534,-1896,-5,97,-4564,23,-347,-155,139
535,-1895,-4,98,-4562,23,-346,-155,138
536,-1895,-4,96,-4564,23,-347,-155,138
537,-1895,-4,93,-4564,23,-347,-154,138
538,-1896,-2,94,-4564,23,-346,-153,138
539,-1896,-3,94,-4565,23,-348,-155,140
540,-1895,-4,93,-4566,23,-346,-158,139
541,-1896,-3,94,-4566,23,-346,-158,139
542,-1895,-2,94,-4566,23,-348,-159,138
543,-1895,-3,94,-4565,23,-351,-159,136
544,-1895,-3,93,-4566,23,-348,-157,138
545,-1896,-1,93,-4566,23,-350,-158,137
546,-1895,-2,93,-4566,23,-349,-157,139
547,-1896,-2,93,-4566,23,-347,-156,137
548,-1895,-2,91,-4566,23,-350,-156,137
549,-1894,-3,92,-4564,23,-347,-156,138
550,-1894,-2,93,-4563,23,-348,-156,140
551,-1895,-2,94,-4564,23,-349,-157,141
552,-1895,-2,93,-4563,23,-347,-156,141
553,-1895,-1,95,-4563,23,-346,-153,139
554,-1895,-2,95,-4560,23,-348,-154,137
555,-1896,-1,92,-4563,23,-348,-156,139
556,-1896,-2,92,-4565,23,-347,-157,140
557,-1896,-2,92,-4565,23,-350,-157,139
558,-1896,-1,93,-4565,23,-349,-158,140
559,-1896,-1,94,-4566,23,-350,-157,139
560,-1896,-2,95,-4566,23,-352,-155,140
561,-1896,-2,96,-4567,23,-352,-156,139
562,-1896,-2,96,-4567,23,-352,-159,140
563,-1896,-2,95,-4567,23,-353,-159,140
564,-1896,-2,94,-4567,23,-353,-157,141
565,-1897,-1,95,-4566,23,-353,-157,144
566,-1896,-2,95,-4565,23,-351,-157,144
567,-1896,-1,95,-4566,23,-350,-156,144
568,-1896,-1,94,-4566,23,-352,-155,140
569,-1895,0,95,-4565,23,-352,-156,140
570,-1897,0,95,-4562,23,-352,-157,140
571,-1896,-1,96,-4560,23,-351,-159,141
572,-1896,-2,94,-4562,23,-348,-158,139
573,-1896,-2,93,-4565,23,-350,-157,137
574,-1895,-2,94,-4566,23,-351,-156,139
575,-1895,-2,94,-4565,23,-350,-156,140
576,-1894,-3,93,-4565,23,-353,-154,140
577,-1893,-3,94,-4564,23,-352,-154,139
578,-1894,-3,94,-4563,23,-353,-154,139
579,-1895,-3,94,-4564,23,-355,-156,140
580,-1896,-2,96,-4564,23,-353,-154,139
581,-1896,-2,96,-4565,23,-352,-155,138
582,-1896,-1,94,-4564,23,-351,-153,137
583,-1896,0,95,-4564,23,-352,-155,139
584,-1896,-1,95,-4564,23,-350,-158,139
585,-1895,-2,95,-4564,23,-349,-156,140
586,-1895,-2,95,-4564,23,-349,-156,141
587,-1896,-2,94,-4564,23,-351,-157,141
588,-1896,-2,92,-4565,23,-351,-156,141
589,-1896,-2,92,-4564,23,-350,-157,140
590,-1896,-3,96,-4565,23,-351,-157,142
591,-1895,-4,96,-4563,23,-351,-156,141
592,-1896,-4,94,-4564,23,-350,-156,140
593,-1896,-4,95,-4563,23,-351,-155,138
594,-1895,-4,95,-4562,23,-350,-156,138
595,-1895,-3,94,-4562,23,-348,-157,135
596,-1895,-3,94,-4563,23,-347,-158,137
597,-1895,-3,94,-4562,23,-349,-158,139
598,-1895,-3,93,-4562,23,-350,-158,140
599,-1895,-2,91,-4563,23,-349,-158,141
600,-1894,-1,93,-4565,23,-348,-160,141
601,-1895,-1,93,-4564,23,-347,-158,140
602,-1896,-2,93,-4563,23,-346,-158,139
603,-1896,-2,93,-4564,23,-345,-158,140
604,-1895,-1,92,-4565,23,-344,-156,138
605,-1895,-2,93,-4563,23,-343,-157,137
606,-1896,-2,94,-4562,23,-345,-155,139
607,-1895,-1,93,-4564,23,-346,-156,141
608,-1896,-2,94,-4564,23,-347,-157,139
609,-1895,-3,94,-4565,23,-346,-157,139
610,-1895,-3,96,-4564,23,-346,-159,141
611,-1896,-4,95,-4564,23,-344,-159,141
612,-1895,-4,97,-4564,23,-346,-157,142
613,-1896,-3,96,-4564,23,-350,-156,142
614,-1896,-2,95,-4566,23,-352,-155,141
615,-1896,-3,95,-4564,23,-353,-156,139
616,-1897,-4,95,-4564,23,-353,-158,139
617,-1897,-3,96,-4563,23,-352,-159,137
618,-1895,-2,95,-4562,23,-354,-158,140
619,-1895,-3,93,-4562,23,-352,-159,141
620,-1895,-1,93,-4561,23,-349,-157,140
621,-1895,-2,92,-4561,23,-350,-157,138
622,-1896,-2,93,-4562,23,-352,-159,139
623,-1896,-2,94,-4561,23,-353,-159,139
624,-1896,-2,95,-4561,23,-353,-159,140
625,-1896,-2,96,-4561,23,-351,-161,141
626,-1896,-1,97,-4560,23,-349,-162,140
627,-1895,-2,95,-4561,23,-347,-160,142
628,-1895,-3,93,-4563,23,-345,-160,141
629,-1895,-2,92,-4563,23,-345,-160,140
630,-1896,-3,94,-4561,23,-345,-156,141
631,-1896,-3,95,-4563,23,-347,-155,142
632,-1896,-3,97,-4562,23,-345,-155,138
633,-1897,-2,96,-4560,23,-345,-156,138
634,-1897,-2,95,-4560,23,-345,-157,139
635,-1896,-1,94,-4561,23,-347,-157,138
636,-1896,-2,95,-4562,23,-347,-155,138
637,-1896,-1,94,-4562,23,-347,-154,139
638,-1897,-1,95,-4562,23,-347,-156,141
639,-1896,-1,95,-4561,23,-346,-157,140
640,-1896,-3,96,-4560,23,-349,-157,142
641,-1895,-3,95,-4560,23,-351,-158,140
642,-1896,-2,96,-4560,23,-352,-162,140
643,-1895,-1,95,-4562,23,-351,-162,140
644,-1895,-1,95,-4563,23,-352,-163,136
645,-1896,-2,94,-4563,23,-351,-159,139
646,-1897,-2,95,-4560,23,-349,-157,139
647,-1896,-1,95,-4562,23,-351,-157,139
648,-1897,-2,95,-4562,23,-348,-153,139
649,-1897,-2,95,-4562,23,-348,-153,138
650,-1898,-2,95,-4561,23,-351,-152,139
651,-1898,-2,94,-4561,23,-349,-153,139
652,-1897,0,94,-4560,23,-351,-153,139
653,-1897,-1,93,-4561,23,-351,-153,140
654,-1896,0,93,-4561,23,-353,-154,139
655,-1895,-1,93,-4558,23,-352,-153,137
656,-1896,-1,92,-4559,23,-354,-153,137
657,-1895,-1,93,-4561,23,-355,-154,137
658,-1896,-2,95,-4560,23,-353,-157,139
659,-1897,-1,95,-4559,23,-350,-154,139
660,-1896,-1,93,-4558,23,-350,-155,139
661,-1896,-1,94,-4560,23,-352,-156,140
662,-1895,-1,94,-4559,23,-351,-156,139
663,-1895,-1,95,-4560,23,-351,-157,140
664,-1896,-1,95,-4560,23,-350,-157,141
665,-1895,-1,95,-4560,23,-350,-157,140
666,-1897,-1,95,-4561,23,-349,-155,140
667,-1896,-2,95,-4562,23,-349,-155,138
668,-1895,-2,95,-4563,23,-350,-157,139
669,-1895,-3,95,-4561,23,-352,-157,137
670,-1896,-3,96,-4560,23,-351,-156,137
671,-1894,-1,96,-4559,23,-352,-156,138
672,-1893,-2,96,-4561,23,-351,-160,137
673,-1893,-2,98,-4563,23,-351,-158,137
674,-1894,-2,97,-4562,23,-350,-158,136
675,-1895,-2,97,-4561,23,-352,-156,136
676,-1895,-1,96,-4560,23,-351,-158,134
677,-1896,-1,95,-4559,23,-351,-158,135
678,-1895,-1,94,-4558,23,-351,-159,137
679,-1894,0,93,-4560,23,-353,-159,140
680,-1894,-1,92,-4559,23,-351,-157,138
681,-1895,1,91,-4559,23,-351,-158,139
682,-1895,0,94,-4561,23,-351,-158,141
683,-1895,-1,94,-4561,23,-352,-157,143
684,-1894,0,94,-4560,23,-353,-157,141
685,-1895,0,96,-4559,23,-352,-156,142
686,-1895,-1,95,-4561,23,-352,-154,142
687,-1895,-1,96,-4562,23,-352,-155,138
688,-1895,0,94,-4561,23,-351,-155,138
689,-1896,0,93,-4560,23,-350,-153,139
690,-1896,0,92,-4561,23,-349,-154,139
691,-1895,0,93,-4562,23,-350,-153,138
692,-1895,0,94,-4562,23,-349,-154,139
693,-1895,0,94,-4563,23,-349,-155,139
694,-1896,0,94,-4562,23,-347,-156,139
695,-1895,-1,91,-4563,23,-345,-155,138
696,-1895,-1,90,-4565,23,-349,-153,138
697,-1895,-1,90,-4565,23,-350,-154,137
698,-1896,-1,90,-4563,23,-347,-155,137
699,-1895,-2,91,-4563,23,-348,-155,136
700,-1896,-2,91,-4563,23,-350,-154,138
701,-1896,-2,92,-4563,23,-353,-153,136
702,-1896,-2,91,-4563,23,-354,-153,138
703,-1896,-2,90,-4562,23,-351,-157,140
704,-1897,-2,89,-4562,23,-351,-156,139
705,-1895,-2,91,-4564,23,-350,-151,141
706,-1895,-3,92,-4562,23,-352,-155,144
707,-1896,-3,93,-4561,23,-350,-156,143
708,-1897,-2,94,-4561,23,-353,-155,141
709,-1897,-2,94,-4560,23,-351,-153,143
710,-1895,-1,95,-4561,23,-352,-151,142
711,-1895,-1,93,-4563,23,-354,-152,141
712,-1895,-1,93,-4562,23,-353,-152,139
713,-1895,-2,94,-4562,23,-354,-153,139
714,-1894,-1,95,-4563,23,-351,-153,138
715,-1894,-2,93,-4564,23,-349,-153,137
716,-1894,-1,94,-4564,23,-350,-155,137
717,-1894,-2,95,-4564,23,-350,-155,136
718,-1894,-2,96,-4565,23,-351,-155,137
719,-1894,-2,95,-4566,23,-349,-154,138
720,-1895,-2,96,-4566,23,-347,-153,136
721,-1896,-3,94,-4566,23,-346,-152,137
722,-1896,-2,96,-4565,23,-348,-153,140
723,-1896,-2,95,-4567,23,-348,-153,139
724,-1896,-2,93,-4565,23,-349,-153,139
725,-1896,-2,94,-4563,23,-348,-152,137
726,-1894,-3,94,-4564,23,-348,-154,136
727,-1895,-3,94,-4564,23,-349,-154,138
728,-1894,-3,95,-4565,23,-349,-155,137
729,-1894,-2,97,-4565,23,-349,-156,139
730,-1894,-3,94,-4565,23,-349,-157,138
731,-1895,-2,92,-4564,23,-349,-155,138
732,-1894,-3,93,-4563,23,-350,-153,140
733,-1895,-3,92,-4565,23,-351,-155,139
734,-1895,-2,92,-4564,23,-351,-156,137
735,-1896,-2,90,-4562,23,-352,-154,137
736,-1896,-1,90,-4563,23,-351,-151,139
737,-1896,-2,91,-4563,23,-350,-152,138
738,-1895,-2,92,-4563,23,-346,-154,139
739,-1895,-1,92,-4563,23,-346,-153,140
740,-1893,0,93,-4563,23,-346,-153,140
741,-1893,0,95,-4563,23,-345,-154,140
742,-1894,0,95,-4564,23,-348,-152,141
743,-1894,-1,95,-4562,23,-347,-154,143
744,-1896,-1,98,-4561,23,-347,-156,143
745,-1898,-1,96,-4561,23,-349,-156,141
746,-1897,-1,95,-4560,23,-350,-158,142
747,-1897,0,95,-4563,23,-350,-155,139
748,-1897,0,94,-4563,23,-348,-155,139
749,-1896,-1,93,-4564,23,-349,-156,140
750,-1897,-1,93,-4562,23,-349,-154,138
751,-1896,-1,95,-4564,23,-348,-154,139
752,-1896,-1,96,-4565,23,-347,-155,136
753,-1896,0,95,-4565,23,-348,-156,137
754,-1896,0,94,-4565,23,-348,-154,138
755,-1895,0,93,-4566,23,-347,-156,138
756,-1895,0,92,-4566,23,-346,-156,137
757,-1894,0,94,-4566,23,-346,-156,139
758,-1896,-1,94,-4564,23,-347,-155,141
759,-1895,-2,93,-4564,23,-348,-154,139
760,-1895,-2,94,-4564,23,-349,-156,139
761,-1895,0,92,-4563,23,-349,-155,140
762,-1894,1,92,-4562,23,-350,-154,142
763,-1894,0,93,-4563,23,-350,-154,141
764,-1894,0,94,-4564,23,-350,-152,139
765,-1894,-1,92,-4562,23,-351,-153,136
766,-1894,-1,92,-4562,23,-350,-154,138
767,-1894,-2,93,-4561,23,-351,-154,138
768,-1896,-1,94,-4561,23,-350,-155,137
769,-1896,-2,94,-4559,23,-351,-154,139
770,-1896,0,98,-4559,23,-349,-153,136
771,-1896,-1,96,-4559,23,-349,-155,137
772,-1896,-1,96,-4558,23,-350,-155,138
773,-1895,-1,95,-4560,23,-353,-158,138
774,-1895,-2,94,-4560,23,-353,-157,140
775,-1896,-2,95,-4560,23,-350,-155,140
776,-1896,-3,95,-4560,23,-349,-158,139
777,-1897,-1,95,-4559,23,-347,-157,140
778,-1896,-1,96,-4560,23,-346,-154,141
779,-1898,-1,95,-4560,23,-347,-155,139
780,-1896,-1,94,-4560,23,-346,-155,139
781,-1895,-1,95,-4559,23,-346,-153,138
782,-1894,0,95,-4561,23,-346,-152,139
783,-1895,0,96,-4560,23,-349,-152,139
784,-1895,-1,95,-4558,23,-350,-152,140
785,-1896,-2,94,-4555,23,-350,-152,140
786,-1896,-3,94,-4555,23,-349,-152,140
787,-1897,-3,93,-4557,23,-349,-155,142
788,-1897,-3,94,-4560,23,-348,-155,140
789,-1898,-3,94,-4562,23,-348,-156,139
790,-1898,-2,96,-4561,23,-349,-155,139
791,-1896,-2,95,-4560,23,-347,-155,140
792,-1896,-1,94,-4558,23,-349,-154,140
793,-1896,-3,93,-4558,23,-348,-154,138
794,-1897,-3,92,-4559,23,-350,-153,135
795,-1896,-1,93,-4559,23,-349,-155,136
796,-1896,-2,94,-4559,23,-348,-152,137
797,-1895,-2,94,-4558,23,-351,-153,140
798,-1897,-2,94,-4558,23,-350,-155,141
799,-1896,-2,94,-4558,23,-351,-156,138
800,-1894,-2,94,-4558,23,-351,-157,137
801,-1895,-1,94,-4559,23,-348,-159,138
802,-1896,-1,93,-4561,23,-349,-158,137
803,-1897,0,94,-4560,23,-348,-158,139
804,-1897,1,94,-4560,23,-347,-155,138
805,-1896,1,94,-4561,23,-348,-154,138
806,-1895,0,94,-4563,23,-346,-157,139
807,-1895,0,94,-4563,23,-348,-156,142
808,-1895,-2,94,-4560,23,-347,-155,142
809,-1896,-2,93,-4561,23,-347,-157,140
810,-1896,-1,93,-4560,23,-348,-157,138
811,-1897,-1,93,-4562,23,-347,-154,136
812,-1895,-1,93,-4562,23,-346,-156,138
813,-1894,-3,93,-4561,23,-349,-155,139
814,-1895,-3,93,-4561,23,-349,-153,139
815,-1895,-1,92,-4562,23,-348,-155,139
816,-1894,-2,93,-4563,23,-348,-155,136
817,-1894,-2,93,-4564,23,-349,-154,136
818,-1893,-1,92,-4563,23,-348,-155,136
819,-1894,-1,93,-4562,23,-350,-156,138
820,-1895,-1,95,-4562,23,-352,-155,137
821,-1895,-1,94,-4563,23,-348,-157,138
822,-1896,-3,93,-4562,23,-348,-155,141
823,-1896,-3,93,-4561,23,-349,-156,139
824,-1895,-2,95,-4560,23,-350,-156,142
825,-1894,-2,94,-4561,23,-349,-156,143
826,-1895,-1,94,-4560,23,-350,-157,143
827,-1897,-1,93,-4560,23,-349,-158,143
828,-1897,0,94,-4558,23,-350,-158,141
829,-1896,0,94,-4559,23,-347,-157,141
830,-1894,-1,95,-4558,23,-350,-155,141
831,-1893,-2,94,-4558,23,-349,-154,140
832,-1894,-1,93,-4559,23,-351,-157,138
833,-1895,-2,95,-4558,23,-350,-158,137
834,-1894,0,95,-4556,23,-352,-159,138
835,-1893,-2,95,-4560,23,-351,-157,139
836,-1893,-2,94,-4560,23,-353,-156,140
837,-1894,-2,95,-4560,23,-354,-155,140
838,-1895,-2,94,-4559,23,-353,-154,138
839,-1895,-2,94,-4558,23,-354,-155,140
840,-1896,-1,94,-4560,23,-353,-155,140
841,-1897,-1,95,-4559,23,-352,-154,140
842,-1897,-1,94,-4560,23,-350,-154,139
843,-1897,-2,96,-4561,23,-349,-153,139
844,-1896,-2,95,-4560,23,-350,-154,139
845,-1896,-1,94,-4560,23,-349,-155,138
846,-1895,-1,97,-4559,23,-349,-153,138
847,-1894,-1,96,-4560,23,-348,-154,138
848,-1894,0,96,-4561,23,-349,-154,136
849,-1895,0,94,-4562,23,-351,-153,136
850,-1894,-1,94,-4562,23,-352,-155,137
851,-1895,-2,95,-4562,23,-351,-157,138
852,-1895,-1,95,-4564,23,-348,-157,137
853,-1895,-1,94,-4563,23,-349,-156,137
854,-1895,0,95,-4562,23,-348,-155,137
855,-1895,0,92,-4563,23,-348,-155,136
856,-1895,2,93,-4562,23,-349,-154,135
857,-1894,0,94,-4561,23,-352,-155,135
858,-1893,-1,94,-4561,23,-352,-156,134
859,-1894,-2,95,-4559,23,-352,-156,137
860,-1895,-3,96,-4560,23,-350,-155,139
861,-1895,-2,95,-4561,23,-352,-154,137
862,-1895,-3,95,-4560,23,-352,-154,138
863,-1894,-3,96,-4560,23,-352,-154,138
864,-1895,-2,94,-4561,23,-352,-153,138
865,-1895,-1,95,-4562,23,-350,-154,140
866,-1896,-2,96,-4562,23,-352,-156,139
867,-1896,-3,95,-4562,23,-351,-158,139
868,-1897,-2,96,-4563,23,-353,-158,139
869,-1896,-2,95,-4561,23,-353,-158,139
870,-1897,-2,95,-4561,23,-352,-157,139
871,-1897,-2,94,-4561,23,-351,-156,139
872,-1898,-3,96,-4562,23,-353,-155,139
873,-1897,-2,95,-4560,23,-354,-154,140
874,-1897,-4,94,-4560,23,-352,-156,140
875,-1896,-3,96,-4559,23,-352,-157,141
876,-1895,-3,95,-4559,23,-350,-156,139
877,-1896,-4,95,-4558,23,-350,-154,141
878,-1895,-3,95,-4559,23,-348,-153,140
879,-1895,-2,94,-4559,23,-348,-154,139
880,-1894,-3,95,-4558,23,-347,-154,139
881,-1893,-4,97,-4558,23,-349,-153,141
882,-1893,-5,95,-4557,23,-350,-153,140
883,-1893,-6,94,-4558,23,-352,-153,142
884,-1893,-5,94,-4558,23,-353,-154,141
885,-1893,-5,92,-4560,23,-351,-155,142
886,-1893,-4,94,-4558,23,-350,-156,140
887,-1892,-4,93,-4559,23,-352,-157,141
888,-1892,-3,96,-4558,23,-351,-158,141
889,-1893,-2,95,-4558,23,-351,-159,143
890,-1894,-2,94,-4558,23,-351,-159,142
891,-1894,-2,96,-4557,23,-350,-155,139
892,-1894,0,94,-4558,23,-350,-154,137
893,-1893,1,93,-4558,23,-349,-154,138
894,-1891,2,94,-4560,23,-351,-155,139
895,-1892,1,95,-4561,23,-350,-155,139
896,-1892,0,97,-4563,23,-349,-156,139
897,-1892,0,98,-4560,23,-351,-156,139
898,-1892,-1,97,-4561,23,-349,-155,141
899,-1893,-1,96,-4560,23,-348,-155,141
900,-1894,-1,97,-4558,23,-349,-153,141
901,-1894,-3,98,-4559,23,-348,-155,141
902,-1894,-3,97,-4558,23,-347,-154,139
903,-1894,-3,96,-4558,23,-349,-152,139
904,-1894,-3,96,-4555,23,-350,-153,141
905,-1894,-3,94,-4555,23,-352,-154,139
906,-1895,-4,94,-4558,23,-352,-151,140
907,-1895,-3,94,-4559,23,-353,-150,141
908,-1897,-2,95,-4560,23,-352,-152,142
909,-1896,-2,96,-4560,23,-351,-152,142
910,-1896,-3,95,-4558,23,-350,-151,142
911,-1895,-2,93,-4557,23,-352,-153,140
912,-1895,-2,93,-4556,23,-352,-156,141
913,-1895,-1,93,-4556,23,-351,-155,141
914,-1896,-1,96,-4556,23,-349,-154,141
915,-1896,-1,96,-4557,23,-348,-156,141
916,-1896,-1,94,-4556,23,-347,-155,139
917,-1895,0,94,-4558,23,-348,-156,141
918,-1895,0,96,-4558,23,-348,-155,142
919,-1895,-1,95,-4559,23,-350,-154,138
920,-1895,-2,95,-4557,23,-349,-154,138
921,-1894,-2,94,-4557,23,-349,-152,137
922,-1894,-2,94,-4557,23,-350,-152,138
923,-1894,-3,93,-4558,23,-348,-153,138
924,-1894,-3,93,-4557,23,-350,-155,140
925,-1895,-3,90,-4556,23,-351,-154,139
926,-1894,-3,92,-4557,23,-350,-154,142
927,-1894,-3,92,-4555,23,-350,-154,142
928,-1893,-3,92,-4557,23,-352,-154,142
929,-1894,-3,95,-4556,23,-353,-153,143
930,-1895,-3,94,-4557,23,-351,-151,142
931,-1895,-3,95,-4559,23,-351,-151,140
932,-1894,-3,95,-4561,23,-349,-153,141
933,-1894,-2,95,-4559,23,-347,-153,141
934,-1894,-2,95,-4559,23,-350,-153,141
935,-1894,-2,94,-4559,23,-348,-155,145
936,-1894,-1,97,-4559,23,-346,-154,144
937,-1893,-2,97,-4558,23,-346,-152,143
938,-1892,-2,96,-4557,23,-345,-153,142
939,-1894,-2,95,-4557,23,-348,-153,141
940,-1894,-3,96,-4558,23,-348,-153,141
941,-1895,-2,94,-4557,23,-352,-154,140
942,-1895,-3,95,-4556,23,-351,-153,139
943,-1895,-3,95,-4556,23,-351,-153,140
944,-1895,-3,94,-4556,23,-353,-154,139
945,-1895,-3,94,-4558,23,-354,-158,139
946,-1894,-2,93,-4558,23,-356,-156,139
947,-1895,-2,93,-4559,23,-353,-158,139
948,-1895,-2,92,-4558,23,-356,-157,140
949,-1895,-2,94,-4556,23,-356,-157,141
950,-1894,-3,96,-4557,23,-356,-156,140
951,-1895,-3,96,-4557,23,-353,-155,141
952,-1895,-3,95,-4557,23,-352,-153,138
953,-1895,-3,95,-4558,23,-351,-153,139
954,-1896,-2,95,-4558,23,-350,-154,137
955,-1896,-2,96,-4555,23,-351,-154,137
956,-1896,-1,96,-4558,23,-348,-154,137
957,-1896,0,95,-4557,23,-351,-154,139
958,-1896,-1,95,-4557,23,-349,-154,137
959,-1895,-1,96,-4556,23,-351,-157,136
960,-1893,-2,96,-4557,23,-351,-156,138
961,-1892,-2,96,-4557,23,-352,-155,137
962,-1892,-1,95,-4555,23,-351,-156,138
963,-1892,-1,97,-4555,23,-351,-155,137
964,-1893,-2,95,-4555,23,-351,-156,138
965,-1894,-2,96,-4555,23,-353,-156,138
966,-1894,-1,96,-4556,23,-350,-155,140
967,-1894,0,98,-4557,23,-349,-155,140
968,-1895,-1,95,-4554,23,-349,-153,140
969,-1894,-1,97,-4555,23,-350,-152,140
970,-1894,-2,94,-4556,23,-351,-152,143
971,-1893,-2,92,-4557,23,-352,-155,142
972,-1894,-2,92,-4557,23,-352,-156,141
973,-1894,-1,93,-4557,23,-351,-157,139
974,-1893,-2,95,-4556,23,-351,-156,140
975,-1894,-2,95,-4556,23,-351,-157,139
976,-1894,-1,94,-4558,23,-350,-159,141
977,-1893,-1,93,-4560,23,-350,-157,140
978,-1892,0,92,-4560,23,-350,-157,142
979,-1892,-1,95,-4559,23,-352,-157,141
980,-1893,-1,95,-4559,23,-354,-160,141
981,-1895,-1,95,-4558,23,-351,-159,143
982,-1895,-1,95,-4558,23,-350,-158,142
983,-1895,0,96,-4557,23,-350,-157,141
984,-1894,0,96,-4558,23,-351,-156,140
985,-1896,-1,97,-4558,23,-351,-155,138
986,-1897,-1,97,-4559,23,-350,-156,138
987,-1897,-1,96,-4557,23,-350,-154,140
988,-1897,-3,96,-4555,23,-351,-156,141
989,-1897,-2,95,-4553,23,-351,-157,142
990,-1896,-2,95,-4556,23,-349,-157,142
991,-1896,-2,95,-4556,23,-350,-155,141
992,-1895,-2,95,-4554,23,-350,-153,141
993,-1895,-3,93,-4554,23,-353,-151,142
994,-1895,-3,93,-4554,23,-353,-149,141
995,-1894,-2,92,-4555,23,-352,-149,141
996,-1895,-2,93,-4554,23,-352,-149,142
997,-1894,-3,92,-4555,23,-354,-151,141
998,-1895,-3,92,-4555,23,-351,-152,142
