,acc_X,acc_Y,acc_Z,temp,tempC,gyr_X,gyr_Y,gyr_Z
0,-3791,-9,180,-4667,23,-176,-76,70
1,-3788,5,191,-4672,23,-182,-79,74
2,-3777,4,179,-4675,23,-172,-79,67
3,-3784,-1,192,-4666,23,-176,-82,71
4,-3793,-1,205,-4672,23,-173,-75,68
5,-3793,-12,190,-4671,23,-172,-78,66
6,-3794,-10,195,-4674,23,-179,-76,66
7,-3795,-1,191,-4678,23,-172,-76,73
8,-3791,-12,172,-4678,23,-172,-82,69
9,-3788,-3,169,-4663,23,-173,-72,69
10,-3789,2,188,-4679,23,-178,-75,72
11,-3791,0,188,-4666,23,-176,-74,67
12,-3785,-8,209,-4669,23,-175,-75,69
13,-3792,-8,190,-4662,23,-176,-84,70
14,-3788,6,185,-4660,23,-176,-79,72
15,-3793,-3,190,-4678,23,-174,-75,72
16,-3781,-9,200,-4678,23,-171,-80,75
17,-3789,6,188,-4668,23,-174,-76,70
18,-3796,-4,160,-4671,23,-172,-78,72
19,-3794,7,188,-4657,23,-175,-80,68
20,-3789,-8,188,-4666,23,-171,-80,68
21,-3789,7,182,-4671,23,-171,-73,69
22,-3777,-6,177,-4670,23,-172,-81,68
23,-3792,-8,196,-4660,23,-174,-81,66
24,-3789,3,197,-4661,23,-173,-78,65
25,-3795,-6,177,-4667,23,-175,-74,67
26,-3799,-3,192,-4666,23,-175,-74,69
27,-3797,1,188,-4663,23,-177,-78,67
28,-3795,-1,181,-4673,23,-175,-83,68
29,-3796,-2,196,-4669,23,-171,-76,71
30,-3783,-7,203,-4666,23,-169,-79,69
31,-3785,3,180,-4664,23,-175,-81,71
32,-3782,-6,182,-4672,23,-171,-75,71
33,-3796,-1,182,-4673,23,-172,-74,68
34,-3791,-5,187,-4666,23,-171,-76,70
35,-3788,-1,172,-4663,23,-176,-79,68
36,-3790,-6,200,-4668,23,-180,-82,67
37,-3791,-2,188,-4660,23,-171,-77,69
38,-3788,-13,187,-4665,23,-175,-80,73
39,-3793,4,183,-4667,23,-175,-78,68
40,-3796,-12,184,-4665,23,-167,-81,71
41,-3795,1,193,-4659,23,-176,-82,71
42,-3795,7,182,-4665,23,-171,-77,69
43,-3789,4,187,-4669,23,-172,-75,70
44,-3795,9,198,-4667,23,-172,-75,69
45,-3791,8,171,-4669,23,-174,-78,67
46,-3786,-2,187,-4670,23,-176,-78,72
47,-3789,-5,193,-4669,23,-176,-77,68
48,-3798,-9,183,-4671,23,-176,-74,70
49,-3788,-8,186,-4663,23,-168,-79,71
50,-3788,1,190,-4670,23,-175,-77,67
51,-3788,2,179,-4662,23,-171,-78,74
52,-3783,-1,173,-4661,23,-173,-78,72
53,-3787,-5,199,-4669,23,-169,-77,69
54,-3784,-10,184,-4665,23,-177,-77,68
55,-3786,3,196,-4668,23,-179,-75,70
56,-3794,-8,192,-4667,23,-171,-74,71
57,-3794,-5,182,-4668,23,-173,-79,71
58,-3786,-1,201,-4671,23,-174,-81,69
59,-3784,-11,180,-4669,23,-175,-75,71
60,-3781,-10,177,-4664,23,-179,-73,71
61,-3784,-11,196,-4667,23,-175,-75,65
62,-3788,-9,190,-4673,23,-176,-80,69
63,-3792,-7,181,-4665,23,-172,-76,73
64,-3796,-3,181,-4666,23,-171,-78,75
65,-3778,-4,171,-4660,23,-175,-76,65
66,-3788,-4,178,-4669,23,-172,-78,67
67,-3787,2,199,-4669,23,-175,-75,66
68,-3783,2,182,-4674,23,-178,-75,72
69,-3791,9,188,-4666,23,-178,-81,73
70,-3784,-7,193,-4666,23,-172,-80,69
71,-3790,-10,197,-4660,23,-174,-75,74
72,-3782,-18,178,-4667,23,-174,-84,65
73,-3796,-1,205,-4669,23,-179,-77,67
74,-3785,7,198,-4672,23,-174,-77,64
75,-3783,-2,189,-4671,23,-178,-76,66
76,-3795,-6,195,-4671,23,-171,-73,66
77,-3776,-1,192,-4668,23,-168,-78,72
78,-3783,-14,172,-4668,23,-179,-81,68
79,-3788,9,180,-4669,23,-174,-79,66
80,-3784,-10,205,-4668,23,-172,-84,68
81,-3782,2,179,-4662,23,-179,-78,71
82,-3785,-1,188,-4671,23,-176,-75,71
83,-3783,1,178,-4669,23,-175,-75,73
84,-3785,-1,188,-4672,23,-168,-76,73
85,-3804,-8,185,-4669,23,-172,-77,66
86,-3786,-3,188,-4670,23,-172,-84,68
87,-3790,-3,179,-4665,23,-169,-83,70
88,-3786,-2,183,-4665,23,-174,-75,77
89,-3785,3,197,-4666,23,-175,-78,68
90,-3789,-5,192,-4662,23,-174,-77,69
91,-3786,4,196,-4666,23,-175,-77,70
92,-3793,9,194,-4669,23,-175,-84,73
93,-3792,-11,194,-4670,23,-178,-72,70
94,-3786,-4,196,-4668,23,-173,-85,69
95,-3790,0,206,-4664,23,-177,-78,70
96,-3781,1,177,-4667,23,-178,-75,70
97,-3777,-2,192,-4675,23,-171,-74,68
98,-3798,-7,201,-4672,23,-166,-74,69
99,-3788,-4,189,-4663,23,-175,-78,68
100,-3787,9,171,-4660,23,-174,-81,72
101,-3787,-9,177,-4665,23,-169,-75,68
102,-3785,-4,193,-4674,23,-172,-76,68
103,-3783,-9,187,-4666,23,-176,-77,66
104,-3791,-9,199,-4670,23,-176,-82,66
105,-3786,-9,191,-4666,23,-174,-79,68
106,-3800,-6,187,-4665,23,-170,-77,70
107,-3788,9,180,-4664,23,-174,-78,70
108,-3801,-8,188,-4674,23,-173,-78,69
109,-3790,-11,207,-4666,23,-176,-81,68
110,-3783,-11,188,-4664,23,-173,-77,68
111,-3783,-14,179,-4671,23,-174,-80,68
112,-3790,-12,190,-4668,23,-175,-78,69
113,-3789,-10,182,-4669,23,-177,-74,69
114,-3787,-4,183,-4668,23,-175,-76,67
115,-3789,-8,180,-4664,23,-171,-73,73
116,-3796,-14,177,-4672,23,-172,-73,69
117,-3790,-12,180,-4670,23,-169,-78,73
118,-3792,-8,187,-4667,23,-176,-83,64
119,-3794,-3,174,-4669,23,-174,-75,69
120,-3784,3,192,-4672,23,-173,-75,69
121,-3790,-5,192,-4665,23,-176,-76,70
122,-3792,-1,185,-4668,23,-172,-77,72
123,-3790,-6,187,-4654,23,-176,-76,67
124,-3800,-10,181,-4660,23,-175,-81,68
125,-3784,-11,182,-4671,23,-176,-78,74
126,-3780,2,189,-4671,23,-175,-78,71
127,-3782,2,173,-4657,23,-173,-78,69
128,-3781,-6,197,-4667,23,-176,-76,68
129,-3787,-7,189,-4666,23,-171,-76,69
130,-3794,-5,188,-4667,23,-171,-80,70
131,-3783,-10,189,-4660,23,-174,-80,71
132,-3786,-2,184,-4668,23,-178,-79,71
133,-3791,-4,189,-4670,23,-170,-79,69
134,-3796,-12,182,-4660,23,-172,-75,69
135,-3788,-9,180,-4665,23,-173,-81,69
136,-3793,-1,188,-4667,23,-170,-78,70
137,-3788,-1,188,-4662,23,-174,-79,70
138,-3788,0,191,-4670,23,-173,-76,75
139,-3795,-13,191,-4666,23,-176,-79,66
140,-3787,-11,188,-4672,23,-177,-79,70
141,-3780,-2,178,-4669,23,-172,-76,72
142,-3793,5,183,-4669,23,-171,-75,73
143,-3799,4,188,-4663,23,-175,-79,72
144,-3800,-5,181,-4671,23,-172,-80,71
145,-3793,-5,178,-4663,23,-172,-78,67
146,-3796,-4,186,-4673,23,-172,-80,71
147,-3791,-12,187,-4664,23,-170,-79,67
148,-3790,7,196,-4672,23,-176,-82,72
149,-3776,3,203,-4664,23,-175,-74,67
150,-3784,-17,189,-4662,23,-175,-78,72
151,-3790,-2,189,-4667,23,-174,-77,76
152,-3784,-6,197,-4667,23,-174,-76,68
153,-3789,-2,190,-4671,23,-173,-76,65
154,-3793,-6,197,-4668,23,-177,-74,66
155,-3786,-9,209,-4668,23,-175,-77,73
156,-3788,1,188,-4675,23,-176,-75,77
157,-3776,-10,195,-4668,23,-176,-75,72
158,-3789,-15,191,-4667,23,-176,-78,67
159,-3795,4,179,-4670,23,-175,-79,71
160,-3799,-3,170,-4671,23,-169,-74,67
161,-3798,-5,182,-4665,23,-171,-78,71
162,-3794,0,195,-4665,23,-175,-80,74
163,-3786,-2,189,-4666,23,-177,-77,69
164,-3776,-2,205,-4666,23,-175,-83,71
165,-3792,-11,195,-4666,23,-175,-75,62
166,-3789,1,188,-4673,23,-175,-82,69
167,-3790,-3,182,-4667,23,-170,-83,70
168,-3789,7,181,-4673,23,-172,-80,70
169,-3776,-11,181,-4668,23,-177,-76,73
170,-3793,-1,188,-4662,23,-169,-78,71
171,-3794,3,178,-4670,23,-174,-77,72
172,-3798,-4,184,-4669,23,-175,-87,71
173,-3785,-3,193,-4670,23,-177,-79,72
174,-3791,-1,197,-4664,23,-175,-80,68
175,-3780,-2,168,-4670,23,-177,-76,65
176,-3788,-3,178,-4668,23,-174,-80,69
177,-3783,-14,204,-4673,23,-172,-75,69
178,-3788,-6,187,-4668,23,-173,-78,70
179,-3776,-5,183,-4664,23,-177,-77,71
180,-3789,-17,183,-4666,23,-171,-75,77
181,-3785,-6,180,-4673,23,-178,-78,69
182,-3783,4,184,-4665,23,-172,-81,72
183,-3793,3,178,-4670,23,-175,-77,68
184,-3789,-1,180,-4668,23,-176,-71,68
185,-3783,5,191,-4672,23,-176,-79,68
186,-3790,-9,190,-4669,23,-166,-75,69
187,-3786,3,197,-4667,23,-176,-77,67
188,-3785,0,220,-4664,23,-173,-75,72
189,-3791,-7,188,-4662,23,-173,-77,68
190,-3793,-4,207,-4667,23,-171,-74,70
191,-3789,-2,182,-4662,23,-172,-79,72
192,-3791,2,188,-4668,23,-173,-78,69
193,-3799,6,200,-4672,23,-176,-77,70
194,-3787,-4,183,-4670,23,-174,-78,72
195,-3787,-15,194,-4662,23,-173,-78,74
196,-3790,-8,193,-4665,23,-176,-77,70
197,-3786,-9,176,-4670,23,-177,-70,73
198,-3783,2,203,-4671,23,-173,-78,68
199,-3788,-12,202,-4667,23,-174,-77,67
200,-3780,-1,218,-4667,23,-171,-75,68
201,-3801,-15,192,-4666,23,-172,-74,65
202,-3801,-3,183,-4667,23,-173,-70,68
203,-3790,-8,198,-4668,23,-171,-75,72
204,-3792,-11,184,-4674,23,-171,-77,70
205,-3787,-17,177,-4669,23,-176,-77,73
206,-3785,-5,194,-4671,23,-167,-77,70
207,-3803,0,189,-4661,23,-171,-81,66
208,-3787,-1,195,-4669,23,-174,-72,72
209,-3790,0,196,-4673,23,-171,-78,73
210,-3798,-4,197,-4670,23,-174,-78,74
211,-3791,10,193,-4669,23,-173,-73,71
212,-3795,2,181,-4663,23,-176,-75,70
213,-3789,-2,183,-4669,23,-179,-78,75
214,-3798,-9,186,-4677,23,-175,-77,69
215,-3794,-8,183,-4664,23,-171,-75,68
216,-3784,4,191,-4674,23,-172,-75,68
217,-3787,-10,188,-4667,23,-177,-75,73
218,-3793,-3,175,-4671,23,-176,-77,67
219,-3787,7,187,-4669,23,-171,-78,69
220,-3789,-10,173,-4664,23,-171,-72,69
221,-3793,-14,191,-4660,23,-174,-73,72
222,-3773,-7,175,-4663,23,-170,-76,72
223,-3781,-9,186,-4665,23,-173,-79,68
224,-3785,-21,196,-4673,23,-175,-79,70
225,-3786,-3,194,-4659,23,-178,-75,71
226,-3788,-6,199,-4660,23,-180,-76,75
227,-3784,-5,195,-4665,23,-176,-71,69
228,-3783,-2,196,-4666,23,-172,-76,73
229,-3789,-2,177,-4668,23,-178,-72,69
230,-3786,-2,182,-4661,23,-175,-75,72
231,-3788,-7,191,-4672,23,-172,-78,69
232,-3797,-7,193,-4674,23,-166,-78,70
233,-3796,2,187,-4672,23,-172,-75,65
234,-3785,2,172,-4660,23,-173,-80,71
235,-3799,-7,187,-4670,23,-176,-76,71
236,-3787,-11,183,-4671,23,-171,-72,70
237,-3796,-1,184,-4670,23,-175,-78,73
238,-3782,-5,181,-4660,23,-176,-77,69
239,-3786,-10,190,-4665,23,-172,-78,69
240,-3796,0,187,-4670,23,-174,-74,66
241,-3799,-10,186,-4667,23,-177,-74,72
242,-3791,-11,193,-4669,23,-174,-76,72
243,-3791,1,191,-4666,23,-173,-78,71
244,-3777,8,184,-4662,23,-174,-73,68
245,-3779,0,178,-4667,23,-175,-74,68
246,-3788,-2,188,-4673,23,-178,-76,71
247,-3795,-3,184,-4668,23,-174,-79,69
248,-3804,-3,167,-4670,23,-172,-72,67
249,-3788,-1,186,-4664,23,-172,-76,66
250,-3794,-7,183,-4673,23,-173,-75,65
251,-3789,0,192,-4666,23,-170,-73,65
252,-3785,-4,182,-4667,23,-178,-76,73
253,-3791,-16,201,-4662,23,-177,-76,67
254,-3783,-16,168,-4667,23,-175,-78,67
255,-3794,-11,187,-4664,23,-173,-75,73
256,-3787,-8,194,-4666,23,-175,-74,71
257,-3777,-15,198,-4666,23,-179,-76,68
258,-3798,-1,187,-4670,23,-174,-75,68
259,-3784,7,205,-4665,23,-175,-80,69
260,-3797,-4,176,-4671,23,-170,-74,70
261,-3790,1,184,-4667,23,-176,-70,69
262,-3797,-1,166,-4671,23,-171,-79,70
263,-3792,-4,182,-4661,23,-177,-79,72
264,-3795,-1,192,-4672,23,-178,-77,68
265,-3787,-7,200,-4674,23,-173,-77,72
266,-3791,1,191,-4667,23,-176,-79,70
267,-3788,5,183,-4673,23,-174,-74,67
268,-3789,-1,190,-4673,23,-173,-74,71
269,-3790,-5,190,-4665,23,-176,-74,74
270,-3792,-4,193,-4665,23,-171,-80,71
271,-3787,8,174,-4663,23,-175,-78,67
272,-3775,1,170,-4671,23,-172,-71,74
273,-3789,9,183,-4668,23,-168,-73,70
274,-3795,-1,182,-4663,23,-169,-78,69
275,-3790,1,192,-4664,23,-176,-80,70
276,-3789,7,174,-4668,23,-175,-78,67
277,-3787,-11,196,-4670,23,-173,-74,68
278,-3793,0,188,-4670,23,-178,-80,68
279,-3794,3,173,-4668,23,-168,-78,69
280,-3793,2,188,-4666,23,-173,-75,73
281,-3790,8,189,-4671,23,-173,-76,70
282,-3796,-12,169,-4667,23,-171,-79,73
283,-3789,2,198,-4671,23,-174,-77,73
284,-3795,-6,171,-4664,23,-170,-74,68
285,-3792,1,195,-4674,23,-173,-79,69
286,-3777,2,183,-4673,23,-171,-80,68
287,-3783,-17,184,-4669,23,-169,-77,69
288,-3792,4,178,-4672,23,-173,-82,70
289,-3792,-4,172,-4665,23,-174,-72,65
290,-3794,-2,177,-4663,23,-176,-78,73
291,-3798,2,202,-4665,23,-172,-80,70
292,-3786,7,188,-4672,23,-170,-77,71
293,-3785,-1,184,-4673,23,-172,-81,69
294,-3782,-6,197,-4664,23,-173,-84,69
295,-3788,-4,191,-4662,23,-172,-83,69
296,-3786,7,180,-4667,23,-178,-77,74
297,-3782,-5,169,-4670,23,-174,-77,72
298,-3797,-7,176,-4664,23,-180,-77,70
299,-3778,5,183,-4662,23,-175,-74,67
300,-3792,-4,200,-4662,23,-174,-77,74
301,-3799,5,195,-4669,23,-172,-80,72
302,-3795,1,178,-4667,23,-172,-77,75
303,-3789,-7,189,-4666,23,-173,-77,71
304,-3789,-7,181,-4674,23,-174,-73,71
305,-3800,-4,188,-4666,23,-171,-75,74
306,-3783,-14,196,-4664,23,-173,-73,73
307,-3794,-3,194,-4675,23,-173,-77,67
308,-3783,-1,171,-4670,23,-176,-81,70
309,-3785,1,195,-4673,23,-176,-75,71
310,-3787,7,189,-4663,23,-176,-71,70
311,-3784,4,186,-4668,23,-178,-72,63
312,-3789,-3,185,-4667,23,-175,-76,64
313,-3785,-12,185,-4669,23,-170,-72,68
314,-3794,-2,188,-4673,23,-171,-79,72
315,-3786,-3,177,-4670,23,-174,-73,68
316,-3774,-8,194,-4666,23,-174,-74,70
317,-3792,-6,199,-4667,23,-174,-73,67
318,-3784,-5,191,-4663,23,-172,-74,63
319,-3793,0,187,-4664,23,-174,-81,69
320,-3796,0,208,-4668,23,-175,-81,66
321,-3801,-8,186,-4663,23,-177,-82,71
322,-3785,-15,185,-4659,23,-170,-81,68
323,-3791,-15,191,-4668,23,-170,-77,74
324,-3790,-2,192,-4669,23,-179,-84,74
325,-3790,-15,204,-4672,23,-175,-81,69
326,-3798,-5,184,-4661,23,-175,-83,70
327,-3792,-8,198,-4659,23,-172,-75,71
328,-3781,-9,179,-4663,23,-173,-77,66
329,-3789,2,199,-4665,23,-175,-76,67
330,-3786,3,192,-4661,23,-176,-80,72
331,-3798,2,199,-4661,23,-175,-77,68
332,-3790,-14,189,-4656,23,-178,-75,64
333,-3798,-6,190,-4660,23,-175,-75,68
334,-3789,-6,177,-4669,23,-177,-79,72
335,-3786,-4,181,-4671,23,-177,-79,66
336,-3791,-2,201,-4667,23,-177,-80,72
337,-3784,2,177,-4667,23,-176,-70,66
338,-3799,-2,191,-4663,23,-171,-71,69
339,-3794,-3,192,-4663,23,-170,-75,68
340,-3788,-12,196,-4670,23,-174,-81,71
341,-3781,-10,191,-4668,23,-173,-78,76
342,-3791,-2,190,-4664,23,-178,-79,68
343,-3793,-6,200,-4673,23,-173,-80,70
344,-3793,1,188,-4670,23,-175,-80,72
345,-3791,-13,184,-4669,23,-169,-79,70
346,-3788,3,188,-4667,23,-181,-71,70
347,-3784,-7,182,-4664,23,-177,-80,68
348,-3790,-12,196,-4665,23,-175,-79,71
349,-3787,-10,166,-4673,23,-172,-77,66
350,-3797,-1,180,-4673,23,-175,-80,68
351,-3781,3,173,-4666,23,-175,-76,69
352,-3804,7,185,-4660,23,-173,-78,70
353,-3797,-5,189,-4667,23,-175,-79,72
354,-3784,2,181,-4672,23,-176,-76,64
355,-3795,-5,175,-4667,23,-176,-74,69
356,-3790,4,196,-4660,23,-173,-81,71
357,-3785,-8,193,-4667,23,-177,-75,75
358,-3781,-12,190,-4667,23,-177,-74,66
359,-3776,-15,177,-4669,23,-171,-77,69
360,-3792,-9,185,-4662,23,-177,-77,70
361,-3793,-9,170,-4672,23,-169,-76,66
362,-3792,9,188,-4662,23,-173,-79,66
363,-3783,-12,177,-4665,23,-173,-76,70
364,-3782,-9,184,-4668,23,-169,-76,72
365,-3791,-2,179,-4671,23,-173,-76,70
366,-3796,-8,186,-4667,23,-168,-76,69
367,-3796,0,188,-4664,23,-177,-79,71
368,-3788,5,187,-4659,23,-172,-77,71
369,-3792,-9,190,-4666,23,-171,-76,69
370,-3787,-13,198,-4675,23,-172,-80,65
371,-3797,-7,189,-4667,23,-174,-72,68
372,-3802,-16,184,-4669,23,-172,-83,68
373,-3793,-2,174,-4669,23,-175,-81,69
374,-3788,-15,192,-4666,23,-172,-77,70
375,-3772,-16,193,-4667,23,-174,-78,65
376,-3784,1,187,-4671,23,-173,-79,64
377,-3791,-9,183,-4672,23,-173,-78,70
378,-3787,2,189,-4671,23,-174,-79,67
379,-3792,-1,197,-4667,23,-174,-77,73
380,-3777,5,185,-4663,23,-172,-78,69
381,-3797,-6,185,-4665,23,-177,-80,73
382,-3790,-4,190,-4667,23,-174,-73,70
383,-3785,0,169,-4663,23,-176,-75,68
384,-3792,2,179,-4669,23,-179,-73,70
385,-3786,-12,182,-4667,23,-175,-78,75
386,-3794,-9,180,-4663,23,-174,-74,72
387,-3782,-9,198,-4670,23,-175,-74,68
388,-3783,-2,194,-4666,23,-174,-78,67
389,-3793,-7,191,-4664,23,-176,-76,70
390,-3799,-7,196,-4670,23,-175,-79,73
391,-3795,-1,189,-4659,23,-177,-83,74
392,-3789,1,187,-4674,23,-176,-74,69
393,-3789,0,209,-4666,23,-174,-75,62
394,-3789,-13,192,-4666,23,-172,-74,71
395,-3788,-10,191,-4667,23,-173,-78,69
396,-3782,3,171,-4671,23,-177,-75,68
397,-3795,9,182,-4659,23,-179,-77,68
398,-3795,-2,189,-4668,23,-171,-78,71
399,-3791,3,194,-4671,23,-172,-77,70
400,-3794,2,189,-4662,23,-172,-75,74
401,-3795,-6,188,-4670,23,-173,-79,69
402,-3797,-5,200,-4669,23,-174,-76,65
403,-3787,3,194,-4666,23,-174,-75,68
404,-3786,-3,182,-4674,23,-176,-79,70
405,-3788,4,186,-4667,23,-174,-73,68
406,-3791,-4,192,-4662,23,-170,-77,77
407,-3785,-1,173,-4665,23,-178,-80,73
408,-3788,2,208,-4669,23,-175,-74,69
409,-3794,1,190,-4663,23,-175,-76,69
410,-3784,2,183,-4657,23,-175,-77,70
411,-3787,10,179,-4664,23,-176,-78,69
412,-3780,1,183,-4667,23,-170,-78,66
413,-3802,-3,186,-4670,23,-172,-79,67
414,-3795,-3,196,-4670,23,-173,-77,70
415,-3801,-1,193,-4666,23,-174,-75,68
416,-3787,-6,181,-4664,23,-177,-76,68
417,-3787,-2,181,-4662,23,-169,-77,72
418,-3791,7,197,-4663,23,-174,-80,68
419,-3793,-1,191,-4664,23,-174,-80,65
420,-3794,3,193,-4665,23,-172,-80,68
421,-3792,-12,192,-4665,23,-175,-77,68
422,-3793,3,186,-4678,23,-175,-82,74
423,-3789,-4,185,-4664,23,-177,-74,72
424,-3779,7,192,-4659,23,-175,-74,70
425,-3782,-2,192,-4659,23,-169,-75,72
426,-3782,-3,177,-4667,23,-177,-78,69
427,-3792,2,193,-4668,23,-170,-81,70
428,-3791,-8,192,-4666,23,-171,-77,74
429,-3785,0,190,-4673,23,-179,-80,69
430,-3787,-9,182,-4667,23,-174,-74,69
431,-3791,2,179,-4660,23,-171,-76,70
432,-3797,-9,208,-4665,23,-172,-79,64
433,-3782,6,199,-4664,23,-179,-75,69
434,-3797,-14,183,-4665,23,-176,-80,68
435,-3791,-12,189,-4672,23,-176,-76,66
436,-3784,2,194,-4668,23,-174,-77,68
437,-3786,8,183,-4668,23,-177,-75,68
438,-3778,-2,186,-4667,23,-174,-82,68
439,-3784,-16,188,-4671,23,-177,-74,66
440,-3784,-8,177,-4663,23,-172,-75,68
441,-3787,1,191,-4669,23,-176,-75,63
442,-3801,0,185,-4662,23,-173,-74,71
443,-3794,-1,180,-4670,23,-176,-76,68
444,-3786,-4,183,-4664,23,-175,-79,70
445,-3790,-11,200,-4664,23,-176,-80,74
446,-3799,-2,197,-4667,23,-177,-77,74
447,-3785,-5,190,-4670,23,-176,-75,71
448,-3790,-10,167,-4671,23,-173,-81,66
449,-3795,-6,189,-4662,23,-169,-76,65
450,-3791,-3,185,-4661,23,-171,-72,69
451,-3787,3,178,-4666,23,-167,-78,65
452,-3780,-10,177,-4665,23,-173,-77,69
453,-3778,-2,173,-4672,23,-174,-77,69
454,-3784,7,175,-4668,23,-175,-78,71
455,-3781,-9,191,-4665,23,-174,-75,70
456,-3794,-5,188,-4665,23,-175,-73,76
457,-3783,-4,201,-4672,23,-177,-80,70
458,-3783,-3,207,-4665,23,-177,-77,70
459,-3785,-3,194,-4668,23,-174,-76,72
460,-3792,-5,199,-4675,23,-174,-75,74
461,-3788,-1,189,-4664,23,-173,-73,68
462,-3785,-4,190,-4667,23,-173,-75,73
463,-3782,7,202,-4666,23,-174,-71,73
464,-3790,4,190,-4668,23,-174,-71,69
465,-3788,3,187,-4661,23,-176,-71,65
466,-3780,-8,183,-4666,23,-178,-76,74
467,-3790,-17,174,-4664,23,-169,-76,74
468,-3783,-10,172,-4661,23,-174,-76,70
469,-3778,-12,177,-4658,23,-175,-75,75
470,-3787,4,183,-4664,23,-170,-76,70
471,-3793,-6,184,-4662,23,-174,-72,70
472,-3787,5,189,-4667,23,-173,-75,68
473,-3802,-8,190,-4665,23,-170,-73,68
474,-3795,-10,179,-4665,23,-178,-75,72
475,-3784,-6,188,-4661,23,-172,-72,71
476,-3789,-10,183,-4670,23,-173,-76,67
477,-3788,-8,192,-4663,23,-175,-77,66
478,-3793,-2,184,-4673,23,-177,-75,67
479,-3772,0,188,-4662,23,-171,-73,69
480,-3795,-6,201,-4661,23,-174,-74,72
481,-3777,-3,202,-4668,23,-172,-75,73
482,-3787,-16,204,-4657,23,-177,-73,68
483,-3797,-13,202,-4671,23,-171,-78,70
484,-3785,0,180,-4653,23,-173,-79,69
485,-3788,-5,184,-4664,23,-171,-81,67
486,-3790,1,176,-4664,23,-175,-79,68
487,-3789,6,183,-4668,23,-176,-77,68
488,-3789,-8,190,-4664,23,-175,-74,70
489,-3785,-1,180,-4670,23,-171,-77,68
490,-3784,-4,179,-4674,23,-173,-76,70
491,-3791,8,184,-4662,23,-182,-78,70
492,-3787,-2,188,-4662,23,-172,-72,68
493,-3790,-5,167,-4655,23,-176,-73,71
494,-3794,0,187,-4682,23,-170,-78,71
495,-3797,8,190,-4667,23,-174,-72,70
496,-3790,-10,183,-4662,23,-174,-73,70
497,-3788,8,198,-4665,23,-173,-75,71
498,-3786,-2,188,-4670,23,-170,-74,73
499,-3795,4,185,-4658,23,-175,-73,74
500,-3789,-8,185,-4660,23,-172,-72,69
501,-3785,-5,187,-4664,23,-174,-74,70
502,-3789,-6,194,-4667,23,-174,-79,73
503,-3799,11,189,-4663,23,-173,-72,71
504,-3794,-2,189,-4669,23,-175,-77,65
505,-3792,-3,189,-4665,23,-175,-81,71
506,-3793,-13,179,-4666,23,-174,-80,67
507,-3783,2,189,-4659,23,-172,-73,67
508,-3785,-7,181,-4659,23,-181,-76,71
509,-3796,3,189,-4664,23,-179,-78,69
510,-3800,-4,173,-4667,23,-172,-74,70
511,-3791,6,187,-4665,23,-173,-82,67
512,-3781,-3,209,-4661,23,-173,-72,73
513,-3794,-3,196,-4668,23,-171,-77,67
514,-3781,-5,180,-4659,23,-173,-71,69
515,-3791,-8,182,-4658,23,-182,-73,68
516,-3783,-12,180,-4667,23,-175,-79,69
517,-3793,0,193,-4665,23,-169,-84,73
518,-3783,-1,197,-4667,23,-176,-74,70
519,-3786,-7,179,-4667,23,-176,-70,67
520,-3788,1,180,-4662,23,-165,-79,65
521,-3791,-7,185,-4665,23,-173,-79,69
522,-3792,-2,193,-4668,23,-174,-77,69
523,-3784,9,194,-4668,23,-172,-79,68
524,-3777,-6,178,-4664,23,-177,-78,70
525,-3794,-5,193,-4668,23,-176,-77,70
526,-3804,-5,184,-4666,23,-167,-80,73
527,-3784,-2,184,-4656,23,-172,-75,72
528,-3793,-11,188,-4663,23,-176,-74,70
529,-3785,-9,200,-4663,23,-175,-76,72
530,-3790,-1,188,-4664,23,-174,-73,72
531,-3789,-4,189,-4659,23,-173,-77,73
532,-3782,-7,195,-4665,23,-176,-81,67
533,-3779,5,195,-4666,23,-176,-76,67
534,-3788,1,195,-4658,23,-175,-73,64
535,-3791,4,204,-4654,23,-175,-75,70
536,-3790,-5,172,-4664,23,-176,-74,69
537,-3788,-4,201,-4665,23,-177,-78,70
538,-3784,0,185,-4658,23,-174,-78,73
539,-3797,-7,175,-4654,23,-180,-77,69
540,-3796,-6,167,-4664,23,-169,-80,69
541,-3791,-6,175,-4668,23,-173,-80,72
542,-3786,-4,173,-4669,23,-179,-78,69
543,-3785,3,193,-4663,23,-180,-76,71
544,-3792,-5,176,-4674,23,-176,-77,72
545,-3785,-3,195,-4667,23,-175,-79,68
546,-3788,-2,171,-4666,23,-175,-77,66
547,-3797,3,186,-4659,23,-178,-74,69
548,-3788,-5,192,-4661,23,-177,-86,71
549,-3787,5,182,-4667,23,-174,-82,72
550,-3784,-13,186,-4667,23,-175,-84,73
551,-3793,-13,188,-4655,23,-178,-76,71
552,-3784,-2,182,-4667,23,-172,-75,67
553,-3774,6,185,-4662,23,-172,-77,70
554,-3788,-1,191,-4665,23,-172,-74,66
555,-3792,-4,189,-4665,23,-177,-74,69
556,-3793,-5,181,-4663,23,-173,-73,74
557,-3787,-1,194,-4664,23,-178,-75,71
558,-3784,-3,185,-4655,23,-178,-77,69
559,-3795,5,188,-4660,23,-178,-81,75
560,-3782,1,193,-4663,23,-171,-77,69
561,-3790,-4,183,-4663,23,-172,-78,68
562,-3805,-10,190,-4663,23,-171,-77,72
563,-3797,-10,179,-4667,23,-175,-80,71
564,-3782,-5,184,-4672,23,-177,-75,71
565,-3778,-12,196,-4670,23,-176,-79,71
566,-3791,0,200,-4666,23,-179,-72,69
567,-3796,-4,198,-4664,23,-179,-75,67
568,-3792,-7,198,-4667,23,-176,-78,66
569,-3775,-4,214,-4674,23,-175,-77,65
570,-3788,-8,176,-4675,23,-177,-71,63
571,-3784,-5,183,-4668,23,-177,-75,66
572,-3783,-7,190,-4662,23,-173,-77,69
573,-3783,3,184,-4665,23,-174,-79,69
574,-3799,-1,183,-4666,23,-177,-76,70
575,-3784,-10,202,-4671,23,-177,-78,72
576,-3791,-16,196,-4669,23,-178,-83,70
577,-3797,-9,193,-4659,23,-176,-84,66
578,-3786,-7,190,-4665,23,-177,-72,68
579,-3789,-15,181,-4659,23,-176,-78,71
580,-3791,-9,176,-4667,23,-175,-81,71
581,-3797,-6,169,-4658,23,-172,-78,67
582,-3792,-8,186,-4662,23,-174,-76,72
583,-3787,-9,186,-4669,23,-175,-77,68
584,-3791,-2,197,-4667,23,-172,-77,67
585,-3786,-1,198,-4659,23,-180,-73,68
586,-3779,-9,184,-4667,23,-171,-73,68
587,-3792,-9,188,-4661,23,-175,-79,71
588,-3790,-8,193,-4663,23,-177,-72,72
589,-3799,-6,196,-4665,23,-173,-76,74
590,-3794,-4,193,-4668,23,-175,-78,69
591,-3780,-12,176,-4666,23,-173,-85,75
592,-3788,0,206,-4664,23,-173,-73,70
593,-3786,-10,192,-4666,23,-173,-75,73
594,-3795,-10,184,-4667,23,-178,-77,70
595,-3794,-3,191,-4660,23,-179,-72,69
596,-3789,-2,174,-4653,23,-173,-76,69
597,-3794,-6,187,-4661,23,-178,-72,71
598,-3791,-3,177,-4672,23,-170,-80,66
599,-3792,-7,182,-4655,23,-178,-77,70
600,-3792,-14,185,-4669,23,-170,-82,71
601,-3794,4,180,-4669,23,-180,-76,67
602,-3801,-10,196,-4669,23,-175,-78,67
603,-3789,1,195,-4667,23,-169,-78,69
604,-3801,4,198,-4665,23,-174,-74,67
605,-3779,5,166,-4663,23,-174,-78,67
606,-3791,-5,194,-4668,23,-171,-77,72
607,-3781,-13,181,-4665,23,-175,-81,73
608,-3775,2,186,-4663,23,-175,-80,74
609,-3789,-9,189,-4674,23,-173,-82,69
610,-3788,-11,172,-4666,23,-172,-75,67
611,-3794,-6,171,-4669,23,-177,-78,71
612,-3794,-5,178,-4660,23,-178,-72,68
613,-3774,-2,192,-4663,23,-172,-78,69
614,-3791,2,190,-4663,23,-178,-76,68
615,-3790,-7,187,-4658,23,-173,-74,71
616,-3796,-10,186,-4662,23,-174,-82,73
617,-3794,-1,177,-4670,23,-171,-78,66
618,-3796,-14,192,-4664,23,-173,-78,71
619,-3785,-15,191,-4668,23,-173,-77,70
620,-3798,-1,197,-4672,23,-171,-78,70
621,-3791,-4,166,-4661,23,-174,-78,68
622,-3784,1,191,-4666,23,-169,-80,72
623,-3798,3,203,-4666,23,-174,-79,70
624,-3800,4,188,-4664,23,-172,-74,71
625,-3796,-9,196,-4668,23,-174,-74,66
626,-3785,1,191,-4667,23,-167,-76,70
627,-3785,1,187,-4668,23,-172,-74,73
628,-3802,-11,186,-4665,23,-172,-74,72
629,-3789,-4,193,-4671,23,-172,-74,69
630,-3792,4,174,-4664,23,-174,-71,66
631,-3780,-1,174,-4665,23,-174,-74,71
632,-3792,-11,175,-4669,23,-175,-79,69
633,-3798,-8,196,-4663,23,-174,-78,70
634,-3790,-2,186,-4669,23,-174,-73,70
635,-3797,-7,197,-4671,23,-176,-77,73
636,-3799,-4,193,-4660,23,-173,-78,66
637,-3786,-1,190,-4666,23,-172,-71,70
638,-3791,-4,178,-4668,23,-174,-73,70
639,-3788,-11,173,-4664,23,-172,-77,67
640,-3799,2,174,-4665,23,-172,-77,71
641,-3791,-1,200,-4661,23,-177,-79,75
642,-3794,-10,206,-4663,23,-176,-72,71
643,-3792,-4,186,-4664,23,-178,-74,75
644,-3789,0,184,-4659,23,-174,-76,73
645,-3790,-5,189,-4666,23,-178,-75,73
646,-3793,-21,190,-4657,23,-179,-74,71
647,-3790,7,180,-4657,23,-174,-75,71
648,-3788,0,177,-4662,23,-178,-73,71
649,-3792,6,175,-4667,23,-175,-78,71
650,-3790,5,205,-4666,23,-174,-76,71
651,-3802,-2,184,-4662,23,-176,-78,71
652,-3791,-1,194,-4661,23,-169,-79,73
653,-3793,5,193,-4667,23,-171,-78,68
654,-3797,4,186,-4664,23,-175,-79,70
655,-3794,-5,192,-4666,23,-173,-76,72
656,-3784,-4,193,-4663,23,-172,-74,69
657,-3789,-8,190,-4664,23,-174,-76,69
658,-3791,1,206,-4666,23,-175,-82,66
659,-3797,-5,183,-4659,23,-169,-74,72
660,-3802,-1,186,-4663,23,-178,-78,71
661,-3791,5,191,-4659,23,-178,-76,67
662,-3795,2,183,-4671,23,-180,-76,66
663,-3788,0,188,-4661,23,-175,-76,73
664,-3791,-5,187,-4660,23,-169,-79,69
665,-3790,-11,185,-4662,23,-175,-75,70
666,-3796,-17,201,-4673,23,-174,-77,70
667,-3792,3,203,-4665,23,-170,-76,71
668,-3790,-7,182,-4660,23,-175,-79,71
669,-3787,1,192,-4666,23,-171,-76,74
670,-3781,1,188,-4668,23,-175,-77,69
671,-3785,-6,181,-4669,23,-179,-78,69
672,-3798,-3,187,-4667,23,-178,-76,73
673,-3785,-4,196,-4664,23,-175,-72,73
674,-3790,-10,188,-4677,23,-174,-79,69
675,-3798,-12,188,-4665,23,-177,-71,68
676,-3792,-3,187,-4664,23,-175,-76,70
677,-3791,-3,191,-4664,23,-178,-77,71
678,-3780,-11,190,-4662,23,-176,-77,73
679,-3775,-8,189,-4660,23,-178,-78,70
680,-3777,3,182,-4662,23,-175,-79,67
681,-3788,-11,187,-4663,23,-175,-78,68
682,-3791,2,189,-4661,23,-172,-77,67
683,-3794,-4,188,-4666,23,-176,-75,72
684,-3782,9,196,-4668,23,-173,-75,73
685,-3791,-3,195,-4664,23,-171,-82,70
686,-3783,-2,199,-4660,23,-171,-79,67
687,-3789,-14,189,-4659,23,-172,-80,71
688,-3786,-6,194,-4663,23,-177,-77,73
689,-3779,-1,181,-4664,23,-179,-78,71
690,-3783,-2,182,-4673,23,-175,-77,69
691,-3798,11,169,-4661,23,-174,-78,69
692,-3788,-2,178,-4665,23,-175,-79,68
693,-3793,-3,189,-4664,23,-171,-79,68
694,-3788,-14,188,-4666,23,-172,-81,68
695,-3788,-5,183,-4665,23,-173,-73,69
696,-3787,1,182,-4667,23,-176,-76,65
697,-3778,-15,199,-4663,23,-174,-82,68
698,-3792,-8,191,-4669,23,-181,-71,70
699,-3787,-1,189,-4664,23,-179,-76,71
700,-3775,1,191,-4664,23,-178,-74,72
701,-3790,-3,197,-4663,23,-174,-74,71
702,-3777,-5,178,-4662,23,-176,-75,67
703,-3789,3,178,-4668,23,-178,-77,68
704,-3789,1,204,-4669,23,-171,-74,68
705,-3788,5,194,-4667,23,-177,-80,68
706,-3785,2,185,-4664,23,-176,-79,69
707,-3789,-6,172,-4667,23,-171,-75,68
708,-3791,-2,190,-4665,23,-172,-78,67
709,-3785,-3,181,-4663,23,-174,-78,73
710,-3793,-5,200,-4667,23,-172,-78,74
711,-3782,-2,195,-4666,23,-175,-77,72
712,-3785,-2,198,-4662,23,-172,-73,68
713,-3793,-7,188,-4670,23,-173,-84,71
714,-3791,4,191,-4662,23,-170,-74,70
715,-3782,-1,184,-4667,23,-175,-82,68
716,-3786,-3,187,-4661,23,-170,-77,71
717,-3783,-7,196,-4654,23,-181,-73,73
718,-3792,-4,196,-4663,23,-176,-72,71
719,-3790,8,170,-4668,23,-173,-76,72
720,-3797,-2,194,-4666,23,-175,-79,68
721,-3794,-4,173,-4664,23,-176,-75,70
722,-3797,2,175,-4658,23,-171,-75,71
723,-3794,-15,175,-4670,23,-169,-74,72
724,-3791,6,180,-4663,23,-172,-72,72
725,-3796,-4,185,-4661,23,-171,-72,71
726,-3791,-5,189,-4667,23,-173,-78,72
727,-3787,-14,191,-4660,23,-177,-75,73
728,-3784,-12,169,-4664,23,-173,-76,75
729,-3801,-1,171,-4670,23,-173,-81,69
730,-3788,-3,172,-4660,23,-179,-78,70
731,-3793,-3,189,-4662,23,-173,-78,70
732,-3799,0,167,-4659,23,-172,-79,71
733,-3782,-3,191,-4659,23,-174,-78,72
734,-3801,-14,192,-4661,23,-181,-79,71
735,-3780,-2,180,-4669,23,-181,-79,66
736,-3785,-6,204,-4668,23,-172,-81,71
737,-3787,-8,197,-4666,23,-177,-77,72
738,-3775,-1,192,-4668,23,-174,-75,73
739,-3786,-9,171,-4670,23,-174,-72,67
740,-3792,-4,173,-4666,23,-172,-79,66
741,-3799,0,175,-4675,23,-176,-79,70
742,-3792,-6,182,-4671,23,-176,-77,70
743,-3799,-10,185,-4658,23,-172,-74,72
744,-3791,-3,184,-4659,23,-167,-79,72
745,-3786,-1,175,-4668,23,-173,-77,68
746,-3780,-7,191,-4663,23,-177,-76,73
747,-3793,6,182,-4658,23,-170,-77,69
748,-3780,-13,198,-4667,23,-173,-80,68
749,-3797,5,198,-4669,23,-177,-76,70
750,-3789,-2,188,-4665,23,-173,-80,71
751,-3788,-3,192,-4665,23,-173,-82,72
752,-3783,-7,187,-4656,23,-169,-75,69
753,-3798,-8,200,-4664,23,-171,-73,72
754,-3790,-10,192,-4666,23,-179,-76,72
755,-3789,-4,194,-4665,23,-177,-76,71
756,-3787,-9,202,-4656,23,-176,-75,73
757,-3801,0,193,-4657,23,-173,-76,69
758,-3805,-12,181,-4663,23,-176,-74,72
759,-3801,-1,182,-4663,23,-174,-77,75
760,-3790,0,179,-4661,23,-175,-74,71
761,-3794,-2,196,-4654,23,-173,-73,69
762,-3795,-2,188,-4665,23,-174,-81,74
763,-3807,7,184,-4657,23,-171,-74,72
764,-3799,0,186,-4658,23,-172,-70,65
765,-3794,-6,187,-4664,23,-176,-77,71
766,-3787,4,202,-4670,23,-169,-83,71
767,-3794,-9,192,-4670,23,-175,-80,73
768,-3795,-9,184,-4665,23,-178,-78,73
769,-3791,-11,196,-4665,23,-177,-80,70
770,-3774,11,190,-4665,23,-175,-71,74
771,-3788,-5,185,-4664,23,-174,-78,69
772,-3790,-7,196,-4652,23,-174,-76,70
773,-3789,-8,185,-4663,23,-172,-78,70
774,-3779,-3,187,-4662,23,-175,-84,71
775,-3789,-4,192,-4658,23,-174,-79,69
776,-3794,2,197,-4660,23,-172,-75,69
777,-3793,-4,191,-4661,23,-179,-81,67
778,-3787,-1,188,-4656,23,-173,-84,69
779,-3793,-12,187,-4662,23,-175,-75,73
780,-3782,-11,180,-4657,23,-174,-82,70
781,-3796,-11,178,-4666,23,-174,-77,67
782,-3792,-5,180,-4663,23,-176,-77,67
783,-3777,-11,194,-4665,23,-175,-78,71
784,-3783,-5,198,-4669,23,-175,-76,71
785,-3793,13,195,-4662,23,-175,-74,71
786,-3790,-3,191,-4664,23,-178,-73,72
787,-3794,2,202,-4658,23,-178,-73,67
788,-3786,3,188,-4663,23,-179,-75,67
789,-3789,-19,195,-4653,23,-175,-74,69
790,-3784,-11,180,-4665,23,-174,-77,69
791,-3788,8,180,-4659,23,-177,-77,68
792,-3788,-9,194,-4659,23,-173,-76,69
793,-3779,-6,188,-4663,23,-172,-76,68
794,-3784,-10,191,-4663,23,-172,-78,69
795,-3782,6,175,-4658,23,-168,-76,69
796,-3785,-2,173,-4659,23,-174,-77,69
797,-3793,-9,188,-4660,23,-173,-76,68
798,-3790,-6,185,-4657,23,-174,-79,75
799,-3796,-6,184,-4665,23,-173,-85,71
800,-3792,-5,173,-4660,23,-173,-78,72
801,-3793,-7,197,-4658,23,-176,-74,71
802,-3796,4,178,-4662,23,-176,-75,73
803,-3794,2,166,-4662,23,-172,-77,71
804,-3802,-3,177,-4663,23,-180,-76,66
805,-3792,2,194,-4666,23,-178,-72,67
806,-3789,7,181,-4659,23,-176,-77,70
807,-3791,-6,186,-4667,23,-176,-77,72
808,-3784,0,174,-4658,23,-172,-79,71
809,-3785,-7,196,-4660,23,-173,-77,72
810,-3784,0,187,-4659,23,-173,-73,70
811,-3795,-9,194,-4665,23,-175,-79,70
812,-3783,-13,192,-4659,23,-175,-77,70
813,-3794,-11,196,-4658,23,-173,-70,68
814,-3798,-1,204,-4664,23,-172,-74,74
815,-3792,-13,184,-4657,23,-175,-76,69
816,-3779,2,200,-4664,23,-175,-78,73
817,-3790,-4,188,-4661,23,-174,-74,67
818,-3795,1,179,-4651,23,-173,-79,69
819,-3785,-3,176,-4658,23,-176,-74,70
820,-3793,-12,174,-4660,23,-172,-74,73
821,-3791,7,191,-4656,23,-174,-72,72
822,-3793,-1,183,-4658,23,-175,-79,72
823,-3791,-3,189,-4665,23,-172,-73,73
824,-3790,-10,180,-4650,23,-174,-79,69
825,-3787,1,191,-4660,23,-177,-81,69
826,-3781,-10,190,-4662,23,-176,-72,70
827,-3797,-10,200,-4649,23,-173,-76,68
828,-3787,-5,198,-4659,23,-179,-80,72
829,-3795,9,176,-4660,23,-179,-75,71
830,-3798,-5,181,-4663,23,-174,-76,75
831,-3799,-15,190,-4661,23,-178,-72,73
832,-3795,-2,178,-4662,23,-174,-78,70
833,-3775,3,170,-4662,23,-175,-77,68
834,-3792,6,177,-4658,23,-182,-75,71
835,-3792,-1,191,-4666,23,-176,-77,64
836,-3787,-9,177,-4658,23,-175,-77,72
837,-3785,3,186,-4659,23,-179,-80,75
838,-3800,2,181,-4665,23,-178,-81,69
839,-3795,-8,188,-4655,23,-174,-78,73
840,-3783,14,197,-4666,23,-176,-71,69
841,-3787,-2,195,-4669,23,-178,-77,70
842,-3782,-5,197,-4665,23,-174,-76,68
843,-3790,-2,178,-4659,23,-180,-75,69
844,-3792,2,191,-4653,23,-175,-80,67
845,-3791,7,202,-4654,23,-177,-73,72
846,-3792,7,191,-4651,23,-177,-75,71
847,-3784,-1,196,-4656,23,-180,-73,73
848,-3784,0,188,-4659,23,-175,-78,72
849,-3782,-13,181,-4665,23,-175,-82,65
850,-3786,-7,178,-4661,23,-178,-77,73
851,-3786,-2,178,-4667,23,-173,-76,68
852,-3783,-6,188,-4662,23,-174,-77,72
853,-3793,1,189,-4664,23,-177,-75,67
854,-3798,-12,185,-4667,23,-173,-77,69
855,-3787,-7,192,-4660,23,-173,-74,73
856,-3793,1,183,-4654,23,-178,-75,69
857,-3789,1,191,-4661,23,-175,-77,70
858,-3797,-3,195,-4656,23,-174,-78,68
859,-3802,-7,197,-4659,23,-175,-79,68
860,-3786,-5,198,-4672,23,-175,-76,66
861,-3797,-13,189,-4658,23,-177,-83,71
862,-3786,1,191,-4666,23,-180,-77,70
863,-3796,-11,191,-4665,23,-175,-76,75
864,-3790,-6,193,-4653,23,-173,-80,67
865,-3782,-1,187,-4662,23,-175,-74,68
866,-3794,0,191,-4663,23,-176,-70,68
867,-3793,-3,182,-4668,23,-175,-78,67
868,-3772,-12,173,-4664,23,-175,-79,71
869,-3786,1,193,-4657,23,-177,-77,70
870,-3790,1,176,-4658,23,-177,-84,65
871,-3787,-5,205,-4663,23,-174,-83,71
872,-3783,0,183,-4666,23,-175,-73,71
873,-3784,-14,175,-4668,23,-178,-76,71
874,-3800,3,177,-4665,23,-171,-81,68
875,-3792,3,182,-4659,23,-175,-81,70
876,-3787,-6,192,-4665,23,-174,-77,70
877,-3787,-9,194,-4668,23,-176,-79,69
878,-3790,-9,207,-4670,23,-178,-80,66
879,-3793,7,177,-4671,23,-181,-82,68
880,-3788,-6,190,-4663,23,-177,-78,70
881,-3783,11,193,-4660,23,-174,-75,72
882,-3784,-1,183,-4669,23,-177,-72,69
883,-3794,-2,181,-4663,23,-173,-76,72
884,-3792,-2,191,-4658,23,-176,-77,68
885,-3792,9,173,-4669,23,-179,-77,72
886,-3796,-1,190,-4665,23,-173,-69,66
887,-3792,-8,177,-4655,23,-175,-78,72
888,-3788,1,180,-4667,23,-174,-74,67
889,-3790,0,181,-4663,23,-176,-77,72
890,-3787,6,191,-4666,23,-175,-81,70
891,-3788,-4,187,-4666,23,-181,-81,74
892,-3780,8,179,-4658,23,-183,-73,73
893,-3792,-6,175,-4660,23,-175,-78,69
894,-3786,-2,173,-4658,23,-173,-76,70
895,-3780,-14,183,-4657,23,-171,-75,71
896,-3795,-8,184,-4660,23,-173,-76,69
897,-3778,-6,201,-4670,23,-175,-72,70
898,-3787,-8,189,-4664,23,-175,-76,70
899,-3786,-9,181,-4669,23,-175,-78,70
900,-3796,0,184,-4660,23,-175,-72,73
901,-3797,-5,186,-4652,23,-172,-76,65
902,-3784,-7,186,-4646,23,-176,-73,71
903,-3791,0,190,-4655,23,-177,-76,70
904,-3785,-6,188,-4656,23,-175,-73,70
905,-3784,-1,175,-4659,23,-174,-78,73
906,-3786,-14,186,-4666,23,-177,-76,72
907,-3783,-4,193,-4659,23,-170,-80,72
908,-3778,-7,194,-4656,23,-174,-71,70
909,-3792,-3,186,-4663,23,-174,-80,67
910,-3786,-10,176,-4660,23,-172,-80,70
911,-3783,-10,193,-4654,23,-179,-79,74
912,-3792,-4,184,-4653,23,-176,-75,73
913,-3792,-8,183,-4656,23,-169,-75,70
914,-3789,-2,191,-4667,23,-174,-81,72
915,-3787,5,191,-4666,23,-175,-75,72
916,-3779,-4,193,-4656,23,-172,-73,77
917,-3784,-7,190,-4662,23,-175,-77,76
918,-3794,-6,177,-4658,23,-178,-77,72
919,-3782,1,185,-4657,23,-177,-78,74
920,-3785,0,177,-4660,23,-174,-74,72
921,-3775,0,184,-4658,23,-175,-75,71
922,-3788,-21,189,-4657,23,-176,-80,68
923,-3800,-6,202,-4660,23,-173,-75,71
924,-3790,0,169,-4657,23,-175,-77,73
925,-3783,-4,187,-4660,23,-171,-74,75
926,-3790,4,190,-4654,23,-173,-82,68
927,-3777,2,184,-4664,23,-172,-75,72
928,-3786,-7,180,-4654,23,-172,-74,67
929,-3792,1,175,-4656,23,-171,-74,69
930,-3789,9,201,-4654,23,-174,-72,72
931,-3783,1,183,-4651,23,-172,-73,69
932,-3784,-3,190,-4655,23,-175,-73,69
933,-3790,12,175,-4658,23,-175,-78,73
934,-3798,7,185,-4656,23,-172,-72,70
935,-3794,1,201,-4653,23,-170,-76,63
936,-3788,-3,190,-4655,23,-180,-77,70
937,-3783,4,197,-4653,23,-175,-72,66
938,-3786,-4,190,-4660,23,-175,-77,66
939,-3781,-11,177,-4653,23,-171,-79,69
940,-3789,-6,198,-4657,23,-177,-79,69
941,-3790,-5,193,-4662,23,-175,-78,74
942,-3792,-12,185,-4663,23,-169,-76,70
943,-3787,1,180,-4663,23,-177,-77,73
944,-3793,-5,175,-4668,23,-179,-76,71
945,-3786,-2,194,-4665,23,-172,-75,69
946,-3787,-3,183,-4662,23,-177,-76,72
947,-3790,-14,189,-4657,23,-180,-79,70
948,-3790,-7,178,-4655,23,-173,-80,70
949,-3786,2,179,-4652,23,-176,-83,69
950,-3785,-6,188,-4657,23,-164,-76,75
951,-3797,-3,191,-4664,23,-168,-75,71
952,-3793,-1,186,-4661,23,-176,-75,71
953,-3784,-1,181,-4661,23,-175,-74,67
954,-3788,-9,194,-4659,23,-175,-77,72
955,-3785,-2,186,-4660,23,-172,-83,72
956,-3783,-14,185,-4661,23,-173,-80,71
957,-3802,-10,194,-4664,23,-174,-81,67
958,-3788,-8,182,-4659,23,-172,-72,72
959,-3780,-6,207,-4656,23,-174,-76,70
960,-3795,-1,203,-4655,23,-174,-77,67
961,-3790,1,187,-4663,23,-173,-76,65
962,-3789,-2,188,-4659,23,-174,-78,64
963,-3789,3,189,-4658,23,-175,-70,71
964,-3792,-9,200,-4660,23,-173,-81,71
965,-3791,-4,180,-4659,23,-175,-77,71
966,-3791,-4,200,-4655,23,-171,-79,71
967,-3784,-4,183,-4658,23,-170,-71,69
968,-3782,9,174,-4664,23,-174,-80,73
969,-3787,-6,199,-4662,23,-177,-75,71
970,-3798,-7,190,-4664,23,-175,-75,70
971,-3782,-3,196,-4656,23,-178,-72,67
972,-3798,3,172,-4659,23,-177,-74,66
973,-3789,1,190,-4655,23,-175,-76,72
974,-3787,-6,200,-4663,23,-170,-78,67
975,-3784,-3,189,-4662,23,-175,-77,68
976,-3780,-4,189,-4665,23,-173,-79,70
977,-3785,-19,187,-4664,23,-170,-75,72
978,-3802,-6,189,-4658,23,-174,-82,72
979,-3785,-3,189,-4653,23,-173,-75,73
980,-3802,-20,190,-4659,23,-176,-80,70
981,-3786,-9,186,-4655,23,-175,-76,74
982,-3779,-5,194,-4664,23,-175,-76,70
983,-3785,-7,188,-4656,23,-180,-75,66
984,-3785,0,197,-4663,23,-178,-71,65
985,-3798,-10,186,-4663,23,-169,-74,68
986,-3803,1,188,-4667,23,-177,-80,70
987,-3787,-1,196,-4657,23,-176,-72,75
988,-3784,1,175,-4660,23,-177,-75,72
989,-3788,0,191,-4662,23,-175,-84,66
990,-3793,3,197,-4659,23,-175,-79,71
991,-3785,-4,191,-4660,23,-176,-80,74
992,-3789,-5,184,-4651,23,-172,-75,71
993,-3793,1,197,-4664,23,-177,-79,71
994,-3802,-5,190,-4661,23,-176,-79,69
995,-3792,-7,190,-4655,23,-172,-82,72
996,-3788,-8,177,-4662,23,-176,-77,73
997,-3792,1,178,-4667,23,-175,-80,67
998,-3790,3,182,-4664,23,-176,-77,69
