,acc_X,acc_Y,acc_Z,temp,tempC,gyr_X,gyr_Y,gyr_Z
0,-1900,0,105,-4717,23,-86,-41,37
1,-1902,-1,96,-4711,23,-88,-37,38
2,-1896,-4,90,-4712,23,-86,-38,34
3,-1894,3,97,-4705,23,-90,-38,36
4,-1890,-3,95,-4714,23,-89,-43,34
5,-1890,-5,90,-4709,23,-87,-40,35
6,-1897,-1,94,-4703,23,-91,-39,35
7,-1891,-3,104,-4719,23,-89,-38,34
8,-1890,-4,99,-4711,23,-87,-38,36
9,-1896,-3,95,-4711,23,-86,-33,34
10,-1894,-2,94,-4703,23,-92,-37,39
11,-1894,3,94,-4718,23,-85,-39,36
12,-1888,-1,106,-4708,23,-89,-38,35
13,-1896,-8,86,-4711,23,-88,-36,35
14,-1886,-4,85,-4711,23,-87,-43,32
15,-1896,1,87,-4714,23,-86,-37,35
16,-1895,-4,96,-4710,23,-84,-40,35
17,-1893,-1,96,-4703,23,-86,-37,35
18,-1892,-6,100,-4710,23,-88,-37,35
19,-1895,1,99,-4709,23,-91,-41,34
20,-1900,-1,91,-4699,23,-86,-41,36
21,-1889,-2,91,-4717,23,-83,-37,33
22,-1897,-6,85,-4709,23,-84,-42,33
23,-1890,-3,100,-4703,23,-87,-41,33
24,-1887,-6,103,-4710,23,-88,-40,38
25,-1899,1,87,-4715,23,-86,-39,33
26,-1898,-3,102,-4708,23,-86,-38,34
27,-1897,-3,101,-4706,23,-86,-39,32
28,-1896,-1,85,-4715,23,-88,-37,35
29,-1897,-6,102,-4708,23,-86,-40,35
30,-1896,-9,87,-4713,23,-89,-39,37
31,-1900,-7,88,-4711,23,-89,-41,36
32,-1898,-3,98,-4712,23,-86,-41,35
33,-1897,2,96,-4704,23,-87,-39,37
34,-1887,1,97,-4709,23,-84,-38,34
35,-1896,-6,104,-4698,23,-83,-40,37
36,-1897,3,94,-4701,23,-86,-40,33
37,-1891,-4,97,-4722,23,-90,-35,35
38,-1896,2,86,-4716,23,-89,-38,37
39,-1894,5,101,-4715,23,-87,-34,34
40,-1893,-3,101,-4714,23,-87,-40,36
41,-1902,-7,89,-4716,23,-90,-39,34
42,-1895,-4,96,-4711,23,-87,-36,32
43,-1901,2,99,-4716,23,-88,-39,38
44,-1896,-5,100,-4713,23,-86,-38,38
45,-1891,-8,83,-4700,23,-87,-39,34
46,-1896,-1,94,-4709,23,-90,-40,33
47,-1897,-2,89,-4721,23,-86,-36,32
48,-1892,0,98,-4701,23,-87,-43,34
49,-1897,0,93,-4708,23,-90,-39,35
50,-1899,0,81,-4711,23,-90,-41,34
51,-1891,1,101,-4709,23,-86,-42,35
52,-1898,-1,87,-4713,23,-87,-38,34
53,-1891,-1,93,-4704,23,-84,-38,34
54,-1894,-3,91,-4707,23,-87,-40,33
55,-1886,-6,96,-4710,23,-88,-41,32
56,-1892,-3,85,-4709,23,-88,-37,36
57,-1895,-3,97,-4705,23,-87,-38,35
58,-1895,-4,87,-4700,23,-86,-38,35
59,-1897,3,110,-4712,23,-88,-38,31
60,-1891,2,91,-4714,23,-88,-42,33
61,-1896,-3,95,-4710,23,-87,-37,35
62,-1893,-4,83,-4708,23,-84,-43,35
63,-1897,-2,91,-4702,23,-87,-40,39
64,-1896,2,85,-4709,23,-87,-38,36
65,-1892,-10,107,-4705,23,-91,-38,33
66,-1896,1,99,-4708,23,-87,-36,34
67,-1895,0,99,-4697,23,-86,-38,32
68,-1895,-5,89,-4716,23,-85,-41,35
69,-1893,-9,87,-4711,23,-82,-39,34
70,-1892,-2,93,-4717,23,-87,-41,36
71,-1894,4,85,-4720,23,-89,-39,37
72,-1893,0,90,-4708,23,-90,-36,35
73,-1896,-1,87,-4706,23,-89,-38,32
74,-1895,-7,86,-4701,23,-90,-41,34
75,-1894,-4,92,-4711,23,-86,-41,36
76,-1894,2,92,-4706,23,-83,-38,33
77,-1892,-15,92,-4712,23,-87,-37,39
78,-1893,-5,85,-4704,23,-87,-40,35
79,-1891,-2,94,-4708,23,-88,-40,37
80,-1886,-1,87,-4704,23,-87,-40,32
81,-1899,-1,102,-4702,23,-85,-42,32
82,-1894,3,105,-4706,23,-86,-38,33
83,-1901,-3,105,-4700,23,-86,-40,34
84,-1902,2,87,-4709,23,-86,-35,33
85,-1902,4,95,-4699,23,-88,-39,32
86,-1899,-10,91,-4705,23,-88,-35,34
87,-1892,-3,88,-4707,23,-86,-38,35
88,-1894,-8,92,-4715,23,-88,-39,36
89,-1893,0,81,-4720,23,-87,-39,32
90,-1891,-5,99,-4706,23,-87,-38,37
91,-1897,-4,99,-4702,23,-83,-38,36
92,-1894,-2,91,-4724,23,-89,-42,34
93,-1898,-5,77,-4704,23,-89,-39,35
94,-1888,-8,92,-4706,23,-84,-39,34
95,-1892,-7,90,-4724,23,-87,-38,29
96,-1897,0,95,-4709,23,-83,-38,37
97,-1885,-3,96,-4705,23,-88,-38,36
98,-1891,-1,95,-4712,23,-89,-38,37
99,-1899,-8,100,-4714,23,-84,-38,34
100,-1886,-2,102,-4709,23,-83,-37,35
101,-1899,-12,90,-4706,23,-89,-38,32
102,-1898,-12,85,-4700,23,-88,-39,33
103,-1892,0,89,-4701,23,-87,-35,36
104,-1895,0,93,-4710,23,-88,-37,35
105,-1903,0,85,-4703,23,-86,-43,37
106,-1895,-6,97,-4712,23,-86,-36,36
107,-1897,-7,99,-4705,23,-84,-40,34
108,-1892,-11,100,-4701,23,-92,-37,37
109,-1892,-2,88,-4713,23,-87,-39,32
110,-1896,-7,90,-4701,23,-86,-34,34
111,-1896,-8,96,-4697,23,-89,-36,35
112,-1891,-7,95,-4704,23,-89,-37,33
113,-1891,-1,91,-4707,23,-88,-41,37
114,-1894,-4,85,-4703,23,-87,-38,34
115,-1889,-5,83,-4716,23,-90,-42,34
116,-1898,-9,91,-4703,23,-86,-38,35
117,-1897,-2,86,-4706,23,-85,-42,36
118,-1901,1,92,-4707,23,-87,-35,36
119,-1890,-5,92,-4712,23,-85,-41,35
120,-1904,5,90,-4704,23,-88,-38,36
121,-1898,-7,95,-4705,23,-85,-39,34
122,-1896,2,90,-4710,23,-86,-41,33
123,-1894,-2,87,-4712,23,-88,-38,36
124,-1899,-4,103,-4702,23,-90,-39,36
125,-1892,1,88,-4711,23,-89,-43,34
126,-1891,-4,100,-4711,23,-81,-40,36
127,-1894,-3,95,-4712,23,-88,-38,37
128,-1901,1,98,-4714,23,-85,-40,33
129,-1893,-5,84,-4715,23,-90,-38,35
130,-1902,-2,88,-4701,23,-86,-37,34
131,-1897,-4,94,-4697,23,-86,-39,37
132,-1895,-1,80,-4702,23,-90,-38,35
133,-1898,-1,87,-4709,23,-91,-42,35
134,-1891,-1,88,-4713,23,-87,-40,37
135,-1887,-6,100,-4707,23,-93,-41,33
136,-1901,4,85,-4705,23,-88,-35,35
137,-1894,-2,79,-4706,23,-87,-38,33
138,-1891,-3,97,-4709,23,-89,-40,33
139,-1892,5,88,-4719,23,-90,-40,34
140,-1894,-2,89,-4712,23,-88,-39,35
141,-1892,-2,107,-4716,23,-87,-40,32
142,-1897,1,92,-4710,23,-90,-41,31
143,-1894,0,94,-4710,23,-87,-39,35
144,-1900,-2,99,-4709,23,-87,-38,33
145,-1892,-12,96,-4710,23,-88,-40,34
146,-1896,-5,99,-4710,23,-87,-37,36
147,-1893,-5,98,-4700,23,-87,-38,34
148,-1896,-5,83,-4710,23,-85,-39,34
149,-1896,-9,99,-4711,23,-88,-37,36
150,-1897,-5,94,-4696,23,-88,-37,32
151,-1888,-4,89,-4707,23,-86,-39,35
152,-1894,-5,93,-4720,23,-84,-38,32
153,-1893,2,96,-4714,23,-88,-38,35
154,-1894,-2,89,-4713,23,-85,-37,32
155,-1902,8,88,-4711,23,-89,-37,33
156,-1891,1,95,-4704,23,-87,-36,35
157,-1898,-6,84,-4712,23,-90,-40,37
158,-1893,1,108,-4707,23,-90,-38,32
159,-1891,-5,86,-4711,23,-87,-40,34
160,-1893,-4,101,-4718,23,-84,-42,30
161,-1893,-7,104,-4699,23,-88,-40,36
162,-1899,0,99,-4710,23,-89,-36,37
163,-1891,-4,97,-4697,23,-87,-38,36
164,-1885,3,105,-4708,23,-86,-38,31
165,-1898,-8,89,-4697,23,-89,-40,33
166,-1893,-5,87,-4715,23,-86,-39,37
167,-1890,-2,97,-4702,23,-88,-36,31
168,-1895,-4,87,-4697,23,-88,-38,34
169,-1889,1,92,-4701,23,-89,-40,36
170,-1888,-7,102,-4702,23,-82,-40,36
171,-1892,0,104,-4703,23,-88,-41,34
172,-1897,5,90,-4714,23,-87,-38,30
173,-1888,-3,98,-4703,23,-85,-39,35
174,-1891,-7,103,-4707,23,-85,-40,32
175,-1891,-6,94,-4715,23,-87,-36,37
176,-1892,-4,95,-4715,23,-88,-37,34
177,-1889,1,91,-4710,23,-84,-39,35
178,-1901,1,91,-4711,23,-86,-40,35
179,-1893,-1,88,-4706,23,-86,-39,36
180,-1898,1,93,-4716,23,-86,-41,34
181,-1896,-3,102,-4710,23,-87,-37,36
182,-1891,-3,91,-4713,23,-88,-43,35
183,-1898,-4,85,-4712,23,-92,-41,32
184,-1895,-2,104,-4706,23,-88,-43,32
185,-1903,-1,89,-4713,23,-88,-40,32
186,-1897,-2,89,-4702,23,-89,-37,34
187,-1897,-6,85,-4702,23,-83,-38,33
188,-1899,0,99,-4710,23,-85,-41,33
189,-1897,-6,104,-4704,23,-85,-35,32
190,-1902,-5,99,-4712,23,-89,-37,34
191,-1890,-5,90,-4715,23,-90,-37,34
192,-1894,-5,92,-4702,23,-85,-43,32
193,-1898,-2,84,-4711,23,-91,-41,34
194,-1891,-6,90,-4714,23,-85,-42,37
195,-1894,-2,100,-4707,23,-86,-38,34
196,-1897,2,89,-4714,23,-87,-39,37
197,-1896,-6,90,-4710,23,-86,-38,36
198,-1891,-4,88,-4707,23,-86,-35,32
199,-1894,-1,79,-4706,23,-86,-38,38
200,-1892,-2,97,-4701,23,-88,-38,33
201,-1889,-4,89,-4719,23,-86,-40,32
202,-1894,1,87,-4709,23,-93,-38,36
203,-1901,-4,82,-4704,23,-84,-38,35
204,-1897,-9,96,-4712,23,-87,-38,33
205,-1888,-4,96,-4714,23,-87,-40,36
206,-1893,-3,109,-4708,23,-89,-36,34
207,-1891,-2,93,-4703,23,-90,-39,32
208,-1897,5,89,-4716,23,-88,-39,35
209,-1895,-5,77,-4712,23,-86,-38,34
210,-1889,-6,100,-4702,23,-86,-38,37
211,-1896,0,91,-4703,23,-85,-40,33
212,-1892,-6,96,-4703,23,-90,-39,31
213,-1893,1,93,-4718,23,-90,-40,37
214,-1888,-2,91,-4709,23,-88,-40,33
215,-1887,-3,95,-4711,23,-87,-39,36
216,-1896,0,84,-4705,23,-88,-38,35
217,-1893,-3,90,-4711,23,-81,-36,33
218,-1891,-1,99,-4694,23,-85,-40,33
219,-1899,-6,98,-4707,23,-90,-38,36
220,-1894,1,92,-4715,23,-84,-39,33
221,-1892,3,108,-4709,23,-89,-43,34
222,-1895,-5,99,-4711,23,-88,-38,34
223,-1898,-3,91,-4705,23,-87,-38,33
224,-1890,-2,103,-4702,23,-88,-41,35
225,-1895,6,101,-4705,23,-86,-40,34
226,-1895,-8,100,-4712,23,-87,-41,32
227,-1897,-4,92,-4712,23,-86,-40,35
228,-1897,-5,92,-4700,23,-86,-36,34
229,-1901,4,91,-4710,23,-89,-37,33
230,-1896,-7,90,-4704,23,-84,-41,34
231,-1894,-1,95,-4717,23,-87,-41,34
232,-1895,-6,96,-4704,23,-89,-38,34
233,-1894,-3,98,-4716,23,-88,-36,38
234,-1889,-6,96,-4704,23,-87,-41,34
235,-1892,-5,83,-4706,23,-88,-39,35
236,-1895,-2,95,-4701,23,-85,-40,37
237,-1897,-5,89,-4701,23,-85,-41,34
238,-1891,-5,102,-4706,23,-88,-38,39
239,-1894,-5,98,-4717,23,-86,-41,36
240,-1892,1,92,-4710,23,-82,-40,34
241,-1892,-6,91,-4711,23,-87,-39,37
242,-1896,-6,85,-4708,23,-84,-43,35
243,-1900,-9,96,-4707,23,-89,-39,36
244,-1890,0,89,-4697,23,-86,-44,35
245,-1897,-3,88,-4710,23,-88,-40,34
246,-1901,1,89,-4706,23,-87,-38,35
247,-1896,1,84,-4706,23,-89,-39,33
248,-1896,-2,100,-4706,23,-85,-38,32
249,-1899,6,94,-4711,23,-85,-39,39
250,-1892,-1,92,-4708,23,-85,-39,38
251,-1891,-5,94,-4698,23,-84,-39,36
252,-1895,-10,96,-4706,23,-90,-39,36
253,-1899,-1,97,-4707,23,-87,-41,37
254,-1892,-6,100,-4708,23,-88,-35,34
255,-1900,-1,102,-4713,23,-85,-37,34
256,-1894,-7,98,-4707,23,-87,-37,34
257,-1898,2,80,-4717,23,-86,-39,35
258,-1902,0,88,-4704,23,-90,-42,33
259,-1896,-1,86,-4713,23,-88,-37,37
260,-1893,-12,83,-4714,23,-84,-42,35
261,-1891,-9,97,-4712,23,-89,-37,31
262,-1894,-7,94,-4703,23,-88,-37,34
263,-1889,3,101,-4706,23,-86,-40,34
264,-1891,-9,99,-4699,23,-86,-40,36
265,-1894,-8,96,-4698,23,-88,-40,35
266,-1900,-5,91,-4710,23,-90,-37,35
267,-1898,3,95,-4703,23,-88,-36,34
268,-1898,-5,72,-4709,23,-88,-39,35
269,-1898,0,81,-4705,23,-86,-38,33
270,-1895,-4,78,-4710,23,-87,-43,34
271,-1895,0,88,-4705,23,-87,-42,36
272,-1894,-7,93,-4711,23,-90,-41,36
273,-1891,-11,86,-4705,23,-87,-38,36
274,-1894,1,92,-4704,23,-84,-41,36
275,-1905,2,97,-4707,23,-90,-37,36
276,-1891,-7,89,-4709,23,-89,-40,35
277,-1892,-1,90,-4700,23,-88,-41,32
278,-1896,6,95,-4708,23,-83,-36,36
279,-1886,-1,92,-4711,23,-89,-39,33
280,-1895,-3,91,-4699,23,-87,-37,34
281,-1899,-3,91,-4702,23,-89,-37,33
282,-1899,-1,96,-4700,23,-87,-37,34
283,-1894,-2,96,-4704,23,-87,-38,37
284,-1894,1,84,-4721,23,-89,-41,34
285,-1898,-4,89,-4707,23,-84,-37,35
286,-1899,1,92,-4711,23,-91,-39,34
287,-1897,-8,83,-4713,23,-86,-36,35
288,-1894,3,85,-4701,23,-83,-40,34
289,-1893,-1,86,-4704,23,-87,-37,33
290,-1896,3,88,-4698,23,-87,-40,33
291,-1892,-3,97,-4712,23,-88,-41,37
292,-1893,1,90,-4714,23,-88,-40,35
293,-1884,0,91,-4720,23,-86,-39,36
294,-1890,1,90,-4707,23,-87,-40,36
295,-1896,-2,86,-4701,23,-85,-39,35
296,-1894,-1,90,-4712,23,-85,-41,37
297,-1898,3,96,-4704,23,-89,-38,34
298,-1901,-4,89,-4712,23,-88,-42,35
299,-1890,2,93,-4709,23,-88,-42,37
300,-1898,2,88,-4710,23,-87,-39,36
301,-1897,-2,88,-4702,23,-87,-36,35
302,-1890,-6,98,-4706,23,-89,-37,35
303,-1896,-4,95,-4708,23,-87,-40,35
304,-1886,-5,93,-4698,23,-85,-40,37
305,-1891,-6,104,-4710,23,-85,-40,35
306,-1897,3,83,-4709,23,-89,-42,34
307,-1897,-1,90,-4702,23,-89,-36,29
308,-1890,-8,93,-4705,23,-84,-37,35
309,-1904,5,92,-4712,23,-86,-36,36
310,-1899,-13,86,-4709,23,-89,-43,31
311,-1890,-4,97,-4704,23,-83,-39,33
312,-1901,-5,94,-4720,23,-85,-39,35
313,-1887,-2,84,-4711,23,-87,-37,35
314,-1892,-4,93,-4703,23,-88,-38,32
315,-1891,-5,88,-4708,23,-84,-39,34
316,-1903,6,97,-4717,23,-91,-36,34
317,-1891,0,103,-4719,23,-88,-38,36
318,-1893,1,85,-4713,23,-87,-46,33
319,-1899,-4,96,-4714,23,-90,-38,36
320,-1890,2,100,-4711,23,-89,-40,32
321,-1896,-6,90,-4708,23,-89,-39,36
322,-1898,0,100,-4702,23,-84,-40,36
323,-1894,4,92,-4706,23,-89,-36,33
324,-1891,-8,96,-4706,23,-86,-41,32
325,-1894,-8,100,-4714,23,-83,-39,36
326,-1901,-6,104,-4694,23,-87,-37,31
327,-1894,6,93,-4714,23,-86,-38,33
328,-1899,-6,89,-4699,23,-86,-39,34
329,-1898,-1,94,-4708,23,-88,-40,35
330,-1904,-5,98,-4704,23,-85,-37,34
331,-1896,-9,97,-4714,23,-85,-40,34
332,-1886,2,84,-4707,23,-88,-38,34
333,-1895,4,92,-4700,23,-84,-38,37
334,-1895,-1,92,-4715,23,-85,-40,34
335,-1898,-1,94,-4702,23,-85,-38,34
336,-1887,3,97,-4709,23,-87,-34,35
337,-1895,6,82,-4707,23,-87,-38,36
338,-1896,5,81,-4706,23,-87,-39,39
339,-1899,3,95,-4702,23,-86,-42,35
340,-1891,2,98,-4709,23,-89,-41,36
341,-1892,-8,89,-4714,23,-86,-41,35
342,-1890,-8,87,-4711,23,-86,-41,35
343,-1898,-12,95,-4705,23,-91,-41,33
344,-1889,-3,91,-4700,23,-86,-39,33
345,-1894,-8,87,-4707,23,-85,-42,35
346,-1891,-4,91,-4712,23,-89,-40,35
347,-1897,-4,94,-4702,23,-88,-38,36
348,-1892,-5,87,-4704,23,-87,-38,39
349,-1886,-6,90,-4716,23,-87,-39,35
350,-1894,-8,98,-4703,23,-89,-38,34
351,-1893,2,79,-4713,23,-91,-41,35
352,-1896,-6,87,-4699,23,-89,-40,32
353,-1892,0,99,-4704,23,-85,-38,37
354,-1891,2,93,-4702,23,-85,-39,33
355,-1892,4,99,-4704,23,-85,-35,35
356,-1893,-2,80,-4712,23,-88,-40,35
357,-1892,-14,83,-4712,23,-87,-37,33
358,-1897,-6,95,-4710,23,-88,-37,35
359,-1896,-4,94,-4713,23,-89,-38,37
360,-1892,-3,86,-4702,23,-89,-39,35
361,-1900,-4,86,-4705,23,-86,-36,34
362,-1893,-5,91,-4706,23,-85,-40,36
363,-1889,4,98,-4713,23,-87,-41,33
364,-1890,-5,91,-4703,23,-88,-37,28
365,-1884,-2,94,-4701,23,-87,-42,35
366,-1892,-11,95,-4709,23,-84,-37,31
367,-1894,-1,95,-4703,23,-89,-39,33
368,-1895,-3,98,-4703,23,-84,-41,36
369,-1897,0,84,-4706,23,-87,-40,36
370,-1895,-2,98,-4714,23,-87,-35,37
371,-1898,-3,85,-4707,23,-85,-40,36
372,-1897,-6,102,-4702,23,-86,-42,33
373,-1889,2,85,-4702,23,-86,-38,38
374,-1886,-7,95,-4703,23,-87,-42,33
375,-1896,-10,86,-4705,23,-87,-41,32
376,-1897,-2,95,-4712,23,-87,-39,35
377,-1895,-3,89,-4698,23,-85,-42,38
378,-1893,-9,95,-4700,23,-87,-32,33
379,-1894,-5,93,-4704,23,-88,-38,33
380,-1891,0,103,-4702,23,-83,-41,36
381,-1890,-9,90,-4712,23,-87,-41,32
382,-1893,4,99,-4713,23,-87,-41,35
383,-1901,-4,93,-4712,23,-85,-41,36
384,-1890,-5,94,-4712,23,-84,-39,36
385,-1890,-6,104,-4709,23,-85,-39,32
386,-1893,-4,89,-4705,23,-88,-38,33
387,-1890,6,95,-4715,23,-87,-42,36
388,-1906,-5,91,-4714,23,-85,-40,34
389,-1895,3,93,-4706,23,-88,-36,36
390,-1893,-5,94,-4705,23,-88,-38,32
391,-1899,5,97,-4699,23,-88,-40,33
392,-1892,-6,98,-4705,23,-90,-42,34
393,-1896,-4,97,-4707,23,-89,-41,35
394,-1900,-10,92,-4708,23,-91,-41,35
395,-1895,1,94,-4712,23,-87,-39,34
396,-1892,-8,96,-4707,23,-88,-38,36
397,-1884,0,92,-4709,23,-88,-38,35
398,-1896,-2,97,-4712,23,-88,-37,35
399,-1897,-3,93,-4699,23,-87,-37,33
400,-1891,-6,85,-4704,23,-88,-37,33
401,-1897,-6,103,-4700,23,-85,-39,35
402,-1895,-2,103,-4708,23,-86,-36,36
403,-1903,-6,88,-4707,23,-89,-38,34
404,-1897,1,89,-4702,23,-86,-37,34
405,-1901,-13,93,-4707,23,-89,-37,34
406,-1903,0,95,-4701,23,-87,-39,35
407,-1888,1,108,-4714,23,-85,-41,35
408,-1894,-10,86,-4712,23,-89,-37,34
409,-1891,-2,93,-4705,23,-85,-40,36
410,-1905,-2,104,-4708,23,-87,-37,33
411,-1887,-12,83,-4705,23,-84,-39,33
412,-1896,-6,88,-4709,23,-90,-40,35
413,-1897,3,94,-4715,23,-84,-35,31
414,-1902,0,98,-4713,23,-87,-34,34
415,-1888,-7,93,-4705,23,-85,-43,37
416,-1895,-2,92,-4704,23,-86,-39,34
417,-1893,8,99,-4697,23,-87,-38,34
418,-1890,0,91,-4717,23,-86,-40,36
419,-1891,-6,96,-4701,23,-89,-38,33
420,-1890,-5,102,-4708,23,-90,-39,38
421,-1894,-2,88,-4703,23,-89,-39,38
422,-1893,-1,103,-4699,23,-84,-37,34
423,-1891,6,96,-4703,23,-90,-38,36
424,-1901,-5,94,-4706,23,-87,-40,36
425,-1896,-5,92,-4706,23,-86,-41,34
426,-1901,2,89,-4710,23,-91,-41,34
427,-1894,-6,90,-4712,23,-87,-39,33
428,-1895,2,95,-4697,23,-84,-46,35
429,-1897,-5,96,-4706,23,-88,-39,33
430,-1898,-5,97,-4706,23,-85,-39,36
431,-1894,-2,103,-4712,23,-88,-36,32
432,-1903,-3,106,-4710,23,-87,-40,34
433,-1903,-5,86,-4701,23,-89,-40,36
434,-1902,-1,96,-4708,23,-86,-39,35
435,-1894,-5,93,-4718,23,-87,-41,37
436,-1889,-2,96,-4705,23,-88,-40,32
437,-1899,1,101,-4704,23,-86,-37,35
438,-1893,1,95,-4710,23,-89,-40,31
439,-1887,-4,86,-4703,23,-85,-44,33
440,-1893,-7,100,-4709,23,-90,-39,35
441,-1894,-5,97,-4706,23,-87,-40,35
442,-1895,-4,98,-4713,23,-86,-39,35
443,-1896,-6,100,-4694,23,-89,-38,34
444,-1895,-10,94,-4710,23,-87,-38,34
445,-1887,3,98,-4712,23,-85,-41,32
446,-1890,-3,90,-4711,23,-86,-37,36
447,-1898,-1,98,-4715,23,-85,-40,35
448,-1896,-3,94,-4695,23,-83,-36,37
449,-1890,0,89,-4712,23,-88,-39,34
450,-1894,0,98,-4707,23,-88,-33,30
451,-1892,-1,100,-4705,23,-89,-39,36
452,-1898,-7,88,-4696,23,-83,-37,34
453,-1890,-11,97,-4713,23,-86,-37,33
454,-1889,-4,91,-4701,23,-87,-43,36
455,-1894,-11,88,-4696,23,-82,-35,33
456,-1893,-3,97,-4693,23,-91,-38,37
457,-1896,3,96,-4710,23,-89,-38,36
458,-1888,-5,88,-4708,23,-90,-37,36
459,-1897,7,103,-4707,23,-87,-37,35
460,-1900,1,96,-4701,23,-88,-38,34
461,-1893,-6,91,-4707,23,-91,-39,33
462,-1893,-4,87,-4716,23,-86,-38,34
463,-1896,2,96,-4705,23,-85,-39,33
464,-1896,5,88,-4711,23,-85,-40,34
465,-1896,-4,94,-4709,23,-87,-35,34
466,-1896,7,88,-4705,23,-85,-37,34
467,-1891,-5,104,-4715,23,-86,-38,36
468,-1890,-2,100,-4712,23,-88,-40,34
469,-1897,-6,90,-4707,23,-88,-43,37
470,-1890,-1,95,-4713,23,-89,-36,37
471,-1897,-3,96,-4707,23,-86,-40,36
472,-1896,-5,98,-4706,23,-83,-39,32
473,-1903,-4,102,-4703,23,-86,-42,34
474,-1889,0,86,-4699,23,-85,-37,36
475,-1888,-3,106,-4710,23,-84,-41,34
476,-1898,-4,89,-4696,23,-84,-37,36
477,-1892,-5,82,-4710,23,-88,-39,35
478,-1890,2,95,-4701,23,-87,-36,35
479,-1894,-4,98,-4714,23,-89,-37,34
480,-1894,-10,87,-4710,23,-87,-37,37
481,-1897,0,100,-4711,23,-89,-38,33
482,-1894,4,94,-4710,23,-86,-38,37
483,-1897,-2,93,-4704,23,-85,-41,38
484,-1900,1,90,-4700,23,-88,-34,34
485,-1900,3,97,-4709,23,-89,-36,34
486,-1892,-3,87,-4715,23,-87,-38,33
487,-1900,-6,95,-4707,23,-90,-44,34
488,-1893,-2,87,-4705,23,-90,-40,32
489,-1887,-9,102,-4707,23,-86,-40,36
490,-1893,-1,90,-4713,23,-83,-38,35
491,-1895,1,91,-4711,23,-84,-40,36
492,-1892,5,91,-4712,23,-86,-40,33
493,-1891,5,94,-4712,23,-89,-39,37
494,-1897,-1,88,-4696,23,-88,-41,33
495,-1893,2,100,-4703,23,-89,-40,36
496,-1896,-2,94,-4704,23,-87,-39,36
497,-1894,-1,97,-4708,23,-87,-39,33
498,-1895,-1,92,-4699,23,-89,-39,34
499,-1892,0,101,-4711,23,-88,-39,36
500,-1888,-6,106,-4707,23,-84,-37,33
501,-1894,5,96,-4701,23,-88,-37,36
502,-1891,2,94,-4707,23,-90,-38,34
503,-1894,-3,87,-4704,23,-88,-38,38
504,-1900,2,95,-4697,23,-87,-42,36
505,-1900,-7,89,-4700,23,-86,-41,32
506,-1889,-3,94,-4705,23,-86,-38,34
507,-1897,-1,85,-4698,23,-88,-37,35
508,-1893,1,92,-4716,23,-90,-42,34
509,-1892,-6,96,-4709,23,-87,-38,35
510,-1894,-4,93,-4704,23,-88,-37,33
511,-1895,-1,88,-4702,23,-88,-39,35
512,-1899,-8,100,-4704,23,-88,-40,36
513,-1901,-1,92,-4697,23,-87,-36,35
514,-1894,0,95,-4709,23,-85,-39,36
515,-1893,-1,85,-4711,23,-84,-36,34
516,-1896,-7,87,-4708,23,-89,-39,34
517,-1891,0,102,-4707,23,-86,-40,33
518,-1899,0,92,-4704,23,-85,-40,35
519,-1889,4,89,-4701,23,-88,-43,32
520,-1889,-3,88,-4705,23,-87,-40,34
521,-1893,-6,87,-4710,23,-87,-34,34
522,-1896,-9,90,-4705,23,-84,-39,36
523,-1896,1,86,-4700,23,-84,-40,36
524,-1895,-3,94,-4710,23,-86,-33,34
525,-1897,-6,98,-4704,23,-87,-42,35
526,-1896,3,89,-4705,23,-88,-38,35
527,-1896,-2,88,-4704,23,-89,-41,37
528,-1893,0,93,-4701,23,-87,-40,33
529,-1902,-7,81,-4704,23,-89,-41,35
530,-1890,-3,101,-4709,23,-89,-41,35
531,-1889,-5,95,-4716,23,-88,-41,35
532,-1900,-3,93,-4708,23,-85,-40,32
533,-1896,-3,83,-4697,23,-90,-38,34
534,-1887,-8,91,-4700,23,-88,-40,33
535,-1899,-3,92,-4716,23,-88,-37,36
536,-1896,-2,102,-4701,23,-88,-38,32
537,-1890,-2,85,-4703,23,-86,-37,28
538,-1893,-7,89,-4698,23,-91,-38,33
539,-1891,2,97,-4700,23,-88,-40,34
540,-1887,-1,96,-4704,23,-84,-43,34
541,-1890,0,97,-4703,23,-86,-38,36
542,-1890,4,88,-4705,23,-85,-39,35
543,-1888,5,94,-4703,23,-88,-39,37
544,-1900,-2,77,-4699,23,-89,-41,35
545,-1893,1,82,-4709,23,-87,-36,36
546,-1893,5,95,-4700,23,-90,-36,34
547,-1893,-3,96,-4706,23,-90,-40,34
548,-1898,-4,90,-4714,23,-87,-40,35
549,-1898,-4,97,-4708,23,-89,-42,34
550,-1892,-4,100,-4705,23,-88,-40,35
551,-1907,3,103,-4693,23,-85,-36,34
552,-1892,-1,92,-4699,23,-89,-40,37
553,-1893,5,92,-4714,23,-88,-37,32
554,-1899,-7,92,-4700,23,-88,-34,35
555,-1898,7,89,-4713,23,-89,-36,31
556,-1892,-8,94,-4710,23,-87,-40,36
557,-1896,1,88,-4702,23,-85,-39,35
558,-1896,-2,96,-4713,23,-87,-35,32
559,-1893,-6,99,-4702,23,-82,-38,33
560,-1889,-3,87,-4706,23,-89,-40,34
561,-1889,-8,95,-4701,23,-89,-40,36
562,-1896,-7,94,-4707,23,-87,-36,39
563,-1897,0,98,-4710,23,-88,-38,36
564,-1891,-2,92,-4700,23,-86,-35,34
565,-1888,12,98,-4703,23,-88,-39,35
566,-1895,-3,90,-4700,23,-86,-37,32
567,-1898,-1,89,-4697,23,-87,-37,38
568,-1900,-7,89,-4712,23,-91,-38,36
569,-1898,1,89,-4713,23,-88,-39,36
570,-1896,-7,91,-4707,23,-88,-38,32
571,-1895,-4,88,-4705,23,-86,-38,35
572,-1889,0,109,-4708,23,-85,-39,34
573,-1893,2,90,-4701,23,-87,-40,36
574,-1892,-9,98,-4707,23,-88,-40,32
575,-1888,-3,96,-4699,23,-88,-35,34
576,-1906,-2,96,-4704,23,-87,-40,34
577,-1898,-6,85,-4702,23,-91,-41,37
578,-1896,-4,97,-4698,23,-91,-38,35
579,-1896,0,91,-4703,23,-90,-38,33
580,-1894,2,86,-4703,23,-85,-38,39
581,-1896,-4,92,-4715,23,-88,-38,37
582,-1896,-1,95,-4690,23,-85,-41,33
583,-1900,-1,90,-4714,23,-86,-40,34
584,-1891,-5,88,-4703,23,-86,-37,38
585,-1894,-6,100,-4702,23,-87,-37,35
586,-1890,-3,85,-4701,23,-90,-41,36
587,-1890,4,94,-4693,23,-85,-41,38
588,-1896,2,98,-4700,23,-90,-45,35
589,-1894,-2,95,-4705,23,-86,-43,37
590,-1890,-7,92,-4704,23,-87,-37,33
591,-1888,-2,88,-4693,23,-88,-37,35
592,-1897,0,108,-4701,23,-86,-37,35
593,-1896,0,91,-4710,23,-86,-43,37
594,-1893,-2,92,-4707,23,-85,-37,34
595,-1889,4,89,-4706,23,-88,-37,32
596,-1890,-2,100,-4712,23,-84,-42,34
597,-1896,-4,100,-4707,23,-88,-38,35
598,-1888,-5,93,-4706,23,-88,-40,35
599,-1887,-3,93,-4700,23,-88,-37,37
600,-1897,-2,89,-4708,23,-87,-40,35
601,-1898,-1,94,-4707,23,-87,-41,34
602,-1895,-1,97,-4706,23,-86,-41,34
603,-1896,4,89,-4712,23,-88,-38,35
604,-1892,-4,89,-4701,23,-93,-36,34
605,-1893,-1,92,-4704,23,-89,-39,35
606,-1897,-5,85,-4704,23,-88,-37,35
607,-1897,2,89,-4711,23,-87,-38,34
608,-1894,-6,94,-4701,23,-88,-41,34
609,-1897,-4,79,-4706,23,-87,-37,37
610,-1902,3,90,-4706,23,-87,-39,36
611,-1894,-3,90,-4710,23,-87,-37,35
612,-1900,-4,95,-4704,23,-88,-41,37
613,-1891,-8,102,-4703,23,-87,-37,35
614,-1887,1,91,-4711,23,-85,-38,33
615,-1895,-2,93,-4709,23,-83,-39,35
616,-1894,0,92,-4703,23,-90,-41,36
617,-1891,-2,104,-4697,23,-89,-38,34
618,-1888,-9,84,-4709,23,-86,-41,33
619,-1901,-1,101,-4697,23,-85,-37,32
620,-1895,3,96,-4698,23,-87,-41,34
621,-1902,0,92,-4702,23,-89,-37,30
622,-1894,-4,108,-4705,23,-88,-34,34
623,-1894,4,93,-4701,23,-91,-41,34
624,-1894,-2,97,-4706,23,-84,-43,34
625,-1895,-3,88,-4708,23,-92,-37,36
626,-1895,0,88,-4710,23,-87,-40,36
627,-1892,-4,99,-4698,23,-87,-42,35
628,-1898,1,89,-4713,23,-89,-39,36
629,-1892,-2,100,-4710,23,-87,-42,35
630,-1897,2,92,-4711,23,-83,-44,36
631,-1897,-2,85,-4705,23,-85,-38,35
632,-1896,-4,99,-4704,23,-86,-40,37
633,-1896,-2,102,-4709,23,-86,-40,36
634,-1889,0,88,-4704,23,-87,-39,35
635,-1891,-2,93,-4703,23,-87,-41,37
636,-1898,-1,93,-4711,23,-87,-42,32
637,-1896,0,95,-4698,23,-88,-40,33
638,-1886,-1,84,-4705,23,-90,-41,37
639,-1902,-1,88,-4717,23,-83,-36,35
640,-1893,1,101,-4701,23,-91,-36,34
641,-1893,-7,82,-4710,23,-87,-38,34
642,-1898,0,83,-4698,23,-86,-37,34
643,-1893,-3,98,-4708,23,-88,-35,35
644,-1903,-4,87,-4701,23,-88,-39,34
645,-1897,-1,83,-4704,23,-90,-40,35
646,-1886,-10,97,-4692,23,-86,-36,34
647,-1897,-3,107,-4707,23,-87,-38,33
648,-1897,-3,93,-4712,23,-85,-40,34
649,-1896,-6,85,-4704,23,-87,-40,33
650,-1897,-7,90,-4697,23,-91,-36,34
651,-1901,0,103,-4713,23,-90,-39,32
652,-1898,1,102,-4697,23,-87,-38,36
653,-1892,-2,91,-4710,23,-89,-38,31
654,-1891,-6,97,-4714,23,-86,-37,36
655,-1896,-12,97,-4704,23,-85,-39,35
656,-1896,1,98,-4703,23,-86,-38,35
657,-1899,-1,85,-4693,23,-87,-38,35
658,-1893,2,99,-4707,23,-86,-37,33
659,-1898,-5,97,-4714,23,-87,-39,36
660,-1890,-3,85,-4700,23,-84,-37,33
661,-1896,0,107,-4710,23,-85,-36,33
662,-1889,-3,117,-4704,23,-89,-36,36
663,-1896,-6,85,-4711,23,-84,-38,34
664,-1894,-3,98,-4702,23,-83,-39,37
665,-1897,-11,86,-4697,23,-87,-40,34
666,-1888,1,81,-4712,23,-87,-39,40
667,-1888,-6,88,-4698,23,-88,-36,38
668,-1896,0,98,-4705,23,-85,-41,39
669,-1894,-2,92,-4703,23,-88,-36,33
670,-1897,-2,91,-4706,23,-90,-41,33
671,-1896,-1,99,-4699,23,-86,-38,35
672,-1900,-10,97,-4710,23,-87,-31,35
673,-1896,-10,99,-4712,23,-87,-39,35
674,-1891,-4,96,-4706,23,-86,-41,33
675,-1892,-4,87,-4708,23,-88,-38,33
676,-1892,4,98,-4703,23,-87,-39,36
677,-1894,1,85,-4711,23,-87,-39,38
678,-1890,2,99,-4707,23,-84,-36,34
679,-1900,-9,84,-4704,23,-87,-40,35
680,-1895,-3,99,-4697,23,-88,-40,34
681,-1903,0,85,-4705,23,-85,-41,34
682,-1889,1,92,-4705,23,-86,-37,38
683,-1886,-8,95,-4697,23,-88,-37,36
684,-1898,-3,95,-4708,23,-90,-38,36
685,-1893,-2,91,-4706,23,-87,-36,34
686,-1900,0,102,-4697,23,-88,-37,33
687,-1893,-1,97,-4708,23,-88,-40,38
688,-1889,1,97,-4714,23,-88,-35,35
689,-1893,-1,92,-4706,23,-86,-40,37
690,-1890,-2,87,-4691,23,-87,-36,35
691,-1898,-7,79,-4697,23,-86,-36,32
692,-1896,-3,89,-4707,23,-86,-40,35
693,-1894,-4,96,-4702,23,-86,-38,36
694,-1889,-4,82,-4705,23,-87,-39,32
695,-1894,-1,96,-4706,23,-87,-36,34
696,-1901,4,93,-4708,23,-86,-38,33
697,-1894,-7,103,-4705,23,-89,-44,36
698,-1897,1,89,-4706,23,-88,-40,35
699,-1896,-6,94,-4708,23,-87,-39,35
700,-1890,-4,80,-4707,23,-87,-38,31
701,-1896,1,94,-4699,23,-87,-37,32
702,-1899,-9,91,-4706,23,-86,-38,34
703,-1899,2,93,-4705,23,-88,-41,35
704,-1895,3,88,-4705,23,-86,-40,33
705,-1894,-9,95,-4705,23,-85,-41,35
706,-1895,-7,94,-4706,23,-90,-37,36
707,-1894,-6,91,-4706,23,-87,-35,36
708,-1896,-4,92,-4706,23,-87,-40,33
709,-1898,-5,100,-4698,23,-84,-36,34
710,-1895,1,93,-4697,23,-86,-38,32
711,-1892,-4,93,-4700,23,-88,-39,35
712,-1891,1,88,-4705,23,-88,-44,36
713,-1893,-3,97,-4700,23,-84,-41,33
714,-1888,-4,92,-4701,23,-90,-39,36
715,-1894,-1,89,-4715,23,-87,-39,35
716,-1894,-4,98,-4699,23,-87,-37,34
717,-1897,-3,97,-4699,23,-85,-40,34
718,-1887,-6,83,-4695,23,-87,-35,33
719,-1896,2,90,-4705,23,-92,-41,38
720,-1904,1,86,-4699,23,-87,-37,35
721,-1896,-7,81,-4705,23,-86,-36,34
722,-1892,-9,83,-4706,23,-89,-38,36
723,-1894,-4,93,-4706,23,-87,-38,35
724,-1890,-7,94,-4709,23,-88,-41,32
725,-1898,2,81,-4696,23,-90,-39,37
726,-1891,-4,87,-4695,23,-87,-38,34
727,-1891,1,95,-4700,23,-90,-41,35
728,-1895,1,94,-4704,23,-87,-35,33
729,-1894,-4,88,-4716,23,-88,-41,37
730,-1889,2,90,-4700,23,-88,-39,36
731,-1897,-2,91,-4705,23,-87,-38,37
732,-1899,-4,93,-4705,23,-85,-37,35
733,-1892,3,90,-4701,23,-90,-40,35
734,-1893,-3,95,-4698,23,-87,-39,33
735,-1898,2,92,-4700,23,-87,-43,37
736,-1904,-8,87,-4705,23,-88,-37,37
737,-1894,-3,94,-4697,23,-87,-36,36
738,-1901,6,92,-4710,23,-86,-37,34
739,-1892,-4,109,-4719,23,-88,-39,36
740,-1893,-3,103,-4695,23,-90,-42,30
741,-1889,-4,101,-4704,23,-89,-36,33
742,-1892,-4,93,-4703,23,-89,-39,34
743,-1891,-5,92,-4701,23,-90,-37,30
744,-1888,-1,88,-4700,23,-85,-38,34
745,-1890,-1,101,-4703,23,-85,-40,35
746,-1896,2,89,-4696,23,-90,-38,31
747,-1893,-2,85,-4704,23,-88,-39,35
748,-1893,-4,96,-4703,23,-88,-38,35
749,-1892,-6,101,-4704,23,-88,-39,32
750,-1898,-9,97,-4700,23,-89,-41,34
751,-1892,-1,90,-4701,23,-90,-34,36
752,-1896,-3,104,-4703,23,-86,-42,36
753,-1898,-9,98,-4704,23,-88,-39,35
754,-1894,-3,92,-4696,23,-86,-44,34
755,-1903,3,107,-4706,23,-87,-40,36
756,-1898,3,87,-4703,23,-89,-36,36
757,-1897,-3,105,-4707,23,-86,-42,36
758,-1896,-1,91,-4696,23,-87,-37,39
759,-1892,-3,89,-4702,23,-86,-37,31
760,-1896,-6,96,-4685,23,-85,-40,36
761,-1896,3,91,-4705,23,-90,-41,33
762,-1899,6,98,-4701,23,-87,-38,33
763,-1891,2,98,-4697,23,-87,-40,36
764,-1901,1,93,-4694,23,-87,-37,35
765,-1898,-4,90,-4704,23,-88,-39,35
766,-1903,-2,93,-4698,23,-87,-40,34
767,-1898,1,91,-4709,23,-89,-40,35
768,-1899,1,92,-4695,23,-87,-37,36
769,-1893,3,94,-4701,23,-87,-39,32
770,-1900,-3,98,-4701,23,-87,-37,34
771,-1896,0,100,-4699,23,-86,-36,32
772,-1897,-5,96,-4701,23,-86,-39,36
773,-1896,1,102,-4702,23,-90,-44,37
774,-1898,-1,98,-4703,23,-85,-38,35
775,-1886,-8,97,-4705,23,-85,-36,38
776,-1900,6,94,-4709,23,-88,-41,35
777,-1897,-8,101,-4703,23,-86,-38,36
778,-1899,3,95,-4693,23,-88,-38,36
779,-1896,2,105,-4690,23,-88,-39,34
780,-1894,2,91,-4701,23,-88,-35,36
781,-1886,0,92,-4693,23,-90,-41,35
782,-1901,-2,89,-4698,23,-86,-38,35
783,-1903,-7,87,-4702,23,-86,-41,33
784,-1898,-4,104,-4703,23,-86,-38,33
785,-1894,-2,88,-4704,23,-83,-39,38
786,-1893,-3,97,-4703,23,-85,-35,39
787,-1894,-4,84,-4706,23,-88,-39,35
788,-1898,-4,90,-4703,23,-84,-37,34
789,-1892,-7,93,-4700,23,-87,-39,35
790,-1897,-3,83,-4695,23,-84,-42,36
791,-1887,-2,101,-4704,23,-89,-42,34
792,-1901,-5,86,-4697,23,-88,-39,36
793,-1887,0,102,-4708,23,-83,-37,36
794,-1892,1,91,-4701,23,-90,-40,35
795,-1896,-1,93,-4707,23,-84,-40,35
796,-1900,-6,83,-4699,23,-86,-41,36
797,-1890,-1,95,-4703,23,-88,-41,35
798,-1894,-5,86,-4706,23,-87,-40,34
799,-1902,-6,88,-4705,23,-84,-39,35
800,-1891,-2,89,-4700,23,-87,-36,32
801,-1895,-4,87,-4707,23,-83,-36,36
802,-1896,1,97,-4708,23,-86,-37,34
803,-1899,0,98,-4694,23,-89,-41,32
804,-1895,-3,95,-4713,23,-83,-38,34
805,-1894,-5,100,-4705,23,-89,-34,35
806,-1899,-10,96,-4704,23,-86,-37,34
807,-1892,-6,94,-4717,23,-86,-36,36
808,-1900,2,93,-4706,23,-87,-39,32
809,-1894,-4,105,-4707,23,-85,-45,32
810,-1889,-3,89,-4707,23,-88,-42,34
811,-1891,-2,93,-4709,23,-89,-39,32
812,-1891,2,95,-4708,23,-85,-40,37
813,-1904,5,85,-4700,23,-89,-37,32
814,-1900,-5,97,-4708,23,-87,-38,37
815,-1892,1,91,-4700,23,-85,-42,34
816,-1892,6,92,-4708,23,-87,-43,33
817,-1897,-6,87,-4698,23,-88,-39,37
818,-1895,1,92,-4707,23,-87,-40,33
819,-1896,-1,98,-4705,23,-90,-41,34
820,-1897,-4,95,-4708,23,-86,-39,35
821,-1893,-9,99,-4701,23,-87,-36,33
822,-1896,-5,88,-4701,23,-88,-40,35
823,-1893,0,97,-4703,23,-87,-37,34
824,-1902,-3,99,-4701,23,-86,-39,35
825,-1894,-2,95,-4699,23,-89,-38,36
826,-1895,-4,99,-4703,23,-89,-38,34
827,-1884,-2,95,-4706,23,-87,-37,35
828,-1902,0,91,-4703,23,-85,-37,32
829,-1905,-7,97,-4700,23,-82,-37,34
830,-1896,3,95,-4696,23,-90,-39,35
831,-1889,-3,89,-4716,23,-90,-41,33
832,-1891,1,103,-4703,23,-86,-41,31
833,-1894,-5,78,-4701,23,-85,-38,34
834,-1900,-9,95,-4704,23,-85,-39,35
835,-1890,-2,96,-4697,23,-88,-37,37
836,-1898,-5,100,-4695,23,-93,-37,33
837,-1893,-4,90,-4704,23,-87,-39,34
838,-1895,-1,90,-4708,23,-87,-39,35
839,-1894,-1,88,-4697,23,-88,-43,36
840,-1894,-3,92,-4695,23,-90,-41,33
841,-1893,5,94,-4711,23,-88,-42,31
842,-1896,-2,85,-4702,23,-90,-40,33
843,-1897,1,82,-4700,23,-88,-39,32
844,-1887,-4,93,-4696,23,-89,-40,36
845,-1894,-4,84,-4699,23,-86,-42,33
846,-1898,-17,89,-4705,23,-88,-38,34
847,-1893,-6,94,-4695,23,-87,-40,35
848,-1897,-12,82,-4700,23,-87,-38,34
849,-1894,-3,92,-4695,23,-87,-41,30
850,-1894,-3,85,-4705,23,-89,-35,36
851,-1895,-4,95,-4702,23,-87,-37,36
852,-1898,-9,91,-4703,23,-88,-38,34
853,-1891,-1,96,-4698,23,-87,-37,35
854,-1894,-6,100,-4695,23,-87,-44,35
855,-1892,2,97,-4699,23,-88,-43,35
856,-1893,-7,91,-4698,23,-91,-40,36
857,-1901,-1,97,-4707,23,-85,-41,33
858,-1896,-3,99,-4692,23,-86,-39,35
859,-1900,-4,94,-4701,23,-88,-41,33
860,-1897,-7,95,-4698,23,-87,-40,35
861,-1888,-6,104,-4699,23,-87,-37,32
862,-1899,-1,89,-4710,23,-83,-39,35
863,-1891,-1,98,-4695,23,-86,-38,38
864,-1890,2,102,-4699,23,-86,-37,34
865,-1891,5,87,-4703,23,-88,-38,36
866,-1895,2,99,-4700,23,-90,-39,40
867,-1889,2,97,-4707,23,-88,-38,35
868,-1892,-1,88,-4709,23,-86,-38,33
869,-1907,-3,93,-4713,23,-85,-38,36
870,-1894,-3,86,-4698,23,-86,-39,33
871,-1900,8,93,-4696,23,-87,-36,35
872,-1891,-3,98,-4699,23,-91,-38,32
873,-1894,3,92,-4704,23,-89,-40,36
874,-1896,-4,87,-4703,23,-90,-40,39
875,-1897,0,88,-4700,23,-87,-38,34
876,-1892,-4,79,-4708,23,-87,-36,35
877,-1898,-5,92,-4705,23,-89,-37,36
878,-1897,0,97,-4692,23,-88,-40,36
879,-1894,2,94,-4700,23,-87,-38,34
880,-1890,-5,87,-4705,23,-85,-37,36
881,-1889,-4,92,-4702,23,-85,-38,33
882,-1894,3,97,-4689,23,-85,-40,34
883,-1902,-10,87,-4705,23,-88,-37,34
884,-1894,-8,92,-4707,23,-86,-42,34
885,-1894,-4,93,-4700,23,-88,-36,35
886,-1894,1,96,-4698,23,-81,-42,34
887,-1897,-13,91,-4705,23,-86,-42,33
888,-1896,4,90,-4697,23,-89,-38,34
889,-1893,4,103,-4712,23,-87,-43,34
890,-1897,2,91,-4700,23,-87,-38,32
891,-1895,6,91,-4711,23,-88,-37,33
892,-1894,-5,96,-4691,23,-84,-40,36
893,-1892,-3,86,-4695,23,-87,-41,36
894,-1901,-8,81,-4694,23,-85,-38,33
895,-1899,-4,97,-4701,23,-86,-39,38
896,-1904,-6,96,-4700,23,-86,-39,32
897,-1891,-3,90,-4702,23,-85,-38,32
898,-1895,-2,87,-4703,23,-88,-40,36
899,-1902,-7,101,-4702,23,-87,-41,37
900,-1894,5,91,-4697,23,-85,-38,33
901,-1901,0,102,-4707,23,-88,-38,32
902,-1893,2,85,-4701,23,-85,-36,34
903,-1890,4,97,-4702,23,-86,-37,34
904,-1891,-2,83,-4704,23,-86,-35,34
905,-1902,0,97,-4702,23,-89,-38,34
906,-1898,4,96,-4703,23,-84,-40,35
907,-1888,-3,88,-4691,23,-88,-38,35
908,-1895,-2,86,-4697,23,-91,-38,38
909,-1895,4,97,-4690,23,-87,-38,37
910,-1891,-7,90,-4701,23,-88,-39,34
911,-1899,7,95,-4694,23,-87,-36,34
912,-1895,-1,97,-4698,23,-86,-37,35
913,-1896,1,97,-4695,23,-88,-38,31
914,-1894,-4,89,-4714,23,-87,-43,34
915,-1899,2,91,-4705,23,-89,-37,37
916,-1886,-6,91,-4701,23,-87,-43,33
917,-1895,-5,99,-4703,23,-87,-41,36
918,-1894,-5,93,-4708,23,-89,-39,36
919,-1894,-12,101,-4701,23,-85,-40,34
920,-1897,5,99,-4695,23,-84,-42,34
921,-1901,-1,91,-4699,23,-84,-34,33
922,-1896,-8,89,-4692,23,-89,-40,37
923,-1900,-10,95,-4707,23,-89,-36,34
924,-1891,-4,87,-4696,23,-87,-37,33
925,-1890,-4,99,-4705,23,-84,-41,35
926,-1895,-1,96,-4697,23,-87,-37,30
927,-1899,0,93,-4697,23,-91,-39,33
928,-1890,-2,92,-4695,23,-87,-37,37
929,-1889,-5,98,-4698,23,-88,-37,34
930,-1893,-3,92,-4709,23,-87,-34,30
931,-1903,-8,98,-4701,23,-87,-36,37
932,-1897,-3,103,-4690,23,-83,-37,33
933,-1900,-3,100,-4709,23,-84,-40,35
934,-1897,-1,97,-4692,23,-84,-42,34
935,-1907,-10,97,-4702,23,-86,-40,35
936,-1892,-10,91,-4703,23,-89,-34,36
937,-1893,-7,98,-4688,23,-84,-39,35
938,-1894,0,88,-4699,23,-89,-40,38
939,-1891,-4,89,-4708,23,-86,-40,35
940,-1893,1,94,-4697,23,-85,-37,35
941,-1892,1,94,-4699,23,-86,-38,36
942,-1892,-2,85,-4701,23,-87,-42,36
943,-1889,-8,98,-4713,23,-87,-42,33
944,-1890,-2,92,-4702,23,-88,-36,38
945,-1892,2,95,-4698,23,-87,-42,33
946,-1892,4,98,-4697,23,-90,-40,35
947,-1895,-6,89,-4703,23,-86,-39,36
948,-1903,0,102,-4708,23,-89,-37,33
949,-1886,5,93,-4693,23,-91,-40,34
950,-1897,-13,96,-4695,23,-86,-38,32
951,-1889,5,92,-4703,23,-85,-39,36
952,-1893,0,98,-4689,23,-88,-40,32
953,-1887,1,94,-4700,23,-90,-42,32
954,-1895,8,94,-4702,23,-88,-41,36
955,-1904,-1,100,-4696,23,-87,-37,34
956,-1898,-2,91,-4692,23,-83,-39,35
957,-1892,-12,87,-4698,23,-88,-43,33
958,-1892,-3,99,-4705,23,-87,-42,35
959,-1890,8,96,-4698,23,-87,-36,31
960,-1893,-3,102,-4699,23,-85,-38,37
961,-1891,-7,84,-4697,23,-85,-41,36
962,-1893,4,98,-4713,23,-86,-40,35
963,-1892,5,86,-4707,23,-89,-41,36
964,-1895,0,84,-4702,23,-87,-36,34
965,-1897,1,93,-4701,23,-92,-41,34
966,-1890,-6,87,-4702,23,-90,-36,34
967,-1897,-2,87,-4709,23,-86,-36,35
968,-1895,-5,89,-4706,23,-89,-41,38
969,-1893,-2,87,-4710,23,-86,-42,36
970,-1894,-5,90,-4701,23,-87,-40,37
971,-1895,-6,93,-4710,23,-84,-40,36
972,-1889,-2,103,-4689,23,-86,-42,34
973,-1900,1,91,-4697,23,-86,-38,35
974,-1888,-6,99,-4703,23,-85,-40,33
975,-1893,2,102,-4698,23,-87,-43,35
976,-1895,-8,94,-4692,23,-85,-42,34
977,-1898,2,104,-4706,23,-87,-38,36
978,-1894,3,96,-4709,23,-88,-42,35
979,-1893,-4,99,-4706,23,-85,-37,35
980,-1893,-6,89,-4703,23,-90,-36,37
981,-1900,-8,89,-4702,23,-83,-40,33
982,-1894,-5,93,-4693,23,-90,-37,34
983,-1903,-6,89,-4691,23,-87,-37,33
984,-1890,1,93,-4705,23,-88,-43,33
985,-1896,3,104,-4695,23,-88,-41,34
986,-1896,-1,96,-4697,23,-86,-39,37
987,-1889,-7,89,-4701,23,-87,-37,38
988,-1891,-2,98,-4695,23,-86,-41,34
989,-1894,-4,93,-4702,23,-87,-38,38
990,-1897,1,95,-4696,23,-88,-38,33
991,-1890,-8,86,-4698,23,-87,-41,30
992,-1891,-3,92,-4695,23,-87,-40,35
993,-1892,-2,97,-4701,23,-88,-39,35
994,-1898,3,90,-4703,23,-89,-40,32
995,-1891,0,89,-4701,23,-87,-42,38
996,-1896,-5,95,-4701,23,-87,-38,34
997,-1891,0,90,-4703,23,-86,-37,33
998,-1891,2,93,-4695,23,-85,-36,37
999,-1901,2,94,-4703,23,-88,-39,31
