,acc_X,acc_Y,acc_Z,temp,tempC,gyr_X,gyr_Y,gyr_Z
0,-15168,-22,772,-4576,23,-172,-77,70
1,-15146,-22,778,-4575,23,-172,-75,69
2,-15140,-32,758,-4574,23,-173,-74,69
3,-15130,-24,730,-4574,23,-174,-76,70
4,-15142,-14,742,-4573,23,-174,-77,72
5,-15146,-4,748,-4569,23,-173,-78,71
6,-15138,-8,748,-4572,23,-175,-78,72
7,-15152,-28,734,-4572,23,-175,-77,72
8,-15150,-18,722,-4571,23,-176,-78,70
9,-15146,-26,746,-4570,23,-177,-79,71
10,-15150,-10,796,-4572,23,-175,-79,70
11,-15146,-12,822,-4570,23,-177,-80,69
12,-15164,-20,810,-4570,23,-178,-79,69
13,-15156,-4,792,-4573,23,-176,-77,70
14,-15162,2,772,-4574,23,-176,-78,72
15,-15176,0,758,-4571,23,-174,-76,70
16,-15188,2,780,-4570,23,-175,-77,70
17,-15172,-4,760,-4577,23,-173,-77,69
18,-15152,-16,742,-4575,23,-172,-76,70
19,-15134,-2,722,-4573,23,-172,-76,70
20,-15128,-6,728,-4574,23,-172,-74,70
21,-15148,-10,724,-4572,23,-174,-76,69
22,-15168,-16,744,-4571,23,-174,-78,70
23,-15168,-2,748,-4573,23,-176,-77,70
24,-15126,-2,728,-4574,23,-175,-78,69
25,-15130,-8,752,-4574,23,-178,-78,69
26,-15136,0,734,-4574,23,-178,-78,67
27,-15150,8,754,-4572,23,-177,-79,67
28,-15150,4,758,-4572,23,-176,-80,67
29,-15162,-12,754,-4575,23,-173,-77,68
30,-15166,-10,752,-4576,23,-172,-78,69
31,-15172,-8,750,-4576,23,-175,-77,69
32,-15166,-18,744,-4576,23,-173,-76,66
33,-15166,-16,748,-4575,23,-175,-78,69
34,-15148,-24,762,-4576,23,-176,-80,68
35,-15146,-14,782,-4573,23,-175,-79,67
36,-15128,-16,754,-4569,23,-175,-79,68
37,-15120,-28,760,-4572,23,-176,-77,69
38,-15144,-22,740,-4571,23,-178,-78,69
39,-15150,-28,738,-4572,23,-176,-80,69
40,-15160,-24,758,-4570,23,-176,-80,70
41,-15152,-22,774,-4570,23,-177,-81,71
42,-15156,-8,762,-4571,23,-175,-79,70
43,-15162,-34,762,-4574,23,-174,-78,69
44,-15142,-14,746,-4572,23,-175,-77,71
45,-15152,4,752,-4577,23,-174,-75,71
46,-15156,4,760,-4574,23,-174,-75,71
47,-15160,24,780,-4574,23,-173,-76,69
48,-15150,0,794,-4571,23,-173,-77,72
49,-15160,-8,774,-4573,23,-172,-76,71
50,-15184,-16,786,-4570,23,-175,-78,70
51,-15172,-8,788,-4573,23,-174,-77,69
52,-15166,8,772,-4570,23,-177,-76,70
53,-15148,0,766,-4569,23,-175,-78,69
54,-15144,-20,762,-4572,23,-175,-79,69
55,-15168,-8,756,-4570,23,-176,-83,68
56,-15152,2,760,-4571,23,-174,-79,69
57,-15162,-12,768,-4572,23,-175,-79,68
58,-15160,-2,774,-4574,23,-177,-81,68
59,-15154,-18,776,-4571,23,-175,-80,68
60,-15152,-26,774,-4571,23,-176,-78,68
61,-15140,-2,786,-4572,23,-175,-78,67
62,-15150,-26,772,-4568,23,-172,-78,68
63,-15184,-24,776,-4571,23,-175,-76,68
64,-15172,-28,774,-4574,23,-175,-78,68
65,-15162,-18,764,-4575,23,-176,-79,69
66,-15164,4,762,-4573,23,-175,-78,68
67,-15142,0,766,-4574,23,-173,-78,71
68,-15142,-20,754,-4574,23,-173,-77,71
69,-15130,-22,746,-4571,23,-175,-76,70
70,-15146,-22,768,-4574,23,-173,-75,70
71,-15136,-22,758,-4578,23,-175,-77,69
72,-15128,-28,756,-4578,23,-175,-77,69
73,-15142,-20,742,-4575,23,-174,-78,70
74,-15122,-18,766,-4575,23,-172,-76,70
75,-15138,-6,758,-4576,23,-172,-80,70
76,-15132,-6,778,-4571,23,-172,-78,72
77,-15146,-16,776,-4571,23,-173,-76,71
78,-15140,0,756,-4572,23,-174,-78,69
79,-15154,8,768,-4574,23,-173,-76,70
80,-15162,10,766,-4574,23,-174,-77,68
81,-15162,8,762,-4573,23,-175,-75,67
82,-15144,-2,768,-4572,23,-175,-76,68
83,-15152,-20,742,-4571,23,-175,-75,66
84,-15152,-4,730,-4570,23,-177,-76,69
85,-15158,-10,728,-4568,23,-172,-77,69
86,-15160,8,750,-4570,23,-171,-78,69
87,-15146,4,744,-4571,23,-173,-79,69
88,-15154,-6,758,-4568,23,-176,-78,69
89,-15144,2,738,-4568,23,-176,-77,68
90,-15144,-4,738,-4572,23,-177,-79,70
91,-15132,-8,744,-4572,23,-177,-80,69
92,-15142,-8,754,-4570,23,-176,-81,70
93,-15148,0,772,-4572,23,-178,-79,69
94,-15164,6,758,-4574,23,-177,-77,70
95,-15164,0,746,-4573,23,-175,-77,70
96,-15174,-10,762,-4573,23,-175,-77,70
97,-15172,-12,764,-4574,23,-172,-77,72
98,-15166,2,768,-4577,23,-173,-77,70
99,-15162,12,772,-4573,23,-174,-78,70
100,-15166,0,790,-4573,23,-174,-79,69
101,-15154,-8,774,-4575,23,-172,-79,70
102,-15132,-8,758,-4578,23,-173,-79,69
103,-15158,-16,740,-4575,23,-174,-80,71
104,-15162,-20,756,-4574,23,-174,-78,70
105,-15142,-16,756,-4575,23,-175,-78,70
106,-15146,-22,796,-4574,23,-173,-80,69
107,-15136,-22,770,-4575,23,-175,-77,69
108,-15142,-12,748,-4572,23,-173,-76,70
109,-15160,-18,748,-4572,23,-176,-78,70
110,-15148,-24,736,-4575,23,-175,-78,70
111,-15146,-14,756,-4571,23,-175,-78,69
112,-15144,-16,776,-4573,23,-175,-80,68
113,-15170,-20,756,-4573,23,-177,-76,67
114,-15172,-24,754,-4572,23,-177,-78,67
115,-15164,-18,756,-4570,23,-176,-78,70
116,-15168,-12,758,-4571,23,-175,-75,69
117,-15164,-24,760,-4574,23,-174,-77,68
118,-15158,-20,764,-4573,23,-174,-76,68
119,-15160,-26,776,-4573,23,-173,-77,67
120,-15170,-30,790,-4571,23,-173,-78,69
121,-15144,-12,766,-4573,23,-173,-78,71
122,-15148,-18,754,-4575,23,-175,-79,71
123,-15148,-12,784,-4574,23,-173,-77,69
124,-15156,-6,794,-4573,23,-172,-77,70
125,-15158,-12,770,-4573,23,-173,-76,70
126,-15152,-18,762,-4576,23,-174,-77,70
127,-15154,-8,754,-4574,23,-174,-78,69
128,-15158,-12,740,-4575,23,-173,-78,71
129,-15134,-12,730,-4575,23,-176,-78,71
130,-15142,2,726,-4574,23,-175,-77,69
131,-15136,4,740,-4574,23,-174,-77,71
132,-15148,12,748,-4574,23,-174,-76,70
133,-15166,4,760,-4575,23,-173,-78,73
134,-15162,-2,754,-4572,23,-172,-76,71
135,-15162,2,752,-4573,23,-171,-76,72
136,-15164,0,748,-4571,23,-173,-75,70
137,-15174,6,732,-4572,23,-174,-75,69
138,-15162,8,736,-4573,23,-174,-76,67
139,-15166,-18,738,-4572,23,-174,-77,68
140,-15166,-24,754,-4576,23,-174,-78,69
141,-15170,-8,748,-4576,23,-173,-78,70
142,-15156,-26,766,-4575,23,-174,-77,72
143,-15164,-44,748,-4575,23,-174,-78,70
144,-15184,-18,732,-4578,23,-173,-78,71
145,-15178,-18,740,-4577,23,-171,-78,69
146,-15166,-18,784,-4579,23,-172,-76,69
147,-15148,-24,790,-4578,23,-175,-75,70
148,-15134,-18,778,-4577,23,-175,-78,71
149,-15134,-2,786,-4573,23,-175,-78,70
150,-15134,-2,782,-4573,23,-174,-80,70
151,-15148,12,764,-4576,23,-177,-78,70
152,-15154,-12,750,-4577,23,-175,-76,70
153,-15138,-8,722,-4575,23,-175,-77,71
154,-15122,-18,722,-4573,23,-174,-77,70
155,-15130,-6,748,-4573,23,-173,-77,68
156,-15142,-20,754,-4574,23,-172,-78,70
157,-15156,-16,734,-4575,23,-174,-76,69
158,-15152,2,722,-4575,23,-174,-79,67
159,-15156,-16,778,-4575,23,-175,-80,68
160,-15134,-32,778,-4576,23,-175,-79,70
161,-15136,-32,800,-4575,23,-177,-79,69
162,-15134,-22,796,-4572,23,-177,-79,70
163,-15152,-4,774,-4574,23,-179,-79,69
164,-15138,-8,766,-4575,23,-176,-76,68
165,-15136,0,752,-4577,23,-175,-77,68
166,-15146,0,734,-4575,23,-175,-77,69
167,-15136,-16,742,-4573,23,-175,-77,68
168,-15138,-20,768,-4571,23,-175,-77,70
169,-15142,-22,748,-4572,23,-173,-76,71
170,-15152,-14,742,-4574,23,-175,-77,70
171,-15154,-18,750,-4576,23,-173,-79,71
172,-15164,-28,766,-4573,23,-178,-77,69
173,-15166,-32,766,-4576,23,-176,-78,68
174,-15146,-38,764,-4574,23,-177,-78,70
175,-15148,-22,746,-4577,23,-176,-78,68
176,-15160,-30,758,-4571,23,-175,-77,67
177,-15148,-22,766,-4570,23,-176,-77,68
178,-15140,-10,758,-4575,23,-177,-75,68
179,-15146,-16,772,-4579,23,-177,-78,68
180,-15144,-26,798,-4576,23,-175,-77,69
181,-15154,-20,774,-4574,23,-177,-78,70
182,-15156,-24,766,-4574,23,-176,-77,68
183,-15150,-18,766,-4576,23,-176,-74,67
184,-15144,-18,776,-4579,23,-174,-76,68
185,-15152,-24,776,-4581,23,-174,-75,71
186,-15160,-16,764,-4578,23,-173,-77,70
187,-15150,-20,780,-4576,23,-173,-77,69
188,-15158,-14,782,-4577,23,-173,-79,69
189,-15150,-16,770,-4581,23,-175,-80,69
190,-15154,-16,774,-4580,23,-174,-78,70
191,-15150,-30,776,-4576,23,-172,-77,68
192,-15156,-26,768,-4578,23,-172,-78,69
193,-15136,-22,758,-4577,23,-176,-76,70
194,-15134,-22,744,-4576,23,-176,-76,69
195,-15140,-26,752,-4575,23,-175,-77,70
196,-15146,-28,766,-4578,23,-176,-77,71
197,-15144,-32,774,-4577,23,-176,-77,68
198,-15162,-26,770,-4573,23,-176,-76,71
199,-15154,-34,768,-4573,23,-177,-77,71
200,-15132,-32,766,-4575,23,-176,-76,70
201,-15150,-22,782,-4576,23,-177,-75,69
202,-15154,-32,798,-4576,23,-178,-77,68
203,-15168,-30,796,-4575,23,-177,-80,69
204,-15152,-24,778,-4575,23,-177,-78,69
205,-15154,-36,774,-4575,23,-177,-76,70
206,-15142,-26,774,-4577,23,-176,-75,71
207,-15140,-10,758,-4577,23,-175,-78,70
208,-15150,-20,750,-4574,23,-174,-78,68
209,-15148,-16,746,-4573,23,-173,-78,71
210,-15154,-18,740,-4571,23,-174,-77,71
211,-15150,-12,748,-4573,23,-175,-77,71
212,-15126,-18,744,-4571,23,-176,-78,71
213,-15142,-26,754,-4571,23,-176,-76,71
214,-15144,-20,760,-4570,23,-175,-77,71
215,-15146,-20,760,-4573,23,-174,-76,68
216,-15150,-10,782,-4574,23,-174,-75,65
217,-15148,-4,772,-4573,23,-173,-77,65
218,-15152,6,764,-4572,23,-174,-79,65
219,-15158,-4,756,-4575,23,-174,-79,67
220,-15164,-10,752,-4574,23,-173,-77,69
221,-15156,-10,768,-4573,23,-172,-78,68
222,-15168,-20,770,-4572,23,-173,-77,69
223,-15168,-20,764,-4573,23,-173,-76,69
224,-15174,-2,740,-4573,23,-172,-78,70
225,-15166,-4,778,-4572,23,-172,-78,69
226,-15160,-8,766,-4571,23,-173,-76,67
227,-15162,-4,738,-4569,23,-173,-76,67
228,-15166,-30,714,-4573,23,-173,-77,67
229,-15138,-12,724,-4571,23,-174,-77,67
230,-15136,-10,744,-4570,23,-172,-79,67
231,-15144,-22,740,-4569,23,-176,-77,68
232,-15146,-18,736,-4569,23,-175,-76,69
233,-15136,-12,756,-4571,23,-174,-76,69
234,-15144,-12,754,-4571,23,-173,-78,70
235,-15144,-6,754,-4570,23,-175,-77,71
236,-15162,-30,780,-4574,23,-175,-74,69
237,-15146,-36,770,-4573,23,-174,-76,70
238,-15160,-18,756,-4573,23,-175,-76,71
239,-15174,-22,784,-4575,23,-174,-77,70
240,-15150,-34,796,-4578,23,-173,-77,70
241,-15158,-36,808,-4575,23,-173,-76,71
242,-15168,-34,810,-4574,23,-173,-74,67
243,-15166,-24,802,-4576,23,-173,-77,67
244,-15144,-20,772,-4574,23,-175,-79,68
245,-15142,-12,762,-4571,23,-174,-80,69
246,-15162,-4,752,-4571,23,-172,-80,70
247,-15164,-8,758,-4569,23,-173,-79,68
248,-15168,-2,776,-4569,23,-173,-80,67
249,-15178,-18,784,-4571,23,-173,-79,66
250,-15188,-22,758,-4575,23,-174,-77,68
251,-15162,-26,736,-4575,23,-175,-77,69
252,-15178,-26,776,-4574,23,-175,-77,70
253,-15166,-16,774,-4576,23,-174,-78,69
254,-15152,-4,752,-4577,23,-176,-78,71
255,-15150,-6,748,-4577,23,-174,-77,71
256,-15146,-2,784,-4574,23,-175,-77,72
257,-15150,-10,792,-4571,23,-175,-77,71
258,-15152,-28,778,-4569,23,-175,-76,69
259,-15148,-34,770,-4571,23,-175,-77,67
260,-15146,-30,768,-4572,23,-176,-76,72
261,-15150,-24,780,-4572,23,-177,-75,71
262,-15150,-14,788,-4575,23,-174,-78,70
263,-15152,6,800,-4574,23,-176,-80,70
264,-15142,-12,782,-4573,23,-176,-80,69
265,-15140,-14,762,-4572,23,-178,-80,69
266,-15148,-8,750,-4572,23,-177,-78,69
267,-15142,-6,754,-4572,23,-177,-77,70
268,-15160,4,762,-4575,23,-172,-76,67
269,-15154,-4,760,-4574,23,-172,-78,70
270,-15162,-10,752,-4574,23,-174,-78,70
271,-15172,-14,772,-4572,23,-175,-78,72
272,-15136,-22,742,-4571,23,-174,-78,71
273,-15140,-28,726,-4570,23,-175,-79,71
274,-15136,-36,734,-4567,23,-175,-79,69
275,-15130,-8,738,-4571,23,-175,-78,69
276,-15124,8,732,-4573,23,-176,-77,69
277,-15126,0,760,-4574,23,-173,-77,68
278,-15142,-12,714,-4571,23,-174,-78,69
279,-15148,-4,744,-4571,23,-173,-79,69
280,-15166,-18,766,-4571,23,-174,-80,69
281,-15156,-2,762,-4574,23,-175,-77,70
282,-15150,-24,748,-4573,23,-176,-76,70
283,-15142,-40,778,-4575,23,-174,-75,68
284,-15158,-32,760,-4574,23,-175,-77,67
285,-15150,-22,754,-4575,23,-174,-77,68
286,-15162,-10,776,-4574,23,-175,-80,69
287,-15162,-22,790,-4569,23,-175,-81,70
288,-15158,-14,766,-4569,23,-175,-78,70
289,-15166,-6,784,-4569,23,-174,-79,69
290,-15184,-22,772,-4570,23,-173,-79,69
291,-15180,-10,774,-4572,23,-174,-77,69
292,-15180,-12,778,-4573,23,-173,-77,68
293,-15160,-24,792,-4573,23,-173,-74,70
294,-15134,-16,780,-4570,23,-171,-75,70
295,-15154,-20,774,-4573,23,-173,-74,70
296,-15156,-8,786,-4575,23,-173,-76,67
297,-15172,-22,778,-4571,23,-173,-77,67
298,-15170,-8,790,-4571,23,-174,-75,68
299,-15164,-12,778,-4572,23,-175,-77,68
300,-15160,-16,770,-4571,23,-176,-78,68
301,-15152,-4,752,-4571,23,-175,-78,67
302,-15164,10,750,-4574,23,-176,-76,67
303,-15152,0,720,-4574,23,-176,-75,70
304,-15148,4,742,-4575,23,-176,-77,68
305,-15154,-4,750,-4574,23,-172,-78,67
306,-15144,-12,740,-4572,23,-173,-78,68
307,-15154,-6,714,-4575,23,-174,-79,69
308,-15138,-6,730,-4576,23,-173,-78,68
309,-15150,-16,702,-4575,23,-173,-77,69
310,-15160,-4,724,-4576,23,-177,-77,70
311,-15154,-36,726,-4574,23,-175,-79,69
312,-15184,-24,764,-4568,23,-176,-77,69
313,-15192,-16,746,-4572,23,-174,-78,68
314,-15188,-16,748,-4571,23,-173,-75,69
315,-15156,-14,774,-4573,23,-176,-75,68
316,-15146,-12,756,-4572,23,-175,-75,70
317,-15152,-6,740,-4574,23,-175,-76,69
318,-15180,-10,734,-4573,23,-174,-77,68
319,-15180,-6,718,-4573,23,-175,-80,68
320,-15164,-14,748,-4571,23,-177,-79,70
321,-15152,-28,780,-4570,23,-175,-78,71
322,-15154,-14,780,-4572,23,-174,-76,73
323,-15140,-6,774,-4576,23,-175,-77,72
324,-15174,-14,758,-4574,23,-175,-76,70
325,-15162,-14,780,-4575,23,-176,-78,69
326,-15150,-18,762,-4575,23,-175,-77,68
327,-15144,-10,756,-4576,23,-174,-77,69
328,-15142,-14,762,-4578,23,-175,-80,71
329,-15160,-22,760,-4577,23,-175,-79,70
330,-15166,-10,752,-4575,23,-174,-77,67
331,-15164,-16,764,-4573,23,-175,-80,67
332,-15170,-4,780,-4571,23,-173,-78,68
333,-15174,-30,774,-4574,23,-175,-78,68
334,-15174,-28,752,-4577,23,-176,-79,70
335,-15164,-18,804,-4578,23,-176,-79,69
336,-15170,-28,794,-4577,23,-177,-76,68
337,-15182,-26,784,-4579,23,-175,-76,69
338,-15160,-30,790,-4579,23,-173,-75,68
339,-15136,-30,804,-4577,23,-174,-76,67
340,-15146,-26,772,-4573,23,-173,-75,68
341,-15164,-24,770,-4575,23,-173,-76,71
342,-15158,-22,740,-4574,23,-174,-76,68
343,-15146,-22,776,-4573,23,-174,-74,69
344,-15168,-24,748,-4574,23,-173,-77,69
345,-15162,-22,754,-4572,23,-173,-76,69
346,-15174,-28,748,-4569,23,-173,-77,70
347,-15186,-34,768,-4567,23,-174,-77,71
348,-15164,-20,754,-4570,23,-175,-76,67
349,-15172,-14,752,-4570,23,-177,-76,70
350,-15174,-14,760,-4572,23,-176,-73,69
351,-15160,-28,746,-4570,23,-176,-76,68
352,-15158,-28,720,-4570,23,-174,-75,66
353,-15150,-22,718,-4571,23,-175,-75,67
354,-15142,-22,724,-4568,23,-175,-76,68
355,-15142,-14,742,-4572,23,-174,-75,67
356,-15152,-12,746,-4573,23,-174,-75,70
357,-15158,-6,726,-4572,23,-174,-76,71
358,-15148,-6,738,-4573,23,-174,-76,70
359,-15156,-30,750,-4574,23,-174,-77,68
360,-15160,-14,756,-4573,23,-174,-74,70
361,-15146,0,746,-4572,23,-174,-77,69
362,-15152,-2,766,-4571,23,-176,-77,69
363,-15132,-8,788,-4570,23,-173,-78,68
364,-15138,-4,778,-4570,23,-173,-80,67
365,-15140,-2,764,-4571,23,-173,-80,67
366,-15130,-14,766,-4573,23,-175,-80,69
367,-15140,-8,754,-4573,23,-173,-77,68
368,-15150,6,776,-4573,23,-175,-79,69
369,-15142,-22,782,-4573,23,-175,-80,69
370,-15146,-54,752,-4568,23,-176,-79,69
371,-15156,-32,746,-4571,23,-176,-80,69
372,-15154,-18,724,-4574,23,-175,-78,70
373,-15174,-6,734,-4577,23,-174,-79,69
374,-15166,-16,728,-4574,23,-174,-78,69
375,-15156,-6,752,-4572,23,-171,-78,70
376,-15166,-10,762,-4571,23,-174,-78,69
377,-15164,0,764,-4573,23,-174,-78,70
378,-15166,-2,746,-4571,23,-174,-77,71
379,-15146,0,706,-4576,23,-172,-75,68
380,-15148,0,714,-4575,23,-174,-75,68
381,-15136,8,708,-4572,23,-172,-76,69
382,-15146,10,730,-4573,23,-174,-77,71
383,-15148,-16,722,-4572,23,-174,-76,71
384,-15146,-12,718,-4574,23,-175,-74,70
385,-15144,-16,710,-4577,23,-176,-76,70
386,-15158,-14,724,-4573,23,-176,-77,69
387,-15158,-10,702,-4572,23,-176,-78,70
388,-15158,-14,730,-4572,23,-177,-76,68
389,-15158,-26,764,-4570,23,-174,-74,69
390,-15162,-28,762,-4574,23,-174,-74,70
391,-15156,-28,788,-4572,23,-175,-74,68
392,-15156,-16,790,-4571,23,-175,-77,66
393,-15146,-8,796,-4571,23,-174,-78,67
394,-15144,-14,784,-4572,23,-175,-78,68
395,-15158,-4,772,-4576,23,-173,-77,69
396,-15148,-22,788,-4573,23,-175,-77,69
397,-15144,-18,754,-4571,23,-174,-76,69
398,-15148,-24,772,-4576,23,-176,-78,67
399,-15158,-10,782,-4577,23,-177,-77,69
400,-15178,-24,784,-4575,23,-176,-77,71
401,-15166,-10,798,-4573,23,-176,-77,70
402,-15168,-26,768,-4574,23,-175,-77,70
403,-15132,-44,774,-4574,23,-176,-77,69
404,-15140,-36,778,-4573,23,-176,-77,69
405,-15144,-26,746,-4573,23,-177,-76,69
406,-15146,-18,730,-4572,23,-175,-76,69
407,-15164,-18,722,-4572,23,-176,-75,69
408,-15134,-18,740,-4572,23,-177,-77,70
409,-15158,-32,746,-4571,23,-177,-79,70
410,-15154,-8,736,-4571,23,-175,-79,70
411,-15170,-14,754,-4568,23,-175,-79,70
412,-15154,-24,748,-4570,23,-176,-81,69
413,-15160,-18,754,-4570,23,-175,-78,72
414,-15162,-18,748,-4572,23,-175,-77,71
415,-15144,-12,762,-4570,23,-174,-77,68
416,-15152,-10,758,-4568,23,-172,-77,66
417,-15148,-24,736,-4570,23,-173,-78,67
418,-15172,-38,736,-4571,23,-173,-76,69
419,-15162,-28,766,-4574,23,-173,-77,71
420,-15138,-40,772,-4575,23,-174,-77,72
421,-15154,-44,748,-4575,23,-175,-77,70
422,-15144,-46,746,-4578,23,-174,-76,68
423,-15156,-14,748,-4576,23,-174,-77,70
424,-15180,2,734,-4574,23,-174,-77,68
425,-15176,-12,756,-4571,23,-175,-76,69
426,-15186,-30,750,-4572,23,-173,-76,70
427,-15192,-28,744,-4572,23,-174,-77,69
428,-15176,-26,746,-4573,23,-174,-77,67
429,-15152,-22,728,-4567,23,-176,-77,68
430,-15156,-16,750,-4570,23,-177,-78,67
431,-15156,-26,752,-4571,23,-176,-77,67
432,-15158,-18,740,-4573,23,-177,-77,68
433,-15166,-32,740,-4573,23,-176,-77,68
434,-15160,-30,724,-4574,23,-176,-77,70
435,-15152,-8,766,-4574,23,-175,-76,70
436,-15142,-12,770,-4573,23,-175,-78,68
437,-15134,-22,776,-4575,23,-173,-77,66
438,-15148,-14,806,-4576,23,-173,-77,66
439,-15154,-10,808,-4575,23,-172,-78,68
440,-15154,-14,792,-4574,23,-174,-78,70
441,-15142,0,790,-4572,23,-176,-80,69
442,-15150,2,752,-4572,23,-176,-81,70
443,-15152,-30,746,-4570,23,-177,-79,70
444,-15156,-26,756,-4572,23,-175,-79,71
445,-15152,-24,748,-4573,23,-176,-75,70
446,-15158,-12,740,-4572,23,-176,-76,71
447,-15158,0,744,-4573,23,-175,-77,70
448,-15166,-12,750,-4574,23,-174,-77,71
449,-15152,-4,746,-4577,23,-173,-76,71
450,-15144,-10,776,-4574,23,-173,-76,71
451,-15142,-8,778,-4574,23,-172,-76,69
452,-15144,-20,758,-4571,23,-173,-77,68
453,-15158,-26,766,-4571,23,-175,-76,69
454,-15160,-30,768,-4571,23,-174,-78,69
455,-15162,-36,750,-4570,23,-175,-77,67
456,-15168,-36,746,-4572,23,-174,-76,69
457,-15158,-36,762,-4570,23,-174,-79,69
458,-15140,-20,740,-4573,23,-176,-79,69
459,-15148,-18,742,-4574,23,-175,-79,68
460,-15150,-28,742,-4573,23,-177,-78,68
461,-15154,-26,754,-4574,23,-177,-77,69
462,-15158,-46,766,-4575,23,-177,-79,71
463,-15164,-24,736,-4571,23,-175,-78,70
464,-15162,-32,734,-4572,23,-174,-78,69
465,-15166,-34,752,-4569,23,-172,-78,70
466,-15156,-26,770,-4574,23,-175,-78,69
467,-15146,-26,766,-4574,23,-174,-79,68
468,-15158,-16,802,-4573,23,-175,-78,66
469,-15144,-8,778,-4574,23,-174,-76,66
470,-15140,-20,748,-4570,23,-174,-77,67
471,-15146,-8,740,-4572,23,-173,-76,67
472,-15140,-18,738,-4568,23,-173,-76,69
473,-15130,0,740,-4567,23,-175,-75,69
474,-15134,-12,758,-4566,23,-174,-76,68
475,-15104,-6,734,-4569,23,-176,-77,67
476,-15116,-30,758,-4571,23,-177,-76,67
477,-15122,-20,778,-4575,23,-174,-77,68
478,-15126,-26,808,-4577,23,-175,-77,67
479,-15120,-12,776,-4573,23,-175,-75,69
480,-15124,-32,736,-4573,23,-175,-77,67
481,-15128,-20,758,-4571,23,-175,-76,66
482,-15142,-14,756,-4571,23,-175,-75,66
483,-15150,-10,784,-4569,23,-175,-77,67
484,-15176,-10,756,-4570,23,-175,-79,66
485,-15158,-12,738,-4573,23,-175,-76,67
486,-15138,-16,758,-4576,23,-174,-76,68
487,-15150,-22,734,-4574,23,-173,-76,68
488,-15150,-18,746,-4573,23,-174,-78,68
489,-15148,-12,716,-4572,23,-174,-77,68
490,-15156,-14,718,-4575,23,-176,-75,67
491,-15164,-2,734,-4576,23,-176,-76,67
492,-15168,-24,738,-4576,23,-173,-78,68
493,-15140,-4,740,-4577,23,-170,-80,68
494,-15136,-8,748,-4577,23,-173,-78,69
495,-15126,-26,764,-4574,23,-173,-79,69
496,-15148,-14,742,-4575,23,-174,-77,69
497,-15138,-8,754,-4574,23,-176,-78,70
498,-15146,-16,744,-4573,23,-175,-76,68
499,-15156,-24,736,-4570,23,-174,-77,69
500,-15168,0,732,-4571,23,-173,-76,66
501,-15166,-10,778,-4571,23,-172,-75,67
502,-15148,-10,780,-4570,23,-174,-79,67
503,-15148,-14,794,-4567,23,-174,-77,69
504,-15152,-28,784,-4568,23,-174,-77,69
505,-15166,-22,798,-4567,23,-174,-76,69
506,-15148,-24,762,-4568,23,-173,-77,68
507,-15162,-28,720,-4570,23,-175,-77,67
508,-15156,-16,718,-4572,23,-176,-77,68
509,-15158,-24,758,-4569,23,-174,-78,68
510,-15130,-42,744,-4570,23,-175,-76,69
511,-15134,-32,742,-4568,23,-174,-77,68
512,-15136,-26,754,-4572,23,-175,-78,69
513,-15136,-20,760,-4572,23,-174,-75,69
514,-15128,-6,756,-4576,23,-175,-79,70
515,-15138,-34,738,-4573,23,-174,-79,71
516,-15124,-24,714,-4571,23,-173,-77,72
517,-15132,-12,716,-4571,23,-172,-77,73
518,-15128,-2,706,-4569,23,-173,-78,74
519,-15124,-16,736,-4571,23,-172,-80,72
520,-15136,-10,734,-4572,23,-173,-79,70
521,-15160,-16,748,-4575,23,-175,-78,70
522,-15162,-10,780,-4575,23,-174,-78,70
523,-15150,-12,768,-4575,23,-174,-78,71
524,-15164,-6,764,-4574,23,-174,-78,68
525,-15154,0,762,-4575,23,-175,-77,70
526,-15152,-22,772,-4576,23,-176,-78,72
527,-15190,-26,766,-4573,23,-173,-78,70
528,-15174,-22,784,-4571,23,-174,-76,70
529,-15172,-18,802,-4569,23,-172,-76,72
530,-15180,-16,782,-4569,23,-174,-75,71
531,-15182,-18,760,-4569,23,-174,-77,71
532,-15162,-26,752,-4567,23,-174,-76,71
533,-15162,-16,734,-4568,23,-174,-78,70
534,-15174,-14,726,-4573,23,-178,-78,67
535,-15140,-22,742,-4572,23,-176,-79,68
536,-15134,-2,752,-4574,23,-174,-79,69
537,-15154,6,780,-4572,23,-174,-81,69
538,-15158,4,792,-4573,23,-175,-81,70
539,-15158,2,756,-4572,23,-174,-78,69
540,-15162,-6,742,-4570,23,-174,-78,67
541,-15148,-16,766,-4569,23,-175,-76,68
542,-15158,-8,768,-4568,23,-173,-76,69
543,-15148,-8,764,-4570,23,-175,-78,71
544,-15160,-32,758,-4569,23,-174,-79,70
545,-15162,-22,736,-4572,23,-173,-78,70
546,-15140,-26,730,-4569,23,-174,-78,69
547,-15132,-8,734,-4566,23,-175,-78,69
548,-15144,-14,742,-4564,23,-176,-79,70
549,-15134,-18,756,-4567,23,-174,-79,70
550,-15134,-30,760,-4570,23,-171,-77,69
551,-15138,-18,760,-4573,23,-175,-80,70
552,-15150,-20,784,-4573,23,-175,-80,70
553,-15144,-12,794,-4571,23,-175,-81,70
554,-15140,-36,804,-4569,23,-175,-81,71
555,-15144,-34,780,-4565,23,-174,-82,70
556,-15150,-34,770,-4567,23,-173,-81,70
557,-15162,-28,776,-4569,23,-175,-78,70
558,-15176,-20,780,-4571,23,-175,-77,70
559,-15142,-18,770,-4570,23,-174,-75,71
560,-15152,-40,762,-4571,23,-176,-78,69
561,-15164,-48,758,-4572,23,-176,-78,69
562,-15158,-38,780,-4569,23,-176,-76,69
563,-15156,-28,756,-4565,23,-177,-78,69
564,-15142,-24,746,-4565,23,-176,-80,69
565,-15152,-22,756,-4565,23,-174,-78,70
566,-15164,-38,762,-4567,23,-177,-78,68
567,-15166,-18,764,-4567,23,-175,-78,70
568,-15158,-12,756,-4567,23,-175,-80,70
569,-15138,-6,770,-4568,23,-177,-79,69
570,-15162,-6,770,-4569,23,-176,-78,68
571,-15156,-8,766,-4574,23,-175,-78,68
572,-15158,6,768,-4572,23,-175,-78,69
573,-15156,8,758,-4573,23,-172,-79,70
574,-15154,6,770,-4572,23,-175,-78,71
575,-15150,-10,784,-4570,23,-174,-77,70
576,-15162,-4,782,-4569,23,-175,-77,72
577,-15158,-2,778,-4570,23,-173,-78,70
578,-15172,-14,786,-4572,23,-173,-76,70
579,-15178,-18,784,-4571,23,-171,-75,71
580,-15178,0,778,-4571,23,-173,-79,70
581,-15156,10,786,-4575,23,-175,-77,69
582,-15162,8,782,-4573,23,-174,-79,69
583,-15156,-28,760,-4572,23,-171,-79,68
584,-15148,-40,738,-4572,23,-172,-76,72
585,-15138,-16,720,-4575,23,-174,-78,71
586,-15134,-32,742,-4574,23,-172,-79,70
587,-15144,-32,716,-4573,23,-174,-78,70
588,-15156,-18,754,-4575,23,-175,-78,70
589,-15156,-14,724,-4574,23,-175,-79,72
590,-15158,-26,754,-4575,23,-175,-77,70
591,-15148,-32,768,-4572,23,-175,-77,69
592,-15148,-20,742,-4573,23,-174,-79,69
593,-15132,-22,768,-4574,23,-175,-79,68
594,-15128,-10,762,-4573,23,-174,-77,70
595,-15152,-4,752,-4572,23,-173,-77,67
596,-15160,-6,776,-4571,23,-173,-76,66
597,-15174,-14,778,-4567,23,-175,-76,67
598,-15178,-10,758,-4568,23,-174,-77,68
599,-15188,-18,764,-4572,23,-177,-79,70
600,-15166,-6,760,-4572,23,-179,-79,69
601,-15156,-12,756,-4570,23,-177,-77,68
602,-15146,-6,780,-4568,23,-175,-76,68
603,-15142,0,800,-4571,23,-174,-76,69
604,-15170,-8,804,-4572,23,-174,-78,69
605,-15156,-20,776,-4572,23,-173,-78,69
606,-15136,-18,776,-4569,23,-171,-76,69
607,-15142,-22,756,-4569,23,-172,-77,69
608,-15152,-18,744,-4572,23,-171,-77,70
609,-15152,-8,782,-4572,23,-176,-78,69
610,-15158,4,780,-4568,23,-175,-76,71
611,-15152,-16,778,-4569,23,-175,-78,70
612,-15158,-8,764,-4568,23,-175,-76,69
613,-15148,-26,750,-4565,23,-174,-75,67
614,-15164,-20,738,-4570,23,-175,-76,68
615,-15158,-6,740,-4570,23,-175,-77,68
616,-15154,0,714,-4570,23,-175,-76,67
617,-15148,-2,758,-4568,23,-174,-76,68
618,-15148,0,758,-4569,23,-174,-75,68
619,-15148,-22,778,-4569,23,-176,-77,70
620,-15168,-24,776,-4568,23,-176,-76,68
621,-15174,-30,776,-4568,23,-175,-74,69
622,-15184,-26,798,-4571,23,-176,-76,70
623,-15172,-12,808,-4572,23,-174,-77,68
624,-15150,-28,798,-4573,23,-173,-79,68
625,-15154,-28,778,-4573,23,-174,-78,69
626,-15148,-20,768,-4568,23,-173,-79,70
627,-15140,-24,744,-4565,23,-173,-78,70
628,-15144,-8,746,-4568,23,-175,-78,69
629,-15134,-16,744,-4569,23,-174,-79,70
630,-15148,-26,772,-4568,23,-177,-79,69
631,-15170,-12,790,-4572,23,-177,-78,69
632,-15164,-38,792,-4573,23,-178,-77,68
633,-15160,-30,760,-4574,23,-177,-76,70
634,-15160,-16,746,-4576,23,-177,-78,71
635,-15162,-30,758,-4578,23,-176,-76,69
636,-15140,-12,774,-4577,23,-178,-75,69
637,-15172,-24,758,-4577,23,-175,-78,68
638,-15158,-16,770,-4575,23,-175,-78,71
639,-15164,-24,736,-4571,23,-176,-79,69
640,-15144,-20,744,-4571,23,-176,-76,71
641,-15146,-12,752,-4567,23,-175,-76,70
642,-15172,-8,752,-4570,23,-174,-77,69
643,-15176,-14,766,-4569,23,-176,-77,69
644,-15176,-16,764,-4570,23,-175,-78,68
645,-15164,-14,754,-4572,23,-175,-77,70
646,-15170,-28,748,-4575,23,-177,-79,70
647,-15152,-10,762,-4573,23,-176,-79,72
648,-15152,-20,758,-4573,23,-176,-78,70
649,-15162,-28,780,-4570,23,-176,-77,70
650,-15176,-30,748,-4573,23,-175,-77,68
651,-15176,-24,730,-4573,23,-173,-78,69
652,-15164,-14,732,-4572,23,-174,-77,70
653,-15144,-8,728,-4571,23,-173,-78,70
654,-15138,-14,724,-4570,23,-175,-77,69
655,-15158,-28,760,-4570,23,-174,-77,70
656,-15160,-8,760,-4572,23,-174,-77,70
657,-15158,-12,798,-4573,23,-175,-79,68
658,-15162,-30,782,-4574,23,-175,-79,69
659,-15158,-28,738,-4572,23,-175,-80,68
660,-15162,-16,744,-4572,23,-173,-78,68
661,-15160,-20,768,-4570,23,-173,-78,67
662,-15148,-16,750,-4571,23,-175,-78,67
663,-15158,-22,758,-4568,23,-175,-78,68
664,-15164,-26,770,-4569,23,-176,-77,66
665,-15166,-10,784,-4570,23,-175,-79,67
666,-15178,-14,782,-4568,23,-176,-80,67
667,-15182,-16,750,-4567,23,-176,-78,68
668,-15170,-28,758,-4570,23,-175,-76,69
669,-15166,-6,748,-4572,23,-177,-76,71
670,-15168,-4,758,-4571,23,-174,-75,70
671,-15150,-16,762,-4571,23,-174,-75,70
672,-15146,-4,772,-4571,23,-176,-76,71
673,-15142,2,766,-4572,23,-177,-77,68
674,-15158,-12,752,-4573,23,-175,-77,67
675,-15160,-10,778,-4569,23,-174,-76,69
676,-15148,4,760,-4569,23,-173,-78,71
677,-15140,8,760,-4571,23,-174,-78,69
678,-15142,20,730,-4574,23,-174,-78,68
679,-15144,-12,742,-4572,23,-174,-77,68
680,-15138,-20,766,-4570,23,-175,-78,69
681,-15154,-34,774,-4570,23,-175,-77,68
682,-15158,-30,758,-4571,23,-175,-78,67
683,-15158,-16,756,-4568,23,-178,-77,68
684,-15148,-30,770,-4569,23,-175,-78,70
685,-15152,-20,794,-4567,23,-174,-77,70
686,-15156,-18,780,-4567,23,-175,-78,69
687,-15162,-32,746,-4564,23,-178,-77,68
688,-15158,-8,734,-4564,23,-176,-78,68
689,-15150,0,730,-4567,23,-177,-80,70
690,-15152,-10,740,-4566,23,-177,-79,69
691,-15160,-18,732,-4567,23,-175,-80,69
692,-15156,-2,762,-4570,23,-175,-79,70
693,-15130,10,758,-4568,23,-175,-79,71
694,-15122,30,778,-4572,23,-175,-79,69
695,-15152,22,776,-4569,23,-175,-78,71
696,-15142,18,772,-4572,23,-175,-77,72
697,-15160,-2,762,-4568,23,-174,-77,72
698,-15174,12,766,-4565,23,-174,-78,70
699,-15160,-8,736,-4564,23,-174,-78,70
700,-15166,8,746,-4567,23,-174,-76,69
701,-15166,-6,728,-4566,23,-174,-78,69
702,-15166,0,736,-4563,23,-173,-77,69
703,-15152,18,718,-4566,23,-175,-76,68
704,-15148,18,710,-4568,23,-175,-75,67
705,-15158,-12,728,-4567,23,-174,-75,69
706,-15176,-16,764,-4568,23,-175,-77,69
707,-15168,-28,776,-4568,23,-175,-79,71
708,-15162,-12,766,-4570,23,-174,-79,71
709,-15160,0,752,-4568,23,-175,-80,71
710,-15166,-10,732,-4569,23,-176,-81,69
711,-15170,-12,742,-4570,23,-178,-80,71
712,-15156,-22,748,-4573,23,-173,-80,71
713,-15142,-10,754,-4570,23,-173,-79,71
714,-15152,-2,756,-4566,23,-173,-78,67
715,-15152,-8,750,-4569,23,-174,-78,67
716,-15162,-20,756,-4572,23,-174,-75,68
717,-15136,-4,778,-4568,23,-176,-75,67
718,-15136,-12,760,-4570,23,-172,-78,69
719,-15140,-22,742,-4569,23,-174,-79,70
720,-15150,-32,772,-4572,23,-176,-77,70
721,-15144,-6,790,-4571,23,-176,-76,70
722,-15152,-4,774,-4569,23,-174,-75,70
723,-15148,-10,766,-4567,23,-173,-76,70
724,-15156,-6,762,-4568,23,-174,-79,70
725,-15156,-22,768,-4567,23,-175,-80,71
726,-15152,-14,770,-4567,23,-174,-78,72
727,-15150,2,750,-4567,23,-172,-78,70
728,-15172,12,774,-4565,23,-174,-78,69
729,-15184,10,756,-4566,23,-172,-78,70
730,-15170,18,732,-4566,23,-174,-78,70
731,-15154,-8,748,-4565,23,-175,-78,72
732,-15150,-24,746,-4563,23,-173,-79,70
733,-15166,-8,748,-4563,23,-174,-79,69
734,-15154,-8,750,-4565,23,-174,-78,68
735,-15150,-14,770,-4564,23,-172,-78,69
736,-15152,-10,764,-4566,23,-174,-79,69
737,-15150,-4,744,-4565,23,-174,-80,69
738,-15156,-28,748,-4564,23,-176,-79,71
739,-15160,-20,738,-4563,23,-177,-75,70
740,-15156,-16,738,-4564,23,-176,-76,70
741,-15162,-18,762,-4567,23,-174,-75,69
742,-15144,-8,752,-4568,23,-175,-75,69
743,-15148,-14,730,-4565,23,-174,-75,68
744,-15130,0,758,-4561,23,-176,-77,68
745,-15144,0,760,-4565,23,-175,-78,67
746,-15140,-8,772,-4566,23,-173,-77,67
747,-15134,-12,768,-4563,23,-174,-77,69
748,-15134,-20,758,-4566,23,-174,-77,69
749,-15154,-34,752,-4566,23,-174,-80,69
750,-15162,-30,778,-4566,23,-176,-77,69
751,-15166,-32,774,-4565,23,-176,-79,70
752,-15150,-32,788,-4566,23,-175,-79,71
753,-15158,-30,784,-4565,23,-173,-77,71
754,-15146,-28,806,-4566,23,-173,-75,70
755,-15152,-16,768,-4566,23,-173,-78,70
756,-15142,-20,780,-4564,23,-174,-75,70
757,-15152,-18,744,-4566,23,-174,-76,72
758,-15156,-12,740,-4566,23,-174,-80,71
759,-15160,-12,738,-4566,23,-172,-80,70
760,-15152,-10,744,-4565,23,-173,-78,70
761,-15164,8,754,-4564,23,-174,-79,69
762,-15162,-26,764,-4564,23,-175,-79,72
763,-15174,-12,788,-4568,23,-176,-78,72
764,-15144,-8,760,-4567,23,-175,-77,69
765,-15132,2,758,-4568,23,-176,-79,69
766,-15142,10,790,-4566,23,-174,-80,68
767,-15148,2,796,-4566,23,-175,-79,68
768,-15144,-16,774,-4567,23,-175,-78,66
769,-15140,-24,736,-4564,23,-174,-78,67
770,-15152,-16,732,-4563,23,-174,-77,69
771,-15164,-10,718,-4567,23,-173,-79,68
772,-15170,-16,748,-4566,23,-175,-78,67
773,-15170,-6,740,-4567,23,-176,-75,68
774,-15150,-4,746,-4568,23,-176,-77,70
775,-15136,2,758,-4568,23,-175,-76,71
776,-15146,-2,732,-4565,23,-174,-77,70
777,-15142,0,738,-4563,23,-171,-76,70
778,-15136,-2,770,-4564,23,-172,-77,68
779,-15136,-2,790,-4568,23,-175,-76,68
780,-15170,-8,764,-4566,23,-174,-76,69
781,-15174,-2,760,-4568,23,-174,-75,71
782,-15182,-12,750,-4569,23,-174,-76,69
783,-15174,-10,746,-4569,23,-174,-78,68
784,-15162,-6,748,-4571,23,-174,-80,70
785,-15162,-26,776,-4570,23,-174,-78,71
786,-15150,-16,788,-4569,23,-173,-78,69
787,-15152,-10,786,-4567,23,-175,-78,69
788,-15152,-16,758,-4567,23,-174,-79,72
789,-15152,-12,748,-4569,23,-173,-78,71
790,-15162,-18,764,-4568,23,-174,-77,70
791,-15152,-20,786,-4567,23,-176,-78,71
792,-15154,-4,784,-4565,23,-175,-77,69
793,-15162,-18,756,-4567,23,-175,-76,70
794,-15166,-6,724,-4567,23,-175,-80,67
795,-15156,-6,734,-4569,23,-175,-77,68
796,-15150,0,746,-4571,23,-175,-77,69
797,-15164,-18,734,-4569,23,-175,-78,70
798,-15176,-6,768,-4570,23,-176,-76,70
799,-15160,-10,740,-4571,23,-177,-77,69
800,-15152,8,740,-4570,23,-178,-75,67
801,-15160,16,730,-4568,23,-174,-79,68
802,-15156,-6,750,-4568,23,-174,-76,69
803,-15148,-14,758,-4566,23,-173,-75,69
804,-15156,-16,778,-4566,23,-174,-75,69
805,-15146,-16,762,-4568,23,-176,-75,68
806,-15156,-20,750,-4568,23,-176,-76,68
807,-15160,-24,752,-4569,23,-175,-77,67
808,-15156,-6,756,-4567,23,-174,-78,68
809,-15144,-2,744,-4569,23,-172,-78,67
810,-15146,-10,756,-4567,23,-172,-78,66
811,-15150,-10,762,-4562,23,-171,-79,68
812,-15148,-6,750,-4566,23,-172,-80,67
813,-15160,8,754,-4569,23,-174,-78,69
814,-15164,8,756,-4566,23,-174,-78,71
815,-15162,-22,744,-4566,23,-174,-77,70
816,-15152,-22,724,-4567,23,-174,-79,69
817,-15148,-22,770,-4565,23,-174,-78,67
818,-15150,-22,764,-4563,23,-175,-78,68
819,-15158,-20,758,-4564,23,-175,-77,70
820,-15152,-12,740,-4566,23,-173,-76,69
821,-15162,-6,760,-4568,23,-174,-77,69
822,-15164,-6,748,-4566,23,-173,-77,68
823,-15166,-18,750,-4564,23,-174,-78,69
824,-15156,-10,752,-4565,23,-172,-77,67
825,-15148,-14,738,-4568,23,-174,-76,68
826,-15146,-22,708,-4568,23,-174,-77,66
827,-15152,-20,734,-4569,23,-173,-75,69
828,-15152,-20,760,-4570,23,-173,-77,71
829,-15168,-10,768,-4573,23,-176,-78,70
830,-15150,-10,746,-4571,23,-175,-78,70
831,-15152,-10,744,-4568,23,-175,-77,68
832,-15172,-2,720,-4567,23,-174,-76,69
833,-15170,-8,734,-4564,23,-174,-75,67
834,-15180,-6,770,-4563,23,-176,-76,67
835,-15170,-18,752,-4563,23,-176,-77,68
836,-15174,-18,728,-4566,23,-175,-79,68
837,-15174,-20,740,-4565,23,-174,-77,67
838,-15156,-2,734,-4563,23,-174,-79,67
839,-15144,-20,764,-4569,23,-175,-76,67
840,-15152,-18,750,-4569,23,-177,-78,68
841,-15140,-26,750,-4568,23,-175,-78,69
842,-15138,-30,744,-4564,23,-173,-78,71
843,-15142,-18,754,-4564,23,-174,-78,69
844,-15136,-12,736,-4566,23,-174,-80,68
845,-15144,-20,734,-4566,23,-172,-79,69
846,-15136,-34,772,-4567,23,-173,-77,68
847,-15158,-26,768,-4565,23,-175,-76,68
848,-15142,-6,770,-4569,23,-172,-78,69
849,-15142,-12,778,-4571,23,-174,-79,71
850,-15156,-18,750,-4569,23,-175,-78,71
851,-15146,-2,754,-4572,23,-175,-75,70
852,-15148,-14,776,-4576,23,-176,-79,69
853,-15136,-6,752,-4569,23,-173,-79,69
854,-15148,-10,738,-4569,23,-175,-78,68
855,-15142,-14,744,-4571,23,-174,-78,65
856,-15142,2,736,-4571,23,-175,-76,64
857,-15162,-12,732,-4567,23,-176,-75,66
858,-15158,0,732,-4565,23,-175,-74,67
859,-15188,-16,764,-4564,23,-174,-77,67
860,-15156,-30,760,-4568,23,-175,-78,69
861,-15144,-22,768,-4570,23,-174,-77,68
862,-15152,-32,768,-4570,23,-173,-79,67
863,-15156,-12,766,-4571,23,-174,-78,68
864,-15158,-16,778,-4567,23,-173,-77,68
865,-15170,-30,768,-4568,23,-173,-79,69
866,-15162,-38,780,-4568,23,-173,-78,70
867,-15176,-22,778,-4569,23,-175,-77,70
868,-15168,-2,774,-4567,23,-174,-77,71
869,-15152,-18,772,-4567,23,-175,-79,69
870,-15130,-26,760,-4567,23,-176,-78,69
871,-15134,-26,760,-4566,23,-174,-78,68
872,-15140,-22,746,-4567,23,-174,-77,67
873,-15148,-18,756,-4568,23,-173,-76,68
874,-15150,-14,758,-4568,23,-174,-75,69
875,-15138,-26,760,-4568,23,-173,-76,67
876,-15158,-20,736,-4569,23,-173,-76,66
877,-15142,-18,760,-4565,23,-175,-77,66
878,-15148,-22,726,-4565,23,-175,-79,69
879,-15176,-22,766,-4570,23,-175,-79,70
880,-15170,-36,770,-4568,23,-174,-79,69
881,-15174,-22,768,-4570,23,-173,-79,69
882,-15166,-34,740,-4566,23,-175,-76,67
883,-15138,-18,756,-4566,23,-175,-74,71
884,-15134,-20,764,-4568,23,-175,-76,70
885,-15154,2,760,-4572,23,-175,-78,70
886,-15152,-16,740,-4570,23,-176,-76,70
887,-15162,-32,748,-4568,23,-174,-78,68
888,-15144,-30,774,-4567,23,-174,-79,68
889,-15144,-14,774,-4569,23,-174,-76,71
890,-15140,-32,758,-4566,23,-174,-74,70
891,-15138,-20,752,-4564,23,-174,-76,70
892,-15144,-16,734,-4565,23,-177,-76,70
893,-15144,-8,766,-4569,23,-176,-76,70
894,-15158,4,778,-4568,23,-175,-75,70
895,-15154,-8,758,-4567,23,-177,-78,68
896,-15146,-18,760,-4566,23,-176,-78,68
897,-15146,-22,744,-4567,23,-175,-79,68
898,-15116,-24,760,-4565,23,-176,-75,70
899,-15138,-16,730,-4565,23,-176,-76,69
900,-15142,-14,754,-4567,23,-174,-77,68
901,-15156,-14,764,-4570,23,-175,-79,68
902,-15168,-28,778,-4569,23,-173,-79,68
903,-15164,-32,762,-4567,23,-172,-78,69
904,-15160,-10,776,-4569,23,-174,-77,69
905,-15168,6,762,-4573,23,-175,-77,69
906,-15158,4,758,-4573,23,-176,-77,69
907,-15152,2,768,-4571,23,-174,-76,70
908,-15158,-22,790,-4570,23,-173,-74,70
909,-15156,-24,772,-4568,23,-172,-75,71
910,-15154,-20,770,-4568,23,-171,-75,70
911,-15164,-2,768,-4571,23,-171,-77,69
912,-15152,-12,764,-4569,23,-171,-75,70
913,-15156,-14,790,-4568,23,-173,-75,68
914,-15146,-8,766,-4569,23,-175,-74,69
915,-15154,-16,768,-4569,23,-175,-75,70
916,-15140,-22,750,-4569,23,-176,-76,70
917,-15142,-18,758,-4568,23,-176,-74,71
918,-15138,-10,752,-4569,23,-175,-74,70
919,-15140,8,720,-4571,23,-175,-76,69
920,-15154,-16,740,-4573,23,-175,-77,71
921,-15154,-14,748,-4572,23,-175,-77,71
922,-15170,-10,746,-4570,23,-174,-75,72
923,-15156,-6,726,-4573,23,-175,-75,71
924,-15150,-4,748,-4571,23,-176,-75,70
925,-15150,-2,728,-4573,23,-174,-75,72
926,-15168,0,740,-4568,23,-175,-76,69
927,-15140,-8,746,-4568,23,-177,-76,69
928,-15150,-14,756,-4569,23,-174,-78,69
929,-15140,-10,756,-4570,23,-172,-80,69
930,-15158,-10,780,-4569,23,-172,-81,69
931,-15144,-20,766,-4567,23,-174,-81,68
932,-15168,-24,762,-4562,23,-174,-79,67
933,-15168,-24,770,-4562,23,-174,-79,68
934,-15158,-16,754,-4564,23,-174,-78,68
935,-15174,-8,762,-4566,23,-172,-78,68
936,-15164,-2,738,-4564,23,-172,-80,71
937,-15166,18,736,-4564,23,-173,-78,70
938,-15154,6,744,-4566,23,-175,-78,69
939,-15168,0,752,-4568,23,-175,-78,68
940,-15154,-8,754,-4565,23,-175,-77,69
941,-15152,-4,756,-4564,23,-176,-77,68
942,-15152,6,752,-4568,23,-175,-76,66
943,-15136,-14,740,-4567,23,-173,-76,67
944,-15158,-12,738,-4568,23,-173,-78,67
945,-15170,-16,726,-4568,23,-173,-78,67
946,-15162,-32,728,-4570,23,-173,-75,69
947,-15172,-26,746,-4564,23,-170,-75,70
948,-15172,-32,744,-4567,23,-174,-77,70
949,-15154,-22,746,-4567,23,-175,-76,70
950,-15160,-30,766,-4567,23,-174,-76,70
951,-15158,-26,792,-4565,23,-174,-76,70
952,-15156,-22,780,-4565,23,-175,-77,70
953,-15140,-24,786,-4563,23,-174,-78,70
954,-15138,4,742,-4567,23,-173,-78,68
955,-15148,6,778,-4567,23,-176,-77,69
956,-15148,10,768,-4566,23,-175,-77,69
957,-15154,2,768,-4566,23,-174,-78,68
958,-15148,10,768,-4565,23,-172,-79,68
959,-15148,0,752,-4567,23,-173,-79,68
960,-15144,-18,772,-4567,23,-174,-77,69
961,-15142,-22,792,-4566,23,-174,-77,67
962,-15154,-26,788,-4568,23,-174,-79,65
963,-15156,-22,762,-4572,23,-173,-77,67
964,-15154,-20,770,-4569,23,-174,-74,68
965,-15156,2,750,-4567,23,-175,-76,69
966,-15148,0,760,-4566,23,-177,-77,68
967,-15140,-2,758,-4567,23,-177,-78,69
968,-15144,-4,758,-4568,23,-177,-77,70
969,-15142,-18,774,-4570,23,-176,-76,71
970,-15142,-8,762,-4570,23,-177,-75,69
971,-15140,0,760,-4571,23,-175,-76,69
972,-15160,12,772,-4569,23,-176,-76,69
973,-15152,-16,774,-4567,23,-175,-77,69
974,-15150,-12,762,-4567,23,-175,-76,69
975,-15144,-14,758,-4564,23,-175,-77,66
976,-15150,-22,764,-4567,23,-177,-77,66
977,-15156,-12,756,-4565,23,-176,-75,68
978,-15136,-14,790,-4564,23,-175,-75,67
979,-15128,-20,780,-4565,23,-175,-75,67
980,-15134,-18,766,-4565,23,-176,-76,67
981,-15146,-44,794,-4563,23,-176,-76,69
982,-15164,-50,806,-4567,23,-175,-78,68
983,-15168,-32,786,-4565,23,-175,-78,69
984,-15180,-24,788,-4569,23,-176,-77,69
985,-15150,-28,772,-4566,23,-176,-75,70
986,-15164,-12,780,-4565,23,-176,-77,69
987,-15154,2,760,-4565,23,-175,-78,71
988,-15152,-22,774,-4565,23,-172,-75,71
989,-15148,-12,754,-4564,23,-173,-78,69
990,-15150,-20,746,-4565,23,-174,-78,69
991,-15160,-18,720,-4565,23,-174,-76,69
992,-15164,-20,710,-4566,23,-173,-76,69
993,-15174,-20,728,-4564,23,-175,-79,67
994,-15146,-10,752,-4564,23,-174,-80,68
995,-15154,-12,758,-4566,23,-173,-80,69
996,-15152,-22,760,-4564,23,-174,-80,68
997,-15140,-18,762,-4562,23,-174,-79,70
998,-15146,-18,742,-4567,23,-176,-79,70
