,acc_X,acc_Y,acc_Z,temp,tempC,gyr_X,gyr_Y,gyr_Z
0,-1895,0,98,-4707,23,-344,-143,154
1,-1887,-11,78,-4714,23,-341,-155,127
2,-1889,1,98,-4719,23,-360,-168,135
3,-1892,-9,97,-4710,23,-354,-147,133
4,-1891,-5,95,-4724,23,-354,-157,141
5,-1884,3,89,-4716,23,-352,-135,125
6,-1898,-11,93,-4718,23,-346,-159,121
7,-1894,0,98,-4724,23,-336,-149,134
8,-1895,0,93,-4735,23,-357,-152,148
9,-1894,-1,100,-4728,23,-337,-151,141
10,-1894,-5,95,-4730,23,-361,-151,137
11,-1891,-5,89,-4731,23,-357,-151,139
12,-1894,-6,99,-4728,23,-349,-140,134
13,-1896,-9,86,-4715,23,-364,-158,152
14,-1897,-2,97,-4705,23,-331,-164,131
15,-1896,-11,98,-4720,23,-341,-149,134
16,-1905,2,98,-4716,23,-344,-166,139
17,-1895,-1,82,-4726,23,-357,-151,146
18,-1890,-2,104,-4719,23,-339,-139,129
19,-1893,-2,86,-4720,23,-328,-151,132
20,-1891,-5,101,-4717,23,-334,-156,148
21,-1901,-1,93,-4717,23,-331,-162,134
22,-1891,-5,93,-4713,23,-347,-155,136
23,-1898,9,93,-4719,23,-350,-148,153
24,-1891,-7,101,-4724,23,-346,-158,145
25,-1899,2,83,-4720,23,-346,-143,141
26,-1893,-3,93,-4727,23,-342,-161,147
27,-1899,-5,98,-4717,23,-333,-148,143
28,-1894,3,98,-4711,23,-340,-144,130
29,-1893,-1,92,-4721,23,-340,-165,156
30,-1894,-1,83,-4708,23,-350,-149,148
31,-1892,-1,79,-4733,23,-352,-156,145
32,-1894,-7,110,-4717,23,-327,-160,140
33,-1890,-8,99,-4713,23,-343,-149,148
34,-1891,-10,103,-4705,23,-337,-169,133
35,-1893,-3,95,-4718,23,-350,-160,137
36,-1905,-2,94,-4709,23,-329,-144,124
37,-1896,3,101,-4722,23,-367,-144,156
38,-1901,-2,90,-4704,23,-352,-151,140
39,-1897,-3,105,-4721,23,-357,-130,128
40,-1901,8,95,-4743,23,-360,-143,138
41,-1887,-6,101,-4728,23,-342,-167,150
42,-1900,-5,100,-4717,23,-342,-153,136
43,-1898,2,106,-4712,23,-368,-174,131
44,-1887,5,94,-4717,23,-360,-168,137
45,-1895,-7,98,-4710,23,-354,-155,127
46,-1895,5,87,-4726,23,-339,-149,118
47,-1898,-4,90,-4724,23,-337,-145,137
48,-1899,-3,92,-4723,23,-324,-148,131
49,-1899,1,107,-4724,23,-343,-155,143
50,-1888,-2,93,-4709,23,-342,-153,139
51,-1897,1,84,-4710,23,-351,-169,140
52,-1884,-5,85,-4730,23,-352,-164,129
53,-1894,-4,91,-4723,23,-342,-143,128
54,-1896,-1,88,-4727,23,-358,-146,145
55,-1888,1,70,-4721,23,-363,-150,155
56,-1894,-12,83,-4703,23,-349,-147,132
57,-1889,-7,95,-4712,23,-335,-152,143
58,-1898,-2,91,-4710,23,-363,-137,142
59,-1898,5,93,-4728,23,-341,-144,143
60,-1897,-8,82,-4705,23,-330,-159,145
61,-1885,2,86,-4719,23,-343,-151,143
62,-1896,-2,100,-4729,23,-348,-154,139
63,-1896,0,95,-4728,23,-364,-161,119
64,-1897,0,98,-4719,23,-345,-156,135
65,-1892,-4,104,-4704,23,-325,-138,138
66,-1893,-4,94,-4715,23,-354,-148,143
67,-1896,1,99,-4716,23,-328,-155,135
68,-1900,-3,93,-4705,23,-329,-151,138
69,-1897,-11,79,-4716,23,-349,-153,111
70,-1896,-1,87,-4714,23,-352,-165,136
71,-1893,-7,92,-4711,23,-352,-157,131
72,-1883,-9,88,-4722,23,-337,-160,131
73,-1897,0,104,-4728,23,-346,-159,142
74,-1905,5,105,-4712,23,-351,-147,134
75,-1891,-3,83,-4711,23,-351,-138,145
76,-1895,-10,91,-4723,23,-350,-164,124
77,-1904,-1,84,-4716,23,-347,-163,159
78,-1892,-14,92,-4732,23,-349,-165,128
79,-1899,-6,99,-4711,23,-348,-154,143
80,-1898,2,101,-4707,23,-331,-155,149
81,-1892,-6,110,-4706,23,-342,-166,138
82,-1892,-2,93,-4721,23,-350,-162,147
83,-1892,-1,102,-4721,23,-338,-163,139
84,-1890,4,81,-4712,23,-345,-177,120
85,-1891,0,88,-4723,23,-357,-160,140
86,-1886,-12,82,-4710,23,-359,-140,149
87,-1905,1,104,-4722,23,-347,-154,131
88,-1890,6,90,-4719,23,-337,-162,137
89,-1899,-1,107,-4715,23,-350,-156,135
90,-1897,-1,87,-4723,23,-370,-162,135
91,-1898,-3,85,-4728,23,-347,-145,133
92,-1905,-1,109,-4739,23,-348,-163,141
93,-1903,-11,107,-4723,23,-339,-157,129
94,-1903,2,102,-4724,23,-325,-149,147
95,-1895,-1,90,-4715,23,-356,-135,139
96,-1897,-7,94,-4733,23,-354,-149,146
97,-1900,-4,81,-4714,23,-341,-169,143
98,-1885,-8,100,-4717,23,-342,-140,131
99,-1897,-8,102,-4707,23,-358,-153,134
100,-1896,-7,75,-4713,23,-350,-161,146
101,-1892,-1,97,-4734,23,-349,-163,143
102,-1906,0,88,-4712,23,-364,-158,136
103,-1887,-1,99,-4720,23,-336,-149,137
104,-1893,-7,98,-4722,23,-355,-159,133
105,-1883,-3,68,-4728,23,-336,-149,146
106,-1884,-12,100,-4705,23,-339,-141,130
107,-1875,-4,90,-4718,23,-361,-143,138
108,-1891,2,90,-4726,23,-339,-142,135
109,-1898,-7,90,-4717,23,-345,-161,142
110,-1898,-6,104,-4718,23,-354,-152,138
111,-1894,-2,88,-4718,23,-357,-163,145
112,-1896,-2,109,-4714,23,-340,-133,121
113,-1898,-7,85,-4716,23,-363,-155,149
114,-1900,-3,78,-4717,23,-351,-143,149
115,-1896,-3,99,-4712,23,-359,-154,151
116,-1890,-6,103,-4717,23,-345,-149,147
117,-1894,-16,100,-4709,23,-356,-157,127
118,-1892,0,84,-4717,23,-345,-133,136
119,-1895,-12,89,-4712,23,-343,-161,138
120,-1904,0,96,-4706,23,-346,-147,129
121,-1892,-7,85,-4705,23,-360,-150,136
122,-1897,-2,83,-4720,23,-336,-154,152
123,-1895,-9,86,-4705,23,-341,-141,131
124,-1895,7,105,-4719,23,-344,-152,136
125,-1887,15,85,-4729,23,-351,-151,137
126,-1903,-8,96,-4721,23,-345,-140,123
127,-1894,-2,82,-4703,23,-345,-146,134
128,-1892,0,108,-4715,23,-346,-147,141
129,-1900,-9,98,-4710,23,-347,-163,132
130,-1900,8,109,-4722,23,-340,-166,137
131,-1890,-7,95,-4704,23,-341,-128,146
132,-1894,5,101,-4718,23,-345,-158,137
133,-1899,10,98,-4713,23,-360,-154,143
134,-1905,3,84,-4723,23,-345,-157,159
135,-1894,6,90,-4716,23,-351,-165,132
136,-1892,2,87,-4744,23,-339,-163,142
137,-1896,-5,90,-4721,23,-367,-162,121
138,-1894,-4,105,-4712,23,-358,-157,123
139,-1893,3,87,-4712,23,-352,-162,146
140,-1907,-6,102,-4717,23,-348,-168,146
141,-1880,1,91,-4721,23,-344,-158,156
142,-1889,-8,100,-4728,23,-341,-139,146
143,-1897,-1,102,-4717,23,-359,-152,158
144,-1887,-3,109,-4737,23,-340,-157,136
145,-1896,2,96,-4711,23,-354,-157,137
146,-1894,6,97,-4716,23,-354,-143,146
147,-1903,-7,88,-4714,23,-331,-147,132
148,-1895,-5,79,-4722,23,-334,-146,148
149,-1904,-3,97,-4714,23,-341,-149,141
150,-1897,-7,86,-4725,23,-341,-144,134
151,-1895,11,87,-4717,23,-350,-151,163
152,-1895,-8,94,-4720,23,-336,-153,152
153,-1899,0,82,-4721,23,-369,-143,147
154,-1905,6,100,-4710,23,-337,-167,137
155,-1896,2,89,-4712,23,-348,-140,146
156,-1891,1,100,-4711,23,-347,-150,145
157,-1887,-6,91,-4722,23,-349,-156,141
158,-1890,2,97,-4717,23,-326,-153,135
159,-1889,-4,101,-4708,23,-345,-144,137
160,-1897,0,97,-4726,23,-340,-162,139
161,-1890,-9,91,-4715,23,-349,-154,140
162,-1895,-2,98,-4720,23,-352,-158,148
163,-1897,1,92,-4731,23,-335,-141,140
164,-1891,-4,100,-4722,23,-336,-150,128
165,-1897,13,89,-4722,23,-343,-147,125
166,-1891,-5,85,-4730,23,-349,-156,135
167,-1899,-10,86,-4703,23,-352,-147,127
168,-1901,1,93,-4732,23,-335,-161,147
169,-1898,1,103,-4724,23,-352,-154,136
170,-1903,-4,79,-4715,23,-351,-144,135
171,-1904,-10,67,-4720,23,-341,-155,153
172,-1898,1,84,-4705,23,-344,-145,124
173,-1894,-4,90,-4718,23,-363,-166,131
174,-1895,-6,85,-4715,23,-361,-169,133
175,-1904,0,94,-4713,23,-338,-138,148
176,-1891,0,73,-4714,23,-336,-151,140
177,-1892,-11,109,-4703,23,-354,-158,145
178,-1889,-2,92,-4713,23,-342,-158,112
179,-1897,6,94,-4722,23,-353,-157,139
180,-1889,-5,89,-4724,23,-342,-167,129
181,-1906,1,84,-4722,23,-362,-142,125
182,-1889,-4,84,-4717,23,-332,-154,141
183,-1896,-1,91,-4716,23,-349,-152,129
184,-1901,-10,88,-4711,23,-327,-159,139
185,-1893,-7,89,-4721,23,-354,-157,139
186,-1895,-4,93,-4716,23,-342,-144,144
187,-1897,-7,92,-4720,23,-343,-153,146
188,-1895,2,99,-4723,23,-336,-137,139
189,-1895,3,100,-4718,23,-342,-162,150
190,-1887,-1,88,-4711,23,-342,-141,144
191,-1896,1,80,-4713,23,-370,-153,129
192,-1887,-2,78,-4719,23,-341,-139,150
193,-1901,4,91,-4718,23,-357,-162,138
194,-1911,3,93,-4719,23,-318,-138,143
195,-1890,-10,93,-4721,23,-357,-148,135
196,-1906,-14,100,-4732,23,-343,-162,139
197,-1902,-12,95,-4720,23,-344,-137,145
198,-1897,4,88,-4732,23,-356,-142,131
199,-1887,-11,79,-4722,23,-344,-166,121
200,-1893,-3,94,-4716,23,-343,-155,141
201,-1888,8,111,-4729,23,-341,-151,150
202,-1900,-11,95,-4706,23,-350,-147,133
203,-1887,0,107,-4717,23,-341,-142,127
204,-1909,-7,85,-4716,23,-358,-158,137
205,-1890,5,98,-4725,23,-331,-162,145
206,-1893,-10,86,-4719,23,-350,-133,154
207,-1891,2,91,-4726,23,-343,-170,153
208,-1888,-16,89,-4709,23,-343,-152,148
209,-1898,2,103,-4716,23,-334,-162,154
210,-1890,-8,95,-4737,23,-355,-155,123
211,-1900,-2,94,-4714,23,-349,-138,148
212,-1891,-8,111,-4720,23,-347,-155,121
213,-1900,-5,95,-4728,23,-344,-158,141
214,-1890,-2,90,-4722,23,-332,-151,144
215,-1899,-1,89,-4738,23,-349,-157,124
216,-1892,-1,97,-4728,23,-353,-134,138
217,-1890,-3,90,-4710,23,-329,-172,129
218,-1900,8,92,-4729,23,-327,-166,133
219,-1895,-4,104,-4717,23,-355,-155,144
220,-1899,-1,104,-4731,23,-334,-162,158
221,-1898,-7,75,-4728,23,-325,-162,134
222,-1890,9,80,-4734,23,-356,-149,151
223,-1892,-1,84,-4726,23,-345,-162,140
224,-1893,10,93,-4703,23,-352,-150,145
225,-1899,-4,92,-4729,23,-335,-158,154
226,-1890,-6,94,-4735,23,-358,-155,139
227,-1896,1,87,-4717,23,-353,-146,140
228,-1901,-15,103,-4702,23,-350,-143,155
229,-1897,2,104,-4721,23,-347,-151,135
230,-1892,5,90,-4726,23,-347,-159,132
231,-1900,-8,92,-4708,23,-329,-146,135
232,-1899,3,97,-4724,23,-370,-160,137
233,-1885,0,91,-4711,23,-331,-140,132
234,-1891,-7,85,-4724,23,-339,-150,145
235,-1895,6,84,-4729,23,-354,-158,149
236,-1894,-3,98,-4710,23,-350,-146,148
237,-1897,-3,92,-4700,23,-345,-157,146
238,-1893,-3,91,-4711,23,-330,-150,146
239,-1901,-2,101,-4729,23,-340,-140,133
240,-1893,-1,88,-4722,23,-344,-161,142
241,-1894,-1,90,-4710,23,-349,-163,162
242,-1883,3,88,-4731,23,-355,-144,141
243,-1894,0,90,-4714,23,-348,-143,138
244,-1899,-1,101,-4722,23,-346,-147,119
245,-1888,0,69,-4739,23,-336,-150,153
246,-1895,-3,97,-4721,23,-349,-150,152
247,-1897,7,87,-4716,23,-332,-147,139
248,-1901,0,82,-4725,23,-340,-147,160
249,-1900,3,97,-4717,23,-344,-159,149
250,-1895,-2,86,-4723,23,-356,-120,153
251,-1894,6,94,-4729,23,-347,-161,140
252,-1895,-12,88,-4728,23,-351,-158,149
253,-1891,2,107,-4715,23,-322,-176,132
254,-1887,-3,78,-4724,23,-342,-148,139
255,-1896,2,90,-4709,23,-345,-169,136
256,-1898,-6,113,-4707,23,-345,-153,155
257,-1896,4,95,-4720,23,-337,-152,146
258,-1892,0,80,-4733,23,-355,-149,141
259,-1895,-10,92,-4704,23,-356,-141,146
260,-1889,2,83,-4710,23,-335,-151,137
261,-1895,-1,107,-4742,23,-347,-136,123
262,-1900,-7,84,-4728,23,-339,-153,132
263,-1899,-2,97,-4722,23,-357,-152,139
264,-1889,9,89,-4715,23,-353,-154,136
265,-1897,-2,85,-4728,23,-346,-151,142
266,-1900,3,88,-4724,23,-344,-157,130
267,-1897,-12,113,-4716,23,-361,-147,131
268,-1895,-4,90,-4721,23,-342,-155,125
269,-1891,-6,88,-4716,23,-344,-154,143
270,-1893,-1,94,-4721,23,-344,-153,135
271,-1900,1,94,-4725,23,-340,-152,121
272,-1891,1,91,-4716,23,-355,-148,122
273,-1903,0,95,-4720,23,-345,-147,147
274,-1888,-7,89,-4721,23,-332,-142,140
275,-1900,-4,80,-4728,23,-347,-157,131
276,-1900,1,90,-4731,23,-341,-153,139
277,-1904,2,92,-4723,23,-348,-141,134
278,-1901,-9,92,-4724,23,-342,-166,132
279,-1898,4,89,-4731,23,-341,-149,136
280,-1898,-4,93,-4724,23,-341,-152,130
281,-1897,1,96,-4729,23,-336,-155,148
282,-1889,6,79,-4712,23,-347,-143,131
283,-1899,0,97,-4713,23,-347,-169,133
284,-1884,3,90,-4708,23,-355,-163,148
285,-1889,-14,95,-4732,23,-338,-165,146
286,-1886,-5,88,-4730,23,-325,-154,134
287,-1897,-8,88,-4726,23,-337,-154,147
288,-1903,-2,108,-4721,23,-363,-137,128
289,-1893,7,106,-4723,23,-355,-164,138
290,-1895,3,93,-4718,23,-348,-175,140
291,-1889,-10,86,-4705,23,-327,-158,130
292,-1892,-3,94,-4716,23,-368,-159,152
293,-1892,3,82,-4710,23,-345,-147,134
294,-1902,-5,86,-4711,23,-347,-149,132
295,-1893,-1,97,-4713,23,-335,-144,134
296,-1897,6,90,-4717,23,-335,-132,137
297,-1891,-5,104,-4720,23,-332,-142,146
298,-1897,-6,93,-4720,23,-352,-174,146
299,-1895,-1,82,-4729,23,-335,-156,137
300,-1885,8,96,-4726,23,-353,-149,146
301,-1900,-5,102,-4704,23,-344,-156,146
302,-1905,2,79,-4729,23,-348,-156,135
303,-1900,6,90,-4720,23,-346,-159,148
304,-1885,-1,88,-4723,23,-346,-147,140
305,-1893,-6,93,-4732,23,-349,-163,140
306,-1892,2,95,-4728,23,-348,-160,147
307,-1880,-8,92,-4706,23,-347,-155,135
308,-1891,0,94,-4718,23,-344,-153,154
309,-1889,-9,111,-4723,23,-333,-142,143
310,-1898,2,91,-4730,23,-350,-151,146
311,-1898,5,83,-4711,23,-333,-167,145
312,-1907,-5,89,-4709,23,-350,-159,135
313,-1894,1,105,-4719,23,-345,-146,125
314,-1896,-5,91,-4713,23,-346,-161,132
315,-1893,-7,100,-4724,23,-362,-136,139
316,-1894,1,93,-4730,23,-360,-143,144
317,-1901,-3,83,-4728,23,-330,-152,161
318,-1895,-4,80,-4713,23,-348,-143,139
319,-1890,3,104,-4723,23,-350,-164,145
320,-1895,-8,99,-4715,23,-341,-151,129
321,-1898,4,86,-4707,23,-334,-153,135
322,-1888,0,97,-4716,23,-342,-161,139
323,-1896,0,82,-4715,23,-340,-155,142
324,-1897,2,82,-4731,23,-359,-156,139
325,-1885,-4,94,-4721,23,-348,-145,139
326,-1893,1,89,-4722,23,-348,-151,142
327,-1900,-5,106,-4718,23,-348,-162,137
328,-1898,2,87,-4713,23,-312,-157,140
329,-1903,-1,93,-4716,23,-353,-136,148
330,-1906,5,92,-4735,23,-347,-160,130
331,-1891,-13,98,-4731,23,-343,-153,144
332,-1900,3,102,-4715,23,-350,-175,138
333,-1897,-9,91,-4717,23,-355,-157,151
334,-1885,2,95,-4723,23,-332,-151,151
335,-1888,-7,85,-4718,23,-356,-175,150
336,-1890,1,96,-4718,23,-347,-155,152
337,-1898,1,96,-4717,23,-354,-144,149
338,-1910,4,94,-4719,23,-343,-161,142
339,-1896,-11,96,-4720,23,-346,-156,132
340,-1905,-2,107,-4726,23,-341,-156,132
341,-1884,5,101,-4712,23,-336,-156,156
342,-1894,-5,93,-4723,23,-357,-142,123
343,-1897,3,97,-4724,23,-361,-152,139
344,-1883,6,88,-4719,23,-342,-160,120
345,-1896,-7,80,-4722,23,-338,-150,141
346,-1904,-14,99,-4724,23,-353,-146,119
347,-1892,-21,106,-4737,23,-359,-167,128
348,-1895,6,101,-4727,23,-344,-172,125
349,-1892,-4,90,-4704,23,-339,-158,134
350,-1890,-4,106,-4719,23,-343,-161,151
351,-1892,7,86,-4720,23,-349,-161,138
352,-1900,2,113,-4707,23,-349,-149,136
353,-1881,-6,85,-4717,23,-338,-148,128
354,-1899,2,95,-4724,23,-338,-164,137
355,-1892,1,103,-4731,23,-322,-153,142
356,-1897,-2,98,-4719,23,-346,-158,144
357,-1893,2,106,-4717,23,-337,-159,131
358,-1897,-2,92,-4715,23,-350,-147,131
359,-1894,3,93,-4724,23,-355,-167,150
360,-1895,6,92,-4721,23,-347,-161,137
361,-1894,1,91,-4721,23,-337,-135,123
362,-1890,-3,83,-4733,23,-340,-161,146
363,-1895,-1,103,-4723,23,-345,-170,129
364,-1894,0,83,-4717,23,-354,-161,123
365,-1899,1,93,-4720,23,-347,-142,134
366,-1894,12,107,-4717,23,-344,-157,151
367,-1900,11,90,-4726,23,-342,-147,139
368,-1902,-9,85,-4725,23,-347,-166,132
369,-1895,0,83,-4719,23,-351,-147,146
370,-1884,-4,92,-4707,23,-337,-158,129
371,-1889,-4,89,-4728,23,-340,-153,149
372,-1900,6,91,-4716,23,-360,-143,122
373,-1896,-5,88,-4708,23,-322,-145,145
374,-1901,-3,86,-4718,23,-336,-139,148
375,-1893,4,91,-4722,23,-340,-152,139
376,-1898,3,97,-4721,23,-353,-151,123
377,-1895,0,104,-4723,23,-355,-157,150
378,-1903,-2,94,-4713,23,-342,-159,144
379,-1896,-4,80,-4719,23,-332,-146,144
380,-1897,1,107,-4717,23,-348,-153,145
381,-1896,-8,93,-4727,23,-335,-153,137
382,-1892,-4,108,-4727,23,-340,-147,144
383,-1885,-13,102,-4716,23,-338,-168,144
384,-1898,9,97,-4713,23,-334,-147,134
385,-1897,-6,89,-4726,23,-344,-169,137
386,-1892,-7,84,-4713,23,-334,-156,132
387,-1891,-3,97,-4706,23,-338,-147,137
388,-1897,15,90,-4724,23,-354,-137,138
389,-1896,-1,103,-4714,23,-352,-138,152
390,-1898,-1,81,-4714,23,-338,-151,129
391,-1901,-5,84,-4712,23,-333,-161,150
392,-1889,1,95,-4719,23,-350,-158,130
393,-1899,0,107,-4719,23,-336,-138,144
394,-1894,2,101,-4723,23,-340,-166,143
395,-1900,-13,102,-4716,23,-343,-161,141
396,-1900,-4,101,-4710,23,-335,-146,142
397,-1890,0,101,-4720,23,-366,-156,137
398,-1883,2,100,-4728,23,-333,-152,143
399,-1896,-1,88,-4714,23,-341,-165,141
400,-1885,-3,91,-4724,23,-358,-161,147
401,-1892,-4,100,-4719,23,-362,-161,135
402,-1904,-3,86,-4727,23,-364,-157,144
403,-1889,-15,93,-4722,23,-338,-143,129
404,-1896,-3,89,-4716,23,-339,-162,147
405,-1900,6,88,-4732,23,-339,-163,124
406,-1889,0,90,-4720,23,-332,-148,151
407,-1894,2,94,-4715,23,-335,-153,139
408,-1900,-4,99,-4731,23,-339,-165,123
409,-1893,2,101,-4742,23,-351,-137,141
410,-1902,3,97,-4721,23,-346,-148,146
411,-1890,1,86,-4717,23,-339,-156,150
412,-1891,-6,86,-4731,23,-336,-158,148
413,-1896,-1,93,-4709,23,-361,-156,140
414,-1888,1,90,-4719,23,-348,-138,122
415,-1896,5,93,-4728,23,-339,-170,141
416,-1900,-2,103,-4726,23,-357,-155,148
417,-1900,2,82,-4718,23,-365,-158,139
418,-1891,-2,102,-4717,23,-353,-166,136
419,-1887,-4,91,-4716,23,-347,-170,143
420,-1896,4,93,-4715,23,-343,-142,132
421,-1895,3,83,-4705,23,-343,-150,124
422,-1897,11,86,-4710,23,-342,-159,140
423,-1896,-5,87,-4710,23,-348,-160,148
424,-1888,-4,85,-4713,23,-354,-148,130
425,-1897,-4,98,-4705,23,-363,-161,133
426,-1898,0,86,-4714,23,-349,-168,140
427,-1887,-3,98,-4732,23,-347,-131,139
428,-1883,1,96,-4712,23,-349,-160,141
429,-1896,-3,101,-4703,23,-351,-153,151
430,-1894,-2,95,-4710,23,-344,-169,127
431,-1897,8,85,-4724,23,-337,-164,142
432,-1895,-5,97,-4717,23,-345,-148,136
433,-1903,-3,84,-4723,23,-351,-150,148
434,-1891,-4,89,-4723,23,-327,-152,140
435,-1887,-10,92,-4731,23,-327,-153,134
436,-1910,1,80,-4713,23,-357,-140,123
437,-1890,7,103,-4714,23,-351,-159,146
438,-1889,1,98,-4719,23,-352,-134,141
439,-1892,-8,102,-4725,23,-330,-151,136
440,-1897,4,99,-4727,23,-348,-145,131
441,-1887,0,90,-4712,23,-338,-170,123
442,-1895,-10,91,-4717,23,-352,-121,148
443,-1894,-8,89,-4717,23,-360,-148,164
444,-1900,-3,101,-4724,23,-346,-139,137
445,-1897,7,89,-4730,23,-331,-152,144
446,-1888,-5,94,-4705,23,-352,-148,148
447,-1899,9,100,-4702,23,-354,-147,152
448,-1889,-3,101,-4719,23,-354,-145,136
449,-1889,-1,92,-4728,23,-348,-163,154
450,-1899,7,92,-4734,23,-341,-124,147
451,-1895,2,89,-4733,23,-356,-143,148
452,-1894,-2,85,-4713,23,-314,-154,124
453,-1888,5,105,-4714,23,-336,-174,143
454,-1903,6,91,-4717,23,-348,-175,131
455,-1893,-9,102,-4726,23,-358,-168,136
456,-1885,-4,86,-4712,23,-352,-162,149
457,-1892,-2,84,-4724,23,-352,-147,164
458,-1899,1,98,-4722,23,-334,-139,159
459,-1886,-3,103,-4718,23,-363,-148,153
460,-1887,-9,91,-4722,23,-335,-166,149
461,-1898,-2,97,-4721,23,-346,-181,129
462,-1890,-3,105,-4718,23,-334,-149,126
463,-1896,-3,91,-4709,23,-359,-131,150
464,-1908,-6,105,-4729,23,-343,-155,149
465,-1893,-5,92,-4716,23,-359,-157,126
466,-1882,-8,97,-4722,23,-354,-166,134
467,-1904,7,77,-4710,23,-350,-156,133
468,-1895,-9,104,-4715,23,-317,-140,137
469,-1898,-4,96,-4699,23,-347,-160,128
470,-1898,-5,89,-4704,23,-342,-172,142
471,-1897,-5,97,-4724,23,-354,-138,146
472,-1892,-1,100,-4714,23,-366,-158,150
473,-1896,-5,100,-4725,23,-362,-159,145
474,-1886,-7,95,-4722,23,-350,-133,141
475,-1891,-12,98,-4717,23,-354,-156,164
476,-1901,2,81,-4714,23,-351,-180,154
477,-1886,9,103,-4716,23,-351,-178,136
478,-1898,-4,94,-4711,23,-352,-151,126
479,-1892,-2,93,-4712,23,-348,-151,133
480,-1895,-7,86,-4709,23,-338,-163,135
481,-1893,13,104,-4723,23,-352,-157,132
482,-1891,-8,93,-4718,23,-342,-172,121
483,-1900,-1,100,-4720,23,-341,-134,136
484,-1888,-1,87,-4716,23,-322,-139,122
485,-1901,-2,99,-4728,23,-358,-145,152
486,-1900,-5,99,-4722,23,-351,-151,142
487,-1897,-14,98,-4715,23,-335,-164,144
488,-1892,3,97,-4719,23,-348,-166,132
489,-1890,6,100,-4706,23,-352,-155,152
490,-1888,-12,85,-4726,23,-345,-166,141
491,-1888,-8,103,-4721,23,-342,-146,131
492,-1903,6,97,-4722,23,-334,-146,146
493,-1894,0,98,-4708,23,-340,-148,140
494,-1891,-13,94,-4709,23,-345,-147,150
495,-1894,-16,86,-4716,23,-359,-161,134
496,-1890,-14,91,-4722,23,-342,-146,145
497,-1891,-7,90,-4728,23,-356,-149,139
498,-1885,-11,100,-4729,23,-343,-167,143
499,-1893,2,95,-4732,23,-329,-158,142
500,-1890,1,104,-4728,23,-348,-144,149
501,-1904,-1,77,-4732,23,-359,-141,132
502,-1908,0,97,-4723,23,-340,-155,136
503,-1890,-6,94,-4719,23,-341,-161,140
504,-1888,15,91,-4721,23,-337,-157,138
505,-1899,-4,88,-4698,23,-356,-159,152
506,-1895,-5,89,-4720,23,-352,-154,148
507,-1889,-1,112,-4720,23,-354,-165,141
508,-1895,-2,83,-4716,23,-368,-144,139
509,-1906,-6,95,-4721,23,-354,-137,147
510,-1894,3,95,-4737,23,-354,-146,132
511,-1890,2,90,-4718,23,-346,-163,146
512,-1901,-5,97,-4707,23,-332,-181,136
513,-1891,1,100,-4726,23,-374,-137,133
514,-1898,-2,81,-4725,23,-349,-158,137
515,-1899,-2,84,-4724,23,-338,-126,135
516,-1890,-3,86,-4708,23,-347,-154,130
517,-1889,-2,88,-4712,23,-315,-139,147
518,-1890,-11,105,-4710,23,-363,-152,133
519,-1888,6,87,-4716,23,-355,-150,150
520,-1893,0,96,-4728,23,-364,-155,137
521,-1898,7,104,-4715,23,-347,-169,153
522,-1891,0,106,-4717,23,-346,-144,137
523,-1891,-6,87,-4716,23,-350,-152,139
524,-1892,0,93,-4717,23,-358,-152,134
525,-1891,-4,83,-4724,23,-352,-139,131
526,-1888,-5,95,-4714,23,-352,-151,143
527,-1899,-8,105,-4723,23,-353,-151,148
528,-1893,-1,89,-4732,23,-344,-142,159
529,-1907,-1,92,-4725,23,-356,-163,134
530,-1892,-4,88,-4735,23,-361,-165,133
531,-1905,-1,109,-4710,23,-354,-144,157
532,-1895,-2,99,-4725,23,-348,-160,138
533,-1894,-4,94,-4723,23,-349,-150,140
534,-1894,-3,92,-4721,23,-352,-154,151
535,-1906,9,106,-4719,23,-346,-142,133
536,-1891,-11,84,-4731,23,-350,-154,144
537,-1889,6,88,-4726,23,-348,-154,143
538,-1904,-11,89,-4709,23,-344,-151,145
539,-1893,0,88,-4716,23,-353,-145,142
540,-1896,-4,79,-4708,23,-342,-129,144
541,-1898,-3,101,-4709,23,-356,-154,128
542,-1893,3,104,-4718,23,-360,-145,146
543,-1892,-6,86,-4727,23,-349,-160,142
544,-1896,2,90,-4713,23,-363,-145,129
545,-1890,-2,90,-4705,23,-353,-153,148
546,-1897,-2,81,-4714,23,-343,-154,148
547,-1885,1,85,-4734,23,-349,-153,116
548,-1887,-5,105,-4717,23,-326,-163,145
549,-1900,-12,85,-4718,23,-349,-149,127
550,-1893,2,86,-4718,23,-360,-148,146
551,-1891,-4,83,-4714,23,-358,-160,147
552,-1903,-4,90,-4716,23,-337,-154,154
553,-1893,-10,86,-4722,23,-345,-133,134
554,-1902,6,80,-4704,23,-348,-146,149
555,-1890,-1,96,-4714,23,-338,-152,134
556,-1902,-11,106,-4728,23,-340,-149,137
557,-1897,2,91,-4716,23,-345,-155,145
558,-1887,-8,86,-4713,23,-345,-144,146
559,-1890,1,84,-4711,23,-337,-146,148
560,-1898,3,108,-4722,23,-346,-149,148
561,-1896,-1,89,-4711,23,-344,-154,150
562,-1894,1,101,-4714,23,-342,-159,151
563,-1900,0,88,-4711,23,-340,-157,136
564,-1894,-2,90,-4709,23,-347,-162,142
565,-1893,4,97,-4702,23,-360,-127,132
566,-1901,-13,85,-4722,23,-350,-146,140
567,-1894,-8,85,-4720,23,-332,-167,123
568,-1899,2,92,-4708,23,-347,-152,133
569,-1895,-12,99,-4731,23,-348,-165,124
570,-1898,-7,86,-4718,23,-350,-157,160
571,-1903,0,93,-4726,23,-358,-166,129
572,-1892,1,77,-4715,23,-341,-153,143
573,-1890,0,93,-4722,23,-351,-158,148
574,-1905,-6,87,-4708,23,-357,-162,140
575,-1893,-8,88,-4717,23,-350,-138,151
576,-1886,8,109,-4717,23,-353,-153,121
577,-1903,-5,106,-4707,23,-341,-164,131
578,-1894,0,84,-4721,23,-356,-147,158
579,-1890,4,88,-4726,23,-336,-163,161
580,-1897,-4,84,-4727,23,-344,-147,139
581,-1889,0,88,-4709,23,-333,-155,151
582,-1895,-15,80,-4714,23,-342,-137,142
583,-1892,-5,93,-4702,23,-349,-143,137
584,-1893,6,91,-4719,23,-331,-146,143
585,-1892,3,110,-4707,23,-346,-156,138
586,-1886,0,93,-4722,23,-355,-142,129
587,-1897,1,83,-4716,23,-345,-161,149
588,-1889,7,87,-4709,23,-351,-133,148
589,-1906,0,91,-4719,23,-348,-163,135
590,-1896,7,90,-4718,23,-354,-156,134
591,-1895,-7,89,-4727,23,-358,-147,138
592,-1892,-2,102,-4709,23,-346,-130,133
593,-1900,7,95,-4725,23,-357,-149,132
594,-1897,-6,97,-4721,23,-348,-143,139
595,-1899,5,88,-4718,23,-367,-145,139
596,-1896,-4,102,-4722,23,-335,-157,140
597,-1899,0,82,-4721,23,-332,-149,145
598,-1892,-1,100,-4711,23,-337,-136,121
599,-1900,5,94,-4722,23,-343,-148,139
600,-1896,-5,96,-4710,23,-335,-168,129
601,-1899,1,92,-4717,23,-347,-151,156
602,-1893,-1,90,-4727,23,-353,-154,132
603,-1901,-1,93,-4723,23,-349,-178,136
604,-1889,-1,79,-4713,23,-352,-173,144
605,-1893,-6,94,-4723,23,-345,-171,140
606,-1897,6,102,-4710,23,-350,-149,130
607,-1889,-1,80,-4720,23,-345,-146,135
608,-1890,-9,89,-4712,23,-364,-129,127
609,-1900,-7,91,-4722,23,-361,-150,137
610,-1888,1,98,-4723,23,-345,-160,151
611,-1886,-3,110,-4727,23,-346,-170,124
612,-1895,-2,107,-4720,23,-347,-148,149
613,-1899,-8,96,-4710,23,-365,-150,125
614,-1892,-11,86,-4709,23,-348,-136,135
615,-1898,-8,78,-4723,23,-356,-142,150
616,-1896,1,93,-4725,23,-348,-143,149
617,-1888,-8,92,-4721,23,-359,-159,141
618,-1890,-5,85,-4720,23,-337,-157,154
619,-1889,5,113,-4716,23,-361,-145,137
620,-1894,-4,101,-4712,23,-351,-144,147
621,-1889,9,104,-4720,23,-337,-170,134
622,-1891,1,91,-4715,23,-339,-170,130
623,-1893,-3,99,-4712,23,-355,-154,135
624,-1898,-1,93,-4718,23,-345,-169,139
625,-1895,-4,92,-4719,23,-344,-150,148
626,-1900,8,88,-4710,23,-346,-155,125
627,-1898,11,100,-4717,23,-334,-162,135
628,-1901,-4,85,-4712,23,-357,-156,145
629,-1893,-3,73,-4715,23,-360,-153,108
630,-1892,-2,87,-4719,23,-358,-144,153
631,-1890,8,106,-4710,23,-352,-171,137
632,-1890,-19,107,-4713,23,-345,-143,132
633,-1887,5,88,-4712,23,-336,-157,151
634,-1881,-1,107,-4715,23,-348,-143,138
635,-1895,1,102,-4702,23,-358,-167,143
636,-1896,2,101,-4712,23,-323,-156,138
637,-1897,2,99,-4713,23,-346,-161,147
638,-1903,3,92,-4716,23,-343,-152,140
639,-1889,1,88,-4710,23,-367,-156,155
640,-1885,-7,86,-4712,23,-358,-148,145
641,-1901,1,91,-4724,23,-340,-159,143
642,-1888,-2,102,-4719,23,-346,-163,151
643,-1890,-10,80,-4715,23,-347,-152,135
644,-1901,3,103,-4726,23,-346,-156,145
645,-1898,-8,89,-4723,23,-347,-167,139
646,-1889,-6,87,-4730,23,-350,-144,125
647,-1893,12,93,-4713,23,-346,-156,134
648,-1898,-4,98,-4726,23,-338,-147,132
649,-1894,1,96,-4717,23,-352,-158,138
650,-1894,-1,96,-4718,23,-343,-136,119
651,-1889,-11,89,-4717,23,-345,-168,127
652,-1891,4,99,-4722,23,-331,-166,152
653,-1890,3,90,-4715,23,-345,-160,132
654,-1888,-6,90,-4710,23,-345,-158,129
655,-1895,-1,96,-4710,23,-343,-163,139
656,-1889,-6,97,-4707,23,-342,-160,132
657,-1893,3,86,-4713,23,-363,-161,150
658,-1899,0,101,-4715,23,-355,-145,144
659,-1893,-9,86,-4725,23,-352,-162,158
660,-1892,-7,92,-4719,23,-362,-164,129
661,-1891,-5,85,-4710,23,-332,-169,151
662,-1901,-7,101,-4726,23,-345,-150,130
663,-1902,1,99,-4715,23,-349,-127,143
664,-1898,-4,86,-4720,23,-357,-141,137
665,-1891,-8,93,-4710,23,-359,-154,142
666,-1890,4,103,-4726,23,-348,-149,133
667,-1900,5,91,-4713,23,-342,-171,137
668,-1894,-7,95,-4713,23,-360,-144,129
669,-1899,4,83,-4715,23,-348,-147,137
670,-1895,-3,97,-4712,23,-332,-146,141
671,-1895,-5,102,-4724,23,-348,-149,148
672,-1896,-1,87,-4714,23,-350,-153,131
673,-1893,-1,94,-4726,23,-345,-157,136
674,-1893,-4,92,-4710,23,-350,-158,129
675,-1896,-2,107,-4718,23,-317,-144,146
676,-1895,1,89,-4727,23,-353,-162,145
677,-1895,4,99,-4738,23,-337,-161,127
678,-1886,-8,114,-4704,23,-336,-166,147
679,-1893,-2,86,-4717,23,-350,-140,136
680,-1895,1,94,-4716,23,-359,-148,139
681,-1898,-7,86,-4740,23,-349,-147,127
682,-1895,-7,95,-4717,23,-356,-167,145
683,-1901,-1,88,-4713,23,-350,-161,132
684,-1887,-5,95,-4734,23,-339,-151,129
685,-1892,-7,81,-4726,23,-349,-165,143
686,-1894,3,93,-4714,23,-364,-156,117
687,-1900,1,100,-4721,23,-329,-162,114
688,-1897,-2,98,-4711,23,-344,-163,143
689,-1899,-2,83,-4713,23,-348,-145,141
690,-1896,-5,89,-4712,23,-351,-160,158
691,-1912,-3,97,-4718,23,-354,-143,129
692,-1892,6,115,-4697,23,-342,-165,130
693,-1902,0,101,-4708,23,-334,-145,152
694,-1892,0,97,-4724,23,-320,-152,143
695,-1881,-4,87,-4714,23,-347,-135,145
696,-1899,-9,95,-4724,23,-355,-156,136
697,-1894,0,89,-4729,23,-333,-177,146
698,-1890,-12,93,-4714,23,-353,-150,132
699,-1891,-4,82,-4720,23,-342,-183,141
700,-1893,0,111,-4717,23,-351,-137,149
701,-1895,0,85,-4711,23,-341,-156,136
702,-1901,-1,90,-4709,23,-344,-146,150
703,-1906,6,107,-4724,23,-344,-151,140
704,-1899,-4,100,-4720,23,-348,-169,145
705,-1881,-1,96,-4710,23,-361,-143,144
706,-1897,-13,101,-4720,23,-331,-156,133
707,-1890,-13,76,-4715,23,-353,-154,140
708,-1897,-10,94,-4724,23,-367,-157,138
709,-1903,1,89,-4722,23,-326,-173,134
710,-1889,-10,93,-4713,23,-333,-143,150
711,-1893,1,90,-4731,23,-350,-154,142
712,-1901,-1,79,-4716,23,-369,-156,145
713,-1895,1,93,-4723,23,-327,-161,146
714,-1887,-5,91,-4721,23,-351,-153,131
715,-1892,-4,78,-4702,23,-333,-153,140
716,-1891,0,82,-4715,23,-329,-161,136
717,-1889,-7,102,-4725,23,-339,-137,147
718,-1900,-11,96,-4722,23,-341,-135,134
719,-1901,2,81,-4716,23,-352,-146,147
720,-1895,-1,100,-4708,23,-335,-162,145
721,-1896,-1,95,-4712,23,-347,-157,152
722,-1893,-7,97,-4710,23,-341,-160,136
723,-1893,-4,92,-4716,23,-341,-139,127
724,-1893,-4,98,-4720,23,-344,-159,139
725,-1893,6,102,-4715,23,-366,-161,137
726,-1897,-1,87,-4712,23,-338,-144,133
727,-1891,-1,93,-4726,23,-338,-146,136
728,-1885,4,105,-4708,23,-354,-166,149
729,-1894,-2,83,-4718,23,-345,-139,154
730,-1894,0,92,-4718,23,-344,-154,133
731,-1885,8,86,-4721,23,-345,-148,132
732,-1888,5,90,-4714,23,-347,-151,137
733,-1905,-6,96,-4726,23,-356,-146,134
734,-1896,4,117,-4720,23,-332,-143,142
735,-1897,1,99,-4714,23,-327,-156,127
736,-1893,1,92,-4709,23,-351,-143,135
737,-1889,8,82,-4721,23,-330,-145,148
738,-1892,-1,96,-4718,23,-357,-138,126
739,-1891,-5,96,-4726,23,-341,-176,127
740,-1886,5,98,-4710,23,-357,-168,157
741,-1896,-2,79,-4726,23,-337,-159,133
742,-1896,-16,83,-4713,23,-339,-151,144
743,-1904,-2,90,-4702,23,-366,-171,149
744,-1902,-7,94,-4703,23,-344,-148,157
745,-1895,-4,93,-4706,23,-338,-153,141
746,-1894,3,71,-4710,23,-346,-150,128
747,-1896,-3,85,-4708,23,-343,-150,152
748,-1903,-4,90,-4709,23,-353,-170,123
749,-1889,0,86,-4710,23,-346,-168,133
750,-1899,-1,92,-4714,23,-355,-147,140
751,-1894,-6,93,-4708,23,-357,-154,151
752,-1893,0,98,-4707,23,-347,-151,126
753,-1903,-7,91,-4717,23,-352,-153,131
754,-1893,10,91,-4713,23,-352,-143,130
755,-1895,-5,101,-4719,23,-353,-155,144
756,-1896,-2,89,-4715,23,-344,-149,162
757,-1906,-11,87,-4708,23,-361,-160,136
758,-1901,-4,103,-4710,23,-342,-160,141
759,-1896,-4,102,-4718,23,-358,-149,132
760,-1896,2,92,-4725,23,-356,-140,132
761,-1890,-1,88,-4720,23,-338,-142,144
762,-1888,-4,94,-4704,23,-348,-161,136
763,-1897,1,94,-4718,23,-338,-143,139
764,-1892,-2,81,-4707,23,-342,-166,138
765,-1885,1,106,-4712,23,-344,-166,143
766,-1896,-11,100,-4707,23,-352,-173,135
767,-1891,-7,99,-4724,23,-346,-152,137
768,-1897,-1,91,-4715,23,-326,-151,148
769,-1889,10,91,-4719,23,-336,-165,145
770,-1900,0,89,-4717,23,-351,-151,126
771,-1901,-6,98,-4701,23,-364,-156,129
772,-1895,-2,88,-4725,23,-348,-164,146
773,-1895,4,76,-4710,23,-353,-167,156
774,-1888,-7,89,-4725,23,-345,-152,136
775,-1897,-4,99,-4706,23,-321,-138,145
776,-1896,-1,82,-4711,23,-353,-167,139
777,-1907,5,94,-4709,23,-350,-158,144
778,-1905,-2,83,-4718,23,-338,-148,137
779,-1899,3,103,-4719,23,-344,-163,142
780,-1893,-4,102,-4713,23,-344,-147,146
781,-1894,2,80,-4704,23,-348,-152,141
782,-1892,-6,96,-4716,23,-346,-166,140
783,-1896,-6,109,-4719,23,-349,-171,136
784,-1897,2,87,-4714,23,-341,-155,130
785,-1891,-5,93,-4719,23,-344,-141,138
786,-1896,-5,81,-4717,23,-336,-165,143
787,-1893,-1,90,-4715,23,-349,-150,125
788,-1898,8,100,-4710,23,-345,-157,139
789,-1892,-4,90,-4706,23,-358,-149,131
790,-1898,5,87,-4703,23,-344,-158,126
791,-1899,2,96,-4721,23,-360,-153,134
792,-1901,-4,89,-4695,23,-351,-157,142
793,-1890,-11,87,-4718,23,-342,-172,135
794,-1901,-4,102,-4719,23,-347,-145,137
795,-1896,0,88,-4711,23,-340,-145,136
796,-1892,-14,91,-4721,23,-357,-148,129
797,-1893,-3,84,-4712,23,-337,-147,145
798,-1902,-2,86,-4701,23,-331,-153,144
799,-1897,5,87,-4718,23,-355,-162,123
800,-1897,-7,96,-4713,23,-349,-175,143
801,-1890,-8,86,-4715,23,-366,-156,140
802,-1895,-9,89,-4709,23,-325,-160,133
803,-1909,1,76,-4717,23,-344,-146,147
804,-1903,-8,92,-4702,23,-343,-168,140
805,-1891,-1,87,-4707,23,-350,-138,145
806,-1900,-6,91,-4711,23,-346,-142,133
807,-1895,-2,105,-4721,23,-363,-159,143
808,-1893,10,96,-4721,23,-331,-153,151
809,-1883,-3,88,-4726,23,-340,-161,134
810,-1889,2,98,-4718,23,-350,-157,131
811,-1884,-9,83,-4717,23,-347,-169,124
812,-1903,11,101,-4712,23,-347,-147,138
813,-1895,1,100,-4722,23,-344,-157,150
814,-1899,-2,98,-4715,23,-343,-163,140
815,-1893,1,91,-4711,23,-336,-153,127
816,-1893,-7,91,-4721,23,-330,-159,129
817,-1893,1,91,-4715,23,-345,-163,137
818,-1896,5,94,-4721,23,-346,-146,145
819,-1893,-5,103,-4713,23,-348,-153,135
820,-1894,-6,99,-4708,23,-351,-161,134
821,-1904,-12,90,-4716,23,-340,-151,141
822,-1893,-17,91,-4720,23,-350,-159,135
823,-1890,-3,91,-4714,23,-362,-155,145
824,-1898,0,90,-4719,23,-357,-162,129
825,-1895,-1,94,-4710,23,-351,-158,146
826,-1889,-5,100,-4721,23,-334,-149,140
827,-1893,2,75,-4707,23,-345,-159,130
828,-1897,-2,88,-4716,23,-313,-139,132
829,-1888,1,83,-4703,23,-353,-136,139
830,-1889,-6,93,-4716,23,-354,-152,127
831,-1899,-1,81,-4709,23,-352,-142,145
832,-1891,7,83,-4722,23,-339,-164,133
833,-1893,-12,97,-4717,23,-344,-152,150
834,-1898,3,81,-4714,23,-342,-138,146
835,-1898,5,83,-4736,23,-337,-136,138
836,-1895,1,83,-4712,23,-334,-178,133
837,-1891,-5,90,-4704,23,-329,-143,135
838,-1896,2,100,-4710,23,-350,-164,129
839,-1893,4,99,-4725,23,-360,-141,133
840,-1901,3,86,-4713,23,-346,-146,144
841,-1899,0,86,-4712,23,-358,-156,138
842,-1888,-1,81,-4712,23,-346,-167,137
843,-1889,-1,91,-4725,23,-357,-166,138
844,-1900,-2,115,-4720,23,-352,-162,130
845,-1896,-2,102,-4725,23,-349,-144,158
846,-1898,-2,93,-4717,23,-354,-144,143
847,-1889,-3,91,-4700,23,-345,-156,148
848,-1893,-6,88,-4720,23,-337,-154,133
849,-1896,-5,90,-4721,23,-347,-170,148
850,-1901,3,92,-4723,23,-354,-140,147
851,-1897,-6,91,-4714,23,-350,-153,143
852,-1893,-5,90,-4729,23,-352,-165,140
853,-1894,-6,89,-4705,23,-342,-161,142
854,-1891,-5,87,-4706,23,-342,-172,142
855,-1896,-4,90,-4724,23,-343,-169,142
856,-1899,-1,93,-4720,23,-344,-154,130
857,-1886,10,102,-4710,23,-339,-158,147
858,-1896,0,95,-4710,23,-349,-155,134
859,-1890,-7,100,-4718,23,-341,-137,119
860,-1896,-3,91,-4706,23,-348,-156,151
861,-1894,3,96,-4709,23,-347,-140,137
862,-1892,-2,103,-4723,23,-347,-152,139
863,-1892,-1,105,-4713,23,-331,-143,132
864,-1898,-11,92,-4700,23,-348,-159,154
865,-1894,-4,87,-4705,23,-367,-149,133
866,-1886,-1,109,-4710,23,-333,-149,143
867,-1894,-2,94,-4717,23,-349,-157,132
868,-1888,-6,86,-4703,23,-355,-149,127
869,-1897,-2,103,-4712,23,-346,-160,138
870,-1889,-11,74,-4722,23,-340,-148,128
871,-1894,-1,86,-4723,23,-342,-146,156
872,-1897,-11,93,-4711,23,-338,-137,160
873,-1905,-1,99,-4718,23,-349,-154,147
874,-1902,1,80,-4717,23,-364,-151,152
875,-1898,1,106,-4722,23,-360,-160,140
876,-1899,4,72,-4711,23,-353,-163,154
877,-1891,3,100,-4728,23,-340,-158,145
878,-1897,4,86,-4712,23,-346,-145,153
879,-1900,2,98,-4727,23,-353,-176,136
880,-1890,-5,99,-4713,23,-334,-147,145
881,-1895,-3,90,-4718,23,-347,-154,143
882,-1888,14,104,-4700,23,-327,-168,152
883,-1899,3,105,-4700,23,-352,-156,159
884,-1896,-3,88,-4708,23,-346,-142,137
885,-1900,0,106,-4705,23,-339,-177,129
886,-1899,-1,70,-4708,23,-354,-182,153
887,-1893,5,99,-4708,23,-345,-160,147
888,-1894,-6,98,-4718,23,-341,-144,145
889,-1891,-5,88,-4712,23,-358,-164,115
890,-1887,3,102,-4719,23,-348,-150,149
891,-1897,-6,83,-4715,23,-337,-151,151
892,-1896,3,99,-4700,23,-341,-164,128
893,-1891,1,103,-4715,23,-349,-135,139
894,-1902,0,110,-4710,23,-348,-172,144
895,-1898,-5,95,-4713,23,-352,-160,141
896,-1900,-2,79,-4726,23,-361,-162,151
897,-1897,-5,102,-4718,23,-342,-165,132
898,-1896,2,70,-4704,23,-353,-147,122
899,-1892,8,84,-4718,23,-348,-171,148
900,-1901,-6,87,-4721,23,-355,-152,153
901,-1892,9,84,-4705,23,-337,-153,140
902,-1893,6,91,-4704,23,-352,-136,137
903,-1896,-7,116,-4716,23,-344,-144,144
904,-1887,-1,103,-4718,23,-347,-160,147
905,-1890,-1,104,-4708,23,-340,-161,134
906,-1902,-2,85,-4713,23,-333,-150,139
907,-1903,-5,96,-4710,23,-347,-152,133
908,-1895,3,99,-4710,23,-341,-169,153
909,-1895,-2,88,-4720,23,-350,-151,141
910,-1895,-9,111,-4723,23,-354,-146,147
911,-1895,-14,94,-4710,23,-347,-151,147
912,-1898,-1,92,-4713,23,-344,-145,135
913,-1898,12,89,-4713,23,-344,-160,146
914,-1893,2,87,-4713,23,-353,-167,137
915,-1888,10,93,-4707,23,-338,-139,127
916,-1896,-4,99,-4713,23,-347,-157,149
917,-1895,-6,90,-4709,23,-351,-150,140
918,-1893,-1,99,-4712,23,-334,-147,143
919,-1895,-8,87,-4711,23,-340,-149,150
920,-1900,-6,91,-4715,23,-362,-155,133
921,-1896,-4,101,-4715,23,-345,-165,144
922,-1897,0,92,-4709,23,-339,-147,134
923,-1898,-16,86,-4709,23,-349,-137,133
924,-1898,0,87,-4715,23,-350,-151,145
925,-1887,-2,96,-4721,23,-338,-171,147
926,-1902,4,86,-4714,23,-350,-170,121
927,-1889,6,95,-4722,23,-335,-163,140
928,-1891,2,86,-4711,23,-345,-140,155
929,-1893,0,95,-4723,23,-361,-151,134
930,-1890,-9,87,-4713,23,-336,-143,128
931,-1897,5,92,-4711,23,-352,-162,129
932,-1897,-5,90,-4722,23,-331,-151,132
933,-1904,6,95,-4710,23,-342,-144,141
934,-1892,-2,74,-4728,23,-341,-161,133
935,-1896,5,98,-4708,23,-334,-156,138
936,-1900,-7,74,-4717,23,-349,-141,139
937,-1882,0,84,-4714,23,-356,-151,130
938,-1884,3,96,-4709,23,-349,-135,133
939,-1900,-2,103,-4724,23,-359,-154,139
940,-1887,0,77,-4716,23,-340,-149,155
941,-1900,0,104,-4711,23,-351,-159,148
942,-1892,8,85,-4721,23,-355,-151,132
943,-1895,0,97,-4717,23,-361,-158,108
944,-1894,-1,83,-4714,23,-342,-138,144
945,-1898,2,106,-4705,23,-334,-154,145
946,-1903,0,93,-4705,23,-354,-147,148
947,-1895,-6,106,-4708,23,-352,-147,132
948,-1893,7,94,-4712,23,-348,-158,126
949,-1892,-3,97,-4708,23,-327,-132,139
950,-1884,2,90,-4721,23,-347,-160,147
951,-1896,5,70,-4717,23,-339,-166,154
952,-1901,-8,100,-4717,23,-354,-156,131
953,-1887,4,85,-4723,23,-345,-167,140
954,-1899,-13,86,-4702,23,-337,-155,132
955,-1890,-2,115,-4724,23,-353,-150,145
956,-1902,1,112,-4723,23,-352,-164,129
957,-1884,2,91,-4716,23,-340,-138,148
958,-1902,6,74,-4707,23,-341,-159,135
959,-1882,2,101,-4711,23,-337,-157,124
960,-1895,-2,79,-4726,23,-344,-149,133
961,-1903,6,87,-4723,23,-337,-172,149
962,-1897,-8,92,-4727,23,-334,-152,137
963,-1889,6,85,-4709,23,-346,-150,138
964,-1908,-2,93,-4717,23,-340,-154,130
965,-1892,5,97,-4712,23,-337,-152,119
966,-1892,-13,87,-4717,23,-344,-183,156
967,-1906,-6,93,-4726,23,-348,-149,130
968,-1894,11,89,-4703,23,-352,-163,135
969,-1902,-6,94,-4716,23,-348,-158,143
970,-1891,-1,107,-4714,23,-348,-151,149
971,-1892,-3,93,-4712,23,-347,-155,143
972,-1900,4,87,-4715,23,-333,-154,141
973,-1896,-2,87,-4723,23,-338,-145,148
974,-1894,-1,95,-4723,23,-338,-154,133
975,-1900,-7,90,-4728,23,-353,-168,127
976,-1895,-4,97,-4714,23,-323,-142,143
977,-1883,1,105,-4712,23,-342,-156,135
978,-1893,-8,90,-4711,23,-351,-147,160
979,-1898,1,85,-4706,23,-352,-147,139
980,-1893,-1,93,-4718,23,-335,-165,154
981,-1891,-2,97,-4715,23,-338,-142,143
982,-1891,-3,83,-4724,23,-358,-147,144
983,-1895,7,100,-4709,23,-353,-151,128
984,-1887,-4,90,-4720,23,-338,-136,152
985,-1902,-3,92,-4712,23,-345,-147,119
986,-1897,-6,103,-4712,23,-328,-147,138
987,-1891,4,95,-4717,23,-370,-161,140
988,-1887,3,94,-4725,23,-349,-155,146
989,-1888,7,91,-4725,23,-348,-153,145
990,-1894,-9,103,-4712,23,-331,-145,136
991,-1894,8,99,-4717,23,-339,-154,139
992,-1886,1,73,-4711,23,-359,-159,142
993,-1882,5,107,-4706,23,-333,-131,139
994,-1895,-2,95,-4705,23,-351,-150,129
995,-1889,-1,104,-4728,23,-364,-137,130
996,-1889,6,86,-4706,23,-349,-137,134
997,-1892,-6,96,-4708,23,-346,-170,150
998,-1901,-1,86,-4711,23,-355,-149,124
