,acc_X,acc_Y,acc_Z,temp,tempC,gyr_X,gyr_Y,gyr_Z
0,-1895,-2,90,-4606,23,-174,-77,71
1,-1896,-1,92,-4605,23,-175,-76,69
2,-1897,-1,91,-4603,23,-174,-76,68
3,-1896,-3,92,-4603,23,-174,-78,68
4,-1895,-2,91,-4604,23,-175,-76,69
5,-1894,-2,90,-4603,23,-174,-77,69
6,-1896,-3,87,-4605,23,-175,-76,69
7,-1893,-3,92,-4607,23,-178,-76,69
8,-1894,-2,93,-4605,23,-175,-78,69
9,-1895,-4,93,-4603,23,-173,-77,69
10,-1895,0,96,-4605,23,-174,-78,69
11,-1892,0,98,-4605,23,-175,-78,68
12,-1895,0,98,-4606,23,-176,-77,68
13,-1895,1,99,-4606,23,-175,-80,68
14,-1896,2,97,-4603,23,-175,-80,68
15,-1896,0,95,-4601,23,-173,-77,68
16,-1896,-2,92,-4605,23,-173,-79,71
17,-1897,-3,96,-4608,23,-173,-78,70
18,-1895,-3,95,-4606,23,-176,-78,70
19,-1895,-3,93,-4603,23,-175,-76,70
20,-1896,-4,93,-4604,23,-174,-75,70
21,-1897,-2,92,-4606,23,-176,-76,68
22,-1897,-2,96,-4608,23,-177,-81,69
23,-1899,-1,96,-4605,23,-175,-79,71
24,-1898,-2,93,-4605,23,-175,-80,70
25,-1896,-1,94,-4606,23,-172,-80,69
26,-1896,-1,94,-4605,23,-173,-79,69
27,-1893,-2,93,-4607,23,-173,-79,70
28,-1892,-4,94,-4607,23,-173,-78,70
29,-1893,-4,95,-4606,23,-171,-76,72
30,-1894,-4,93,-4607,23,-173,-76,71
31,-1894,-3,91,-4604,23,-174,-76,69
32,-1893,-2,88,-4606,23,-173,-76,68
33,-1893,-3,88,-4603,23,-174,-79,68
34,-1891,-3,89,-4605,23,-175,-77,68
35,-1892,-2,91,-4604,23,-174,-76,70
36,-1895,-4,96,-4605,23,-174,-78,67
37,-1895,-5,91,-4606,23,-177,-78,68
38,-1895,-3,92,-4604,23,-176,-79,70
39,-1894,0,91,-4607,23,-176,-78,68
40,-1895,0,90,-4607,23,-177,-78,67
41,-1896,1,93,-4604,23,-175,-80,68
42,-1896,-2,94,-4606,23,-176,-81,68
43,-1898,-1,92,-4608,23,-175,-81,68
44,-1897,-1,92,-4609,23,-173,-79,70
45,-1897,-1,95,-4609,23,-174,-76,71
46,-1898,-2,93,-4608,23,-173,-77,71
47,-1896,0,95,-4606,23,-172,-80,71
48,-1895,0,96,-4606,23,-174,-79,72
49,-1892,1,97,-4605,23,-174,-77,72
50,-1895,1,97,-4610,23,-174,-77,72
51,-1895,-2,93,-4612,23,-176,-75,71
52,-1896,0,93,-4610,23,-174,-74,70
53,-1897,0,94,-4611,23,-175,-76,70
54,-1897,-2,94,-4606,23,-174,-76,71
55,-1896,-2,94,-4605,23,-173,-77,72
56,-1894,-3,93,-4604,23,-173,-78,71
57,-1895,-3,93,-4603,23,-174,-79,68
58,-1898,-1,91,-4606,23,-176,-79,69
59,-1896,-2,91,-4607,23,-175,-79,70
60,-1896,0,91,-4606,23,-174,-80,69
61,-1896,-3,91,-4605,23,-173,-79,70
62,-1896,-3,96,-4601,23,-174,-78,68
63,-1895,0,92,-4599,23,-175,-77,69
64,-1898,-1,93,-4602,23,-175,-77,71
65,-1898,-1,93,-4604,23,-174,-78,69
66,-1897,-3,94,-4603,23,-176,-77,69
67,-1896,-4,91,-4604,23,-176,-78,66
68,-1896,-4,89,-4606,23,-174,-78,66
69,-1894,-6,90,-4604,23,-175,-76,66
70,-1892,-2,89,-4599,23,-174,-76,67
71,-1892,-5,92,-4605,23,-176,-76,68
72,-1894,-4,95,-4608,23,-175,-80,68
73,-1894,-4,95,-4605,23,-175,-80,68
74,-1895,-3,95,-4603,23,-175,-80,70
75,-1896,-3,94,-4603,23,-175,-78,69
76,-1898,-2,91,-4603,23,-173,-77,69
77,-1895,-3,90,-4602,23,-172,-79,70
78,-1897,-4,92,-4602,23,-172,-75,71
79,-1897,-6,94,-4603,23,-173,-78,70
80,-1896,-5,96,-4602,23,-175,-77,70
81,-1894,-2,96,-4605,23,-176,-76,70
82,-1891,-3,100,-4607,23,-174,-77,71
83,-1891,-4,97,-4606,23,-174,-76,71
84,-1890,-3,95,-4606,23,-174,-75,71
85,-1893,-1,92,-4604,23,-175,-76,71
86,-1892,-1,95,-4605,23,-175,-77,71
87,-1894,-2,95,-4604,23,-175,-78,70
88,-1894,-1,93,-4606,23,-175,-77,71
89,-1895,-3,93,-4606,23,-174,-77,71
90,-1895,-3,92,-4603,23,-173,-75,71
91,-1896,-3,88,-4605,23,-174,-74,71
92,-1895,-3,88,-4603,23,-174,-75,68
93,-1894,-1,91,-4603,23,-174,-78,68
94,-1893,0,95,-4603,23,-176,-78,70
95,-1892,-1,95,-4604,23,-175,-79,72
96,-1892,-1,94,-4605,23,-172,-79,72
97,-1894,-1,97,-4607,23,-174,-78,73
98,-1893,-1,97,-4605,23,-175,-78,71
99,-1891,0,96,-4607,23,-174,-77,70
100,-1892,-1,96,-4608,23,-175,-76,70
101,-1892,1,96,-4606,23,-174,-78,71
102,-1893,0,94,-4607,23,-175,-78,70
103,-1893,0,94,-4603,23,-175,-80,71
104,-1897,-2,92,-4604,23,-174,-79,70
105,-1897,0,94,-4601,23,-175,-79,70
106,-1896,-1,92,-4604,23,-174,-78,70
107,-1893,1,92,-4604,23,-175,-81,71
108,-1893,1,92,-4604,23,-174,-79,70
109,-1893,1,93,-4603,23,-176,-77,70
110,-1894,-1,90,-4604,23,-175,-76,69
111,-1894,-1,92,-4604,23,-174,-76,72
112,-1896,-1,97,-4603,23,-173,-76,69
113,-1897,-1,97,-4604,23,-176,-76,69
114,-1898,-2,94,-4605,23,-174,-76,69
115,-1897,-3,94,-4601,23,-173,-77,69
116,-1896,-4,95,-4601,23,-173,-76,70
117,-1895,-1,95,-4602,23,-172,-75,71
118,-1894,0,94,-4603,23,-174,-77,69
119,-1895,-1,94,-4603,23,-174,-76,69
120,-1891,1,94,-4602,23,-174,-75,70
121,-1894,1,94,-4606,23,-174,-74,71
122,-1894,0,93,-4604,23,-173,-78,72
123,-1893,-2,92,-4605,23,-173,-78,70
124,-1894,-2,91,-4607,23,-173,-78,70
125,-1892,-1,92,-4606,23,-172,-78,69
126,-1894,-1,95,-4606,23,-173,-79,71
127,-1894,0,97,-4604,23,-176,-78,71
128,-1896,0,98,-4604,23,-176,-80,70
129,-1896,-3,97,-4605,23,-175,-79,67
130,-1895,-3,95,-4602,23,-175,-76,68
131,-1895,-1,95,-4604,23,-174,-75,68
132,-1894,0,91,-4608,23,-174,-77,71
133,-1894,1,95,-4604,23,-175,-77,70
134,-1894,-1,92,-4603,23,-174,-76,71
135,-1895,-1,92,-4602,23,-173,-76,68
136,-1894,-3,93,-4600,23,-174,-76,67
137,-1893,-2,94,-4599,23,-173,-76,70
138,-1895,-3,96,-4604,23,-176,-77,69
139,-1894,-4,95,-4604,23,-175,-78,68
140,-1894,-5,93,-4605,23,-175,-76,68
141,-1893,-4,92,-4602,23,-177,-77,69
142,-1893,-3,94,-4600,23,-175,-76,68
143,-1891,-3,92,-4602,23,-176,-76,70
144,-1893,-3,93,-4604,23,-175,-77,72
145,-1895,-3,93,-4605,23,-177,-77,73
146,-1894,-3,95,-4604,23,-178,-78,71
147,-1894,-3,96,-4601,23,-174,-78,73
148,-1894,-3,92,-4604,23,-173,-77,71
149,-1894,-3,93,-4601,23,-173,-79,71
150,-1894,-1,90,-4602,23,-173,-78,69
151,-1895,-2,90,-4601,23,-175,-79,69
152,-1895,-4,89,-4600,23,-173,-80,69
153,-1895,-4,92,-4600,23,-172,-77,68
154,-1896,-4,93,-4603,23,-172,-79,67
155,-1895,-5,91,-4603,23,-171,-77,69
156,-1895,-7,92,-4604,23,-174,-78,69
157,-1894,-4,93,-4604,23,-174,-79,70
158,-1895,-3,93,-4604,23,-174,-79,70
159,-1896,-2,90,-4604,23,-174,-79,70
160,-1895,0,92,-4601,23,-176,-79,71
161,-1894,-2,95,-4602,23,-174,-77,70
162,-1894,0,93,-4603,23,-173,-75,69
163,-1897,-1,91,-4605,23,-174,-75,69
164,-1894,-2,91,-4606,23,-175,-77,67
165,-1894,-2,93,-4603,23,-175,-76,67
166,-1895,-2,92,-4603,23,-175,-76,69
167,-1893,-1,95,-4603,23,-176,-75,71
168,-1892,0,98,-4604,23,-172,-76,70
169,-1892,-2,100,-4603,23,-173,-76,69
170,-1893,-2,101,-4601,23,-175,-77,71
171,-1891,-2,100,-4604,23,-176,-79,68
172,-1892,-3,99,-4604,23,-175,-77,68
173,-1893,-3,98,-4603,23,-175,-78,69
174,-1893,-3,94,-4602,23,-173,-77,69
175,-1894,-2,94,-4602,23,-172,-77,68
176,-1894,-5,90,-4607,23,-171,-78,68
177,-1896,-3,90,-4608,23,-173,-77,69
178,-1897,-2,89,-4608,23,-173,-77,71
179,-1895,-2,91,-4609,23,-171,-77,71
180,-1897,-4,94,-4609,23,-174,-78,70
181,-1894,-2,92,-4608,23,-175,-78,70
182,-1895,-2,93,-4609,23,-174,-75,70
183,-1894,-4,95,-4605,23,-176,-77,68
184,-1895,-3,97,-4604,23,-177,-79,69
185,-1895,-3,95,-4605,23,-177,-79,67
186,-1894,-4,93,-4605,23,-176,-77,68
187,-1896,-2,92,-4602,23,-175,-77,71
188,-1895,-1,90,-4601,23,-174,-77,71
189,-1894,-3,91,-4604,23,-174,-78,72
190,-1893,-4,92,-4600,23,-175,-78,70
191,-1892,-4,92,-4599,23,-176,-79,69
192,-1892,-2,96,-4600,23,-176,-79,68
193,-1890,-3,93,-4603,23,-175,-79,71
194,-1890,-4,96,-4602,23,-175,-78,69
195,-1890,-4,95,-4605,23,-176,-78,69
196,-1893,-6,94,-4601,23,-177,-79,70
197,-1893,-5,92,-4602,23,-175,-78,70
198,-1895,-3,89,-4602,23,-175,-78,69
199,-1896,-3,89,-4603,23,-177,-77,69
200,-1895,-2,92,-4604,23,-176,-78,70
201,-1894,-3,93,-4602,23,-176,-79,69
202,-1895,-2,92,-4600,23,-174,-78,69
203,-1897,-2,93,-4599,23,-176,-77,70
204,-1895,0,92,-4597,23,-176,-78,70
205,-1894,0,96,-4596,23,-175,-77,69
206,-1894,-1,97,-4593,23,-174,-79,68
207,-1894,0,98,-4595,23,-175,-77,68
208,-1894,-1,97,-4599,23,-174,-79,69
209,-1892,-2,94,-4599,23,-174,-75,69
210,-1891,-4,94,-4600,23,-172,-75,69
211,-1893,-2,90,-4599,23,-173,-76,69
212,-1895,-3,91,-4600,23,-174,-77,69
213,-1894,-2,88,-4600,23,-174,-76,70
214,-1893,-3,88,-4598,23,-174,-77,70
215,-1891,-1,89,-4601,23,-173,-75,70
216,-1892,-1,90,-4599,23,-173,-74,68
217,-1892,-4,91,-4599,23,-176,-75,68
218,-1892,-3,92,-4596,23,-176,-77,69
219,-1894,-5,95,-4598,23,-175,-77,68
220,-1895,-2,96,-4600,23,-175,-77,69
221,-1895,-1,92,-4599,23,-175,-76,69
222,-1894,-2,94,-4599,23,-173,-78,67
223,-1893,-1,92,-4601,23,-173,-77,67
224,-1893,-3,90,-4601,23,-171,-78,68
225,-1894,-1,92,-4600,23,-171,-79,67
226,-1893,-1,93,-4600,23,-173,-78,67
227,-1894,-1,94,-4600,23,-173,-76,69
228,-1895,0,90,-4603,23,-173,-74,69
229,-1897,-1,92,-4601,23,-174,-76,68
230,-1895,-1,92,-4602,23,-174,-75,68
231,-1897,0,93,-4601,23,-173,-78,68
232,-1897,-3,91,-4599,23,-174,-77,71
233,-1896,-1,90,-4602,23,-174,-78,71
234,-1896,-2,90,-4601,23,-174,-77,70
235,-1893,0,90,-4601,23,-175,-79,71
236,-1896,-1,93,-4600,23,-176,-79,70
237,-1897,-1,92,-4600,23,-175,-78,70
238,-1898,-2,91,-4600,23,-174,-78,71
239,-1899,-4,96,-4600,23,-173,-78,73
240,-1896,-4,92,-4601,23,-173,-75,73
241,-1895,-3,94,-4598,23,-174,-75,71
242,-1895,-2,94,-4597,23,-175,-75,70
243,-1894,-1,93,-4599,23,-178,-75,69
244,-1891,-1,90,-4597,23,-176,-74,71
245,-1892,0,92,-4597,23,-175,-76,70
246,-1892,1,92,-4604,23,-173,-78,71
247,-1892,-1,89,-4603,23,-172,-76,70
248,-1894,-2,95,-4606,23,-175,-76,69
249,-1896,-3,94,-4601,23,-175,-77,70
250,-1896,-1,92,-4603,23,-175,-75,67
251,-1896,0,90,-4603,23,-175,-76,68
252,-1894,-4,93,-4605,23,-175,-76,68
253,-1891,-2,92,-4603,23,-176,-77,69
254,-1893,-2,91,-4603,23,-176,-79,67
255,-1894,-1,91,-4601,23,-177,-76,67
256,-1894,-1,93,-4598,23,-175,-79,68
257,-1893,0,95,-4599,23,-175,-80,69
258,-1893,-3,90,-4600,23,-175,-78,69
259,-1894,-3,91,-4601,23,-176,-77,69
260,-1892,-1,92,-4598,23,-172,-77,68
261,-1892,-2,96,-4599,23,-173,-78,67
262,-1894,-4,94,-4599,23,-174,-79,68
263,-1896,-3,92,-4602,23,-176,-77,69
264,-1897,-1,94,-4603,23,-175,-77,70
265,-1894,-3,94,-4603,23,-173,-78,71
266,-1896,-4,93,-4605,23,-172,-77,71
267,-1895,-3,93,-4605,23,-173,-75,71
268,-1896,-4,93,-4607,23,-174,-75,72
269,-1896,-3,96,-4603,23,-175,-76,73
270,-1895,-4,100,-4601,23,-173,-77,71
271,-1894,-3,94,-4598,23,-172,-77,69
272,-1894,-2,93,-4599,23,-175,-76,69
273,-1895,-3,95,-4604,23,-175,-75,70
274,-1895,-3,90,-4605,23,-174,-76,70
275,-1894,-2,92,-4604,23,-176,-77,70
276,-1897,-2,93,-4601,23,-173,-77,68
277,-1899,0,93,-4605,23,-172,-76,67
278,-1896,1,98,-4605,23,-173,-74,69
279,-1895,0,96,-4606,23,-174,-73,70
280,-1894,-2,95,-4603,23,-174,-74,69
281,-1894,-2,92,-4603,23,-174,-75,68
282,-1894,-3,94,-4602,23,-174,-77,67
283,-1896,-4,94,-4603,23,-176,-74,67
284,-1895,-4,93,-4602,23,-174,-74,67
285,-1896,-3,93,-4602,23,-173,-74,68
286,-1897,-1,93,-4603,23,-174,-76,69
287,-1895,-1,94,-4604,23,-174,-77,70
288,-1896,-3,95,-4600,23,-175,-78,70
289,-1895,-2,99,-4600,23,-174,-77,71
290,-1895,-2,98,-4601,23,-174,-77,71
291,-1892,-1,97,-4600,23,-177,-75,72
292,-1895,-1,94,-4600,23,-176,-76,72
293,-1894,-1,92,-4602,23,-174,-76,71
294,-1894,-3,91,-4600,23,-174,-77,71
295,-1894,-3,92,-4600,23,-174,-78,70
296,-1894,-3,92,-4601,23,-175,-78,69
297,-1895,-1,93,-4603,23,-176,-77,69
298,-1895,0,89,-4601,23,-176,-79,70
299,-1895,-1,92,-4604,23,-173,-79,70
300,-1894,-1,90,-4604,23,-174,-78,70
301,-1893,-1,92,-4602,23,-174,-75,71
302,-1893,-3,92,-4603,23,-174,-74,70
303,-1893,-4,92,-4602,23,-175,-73,70
304,-1894,-3,89,-4600,23,-175,-75,71
305,-1894,-4,91,-4600,23,-174,-75,68
306,-1894,-1,92,-4598,23,-175,-76,68
307,-1896,-2,93,-4600,23,-175,-76,65
308,-1896,-2,93,-4601,23,-174,-77,67
309,-1896,-2,93,-4599,23,-176,-78,68
310,-1898,0,92,-4601,23,-176,-76,69
311,-1896,-4,91,-4604,23,-176,-77,69
312,-1895,-4,92,-4603,23,-173,-77,70
313,-1893,-1,93,-4601,23,-173,-78,70
314,-1893,-1,93,-4600,23,-174,-76,69
315,-1892,-2,92,-4598,23,-173,-74,69
316,-1892,-4,90,-4599,23,-174,-77,70
317,-1894,-5,89,-4601,23,-172,-74,73
318,-1894,-2,93,-4600,23,-174,-75,70
319,-1895,-1,94,-4600,23,-173,-75,70
320,-1896,-1,91,-4600,23,-172,-74,70
321,-1895,0,89,-4603,23,-173,-76,69
322,-1895,-2,90,-4603,23,-176,-78,69
323,-1892,0,93,-4606,23,-176,-77,68
324,-1892,0,95,-4603,23,-176,-77,67
325,-1892,0,96,-4604,23,-175,-77,68
326,-1892,-1,96,-4602,23,-176,-76,68
327,-1893,-2,94,-4599,23,-175,-75,68
328,-1893,-3,93,-4601,23,-174,-75,71
329,-1893,-1,92,-4601,23,-176,-76,68
330,-1893,-1,91,-4600,23,-175,-76,70
331,-1895,-2,92,-4602,23,-176,-78,70
332,-1895,-4,93,-4598,23,-175,-77,69
333,-1895,-4,93,-4599,23,-176,-79,69
334,-1897,-6,97,-4599,23,-175,-75,70
335,-1895,-4,95,-4602,23,-175,-73,71
336,-1894,-5,93,-4601,23,-177,-74,69
337,-1892,-3,95,-4603,23,-177,-76,70
338,-1894,-1,92,-4601,23,-176,-74,70
339,-1894,-1,95,-4603,23,-175,-76,68
340,-1894,-1,96,-4602,23,-175,-76,69
341,-1897,-1,93,-4603,23,-177,-78,69
342,-1896,-2,94,-4600,23,-176,-79,69
343,-1895,-3,97,-4599,23,-176,-78,69
344,-1896,-4,97,-4601,23,-175,-76,70
345,-1896,-3,91,-4599,23,-176,-78,70
346,-1894,-2,93,-4602,23,-172,-78,70
347,-1894,0,91,-4603,23,-174,-80,70
348,-1892,-1,91,-4604,23,-173,-79,68
349,-1892,0,94,-4602,23,-172,-79,71
350,-1891,-2,95,-4602,23,-173,-77,68
351,-1893,-2,92,-4601,23,-175,-77,68
352,-1893,-2,93,-4600,23,-175,-79,71
353,-1894,-2,93,-4600,23,-173,-79,70
354,-1893,-2,93,-4599,23,-174,-79,71
355,-1894,-3,92,-4600,23,-175,-79,72
356,-1894,-4,91,-4601,23,-176,-79,71
357,-1893,-3,93,-4602,23,-173,-78,71
358,-1895,-2,90,-4601,23,-172,-77,71
359,-1893,-1,91,-4599,23,-173,-78,71
360,-1892,-2,93,-4598,23,-174,-78,69
361,-1894,-4,98,-4601,23,-176,-77,69
362,-1894,-3,96,-4601,23,-174,-79,71
363,-1896,-5,97,-4602,23,-173,-77,69
364,-1896,-5,97,-4601,23,-173,-77,70
365,-1894,-3,97,-4601,23,-175,-78,71
366,-1894,-1,96,-4599,23,-175,-80,70
367,-1895,-2,94,-4599,23,-176,-78,68
368,-1895,-1,94,-4604,23,-177,-78,68
369,-1895,-3,93,-4601,23,-175,-78,67
370,-1897,-2,92,-4601,23,-175,-79,69
371,-1896,-1,94,-4606,23,-177,-77,69
372,-1896,-1,95,-4603,23,-174,-78,69
373,-1896,-2,93,-4605,23,-173,-77,70
374,-1895,-1,94,-4605,23,-174,-78,70
375,-1892,0,95,-4604,23,-175,-81,72
376,-1893,0,97,-4601,23,-175,-80,71
377,-1893,0,94,-4604,23,-175,-79,71
378,-1893,0,94,-4607,23,-175,-79,71
379,-1894,-2,91,-4605,23,-174,-77,70
380,-1895,-2,95,-4604,23,-175,-78,68
381,-1896,-1,94,-4605,23,-177,-79,68
382,-1895,-1,95,-4602,23,-178,-78,68
383,-1894,0,93,-4601,23,-179,-80,69
384,-1894,-1,95,-4600,23,-178,-76,69
385,-1896,1,94,-4601,23,-175,-74,68
386,-1895,2,94,-4603,23,-176,-74,69
387,-1894,0,95,-4600,23,-175,-75,68
388,-1896,0,95,-4604,23,-175,-74,69
389,-1897,-2,96,-4598,23,-174,-74,69
390,-1897,-4,93,-4600,23,-172,-76,69
391,-1895,-1,92,-4600,23,-174,-75,70
392,-1895,0,91,-4601,23,-176,-77,69
393,-1895,0,91,-4603,23,-178,-78,69
394,-1896,0,92,-4604,23,-177,-77,70
395,-1894,0,94,-4605,23,-176,-78,71
396,-1895,-2,95,-4606,23,-177,-80,70
397,-1897,-2,93,-4607,23,-176,-79,69
398,-1895,0,94,-4606,23,-178,-77,67
399,-1896,-1,92,-4606,23,-177,-76,67
400,-1897,-3,90,-4601,23,-177,-74,68
401,-1897,-2,93,-4603,23,-175,-77,69
402,-1898,-1,94,-4602,23,-174,-78,67
403,-1895,-1,99,-4599,23,-175,-80,67
404,-1894,0,95,-4600,23,-174,-78,69
405,-1895,2,96,-4597,23,-174,-78,69
406,-1894,1,96,-4597,23,-174,-78,67
407,-1893,0,96,-4597,23,-175,-81,67
408,-1893,0,96,-4598,23,-176,-79,68
409,-1893,-1,95,-4600,23,-177,-79,70
410,-1896,-1,94,-4599,23,-177,-79,72
411,-1895,-1,91,-4599,23,-173,-76,70
412,-1894,-1,92,-4597,23,-174,-76,69
413,-1894,-2,93,-4597,23,-174,-77,69
414,-1894,-1,91,-4598,23,-174,-78,70
415,-1895,0,95,-4597,23,-172,-77,70
416,-1895,-2,94,-4598,23,-172,-77,70
417,-1895,1,92,-4598,23,-174,-76,70
418,-1893,-1,93,-4601,23,-173,-77,70
419,-1892,-1,96,-4598,23,-175,-80,70
420,-1892,-1,97,-4602,23,-175,-80,70
421,-1893,-3,95,-4601,23,-176,-79,70
422,-1896,-4,95,-4601,23,-176,-77,70
423,-1894,-4,95,-4603,23,-176,-80,70
424,-1895,-4,97,-4599,23,-173,-78,71
425,-1895,-5,97,-4597,23,-172,-76,71
426,-1894,-2,96,-4599,23,-173,-76,71
427,-1896,0,99,-4603,23,-173,-76,70
428,-1894,-1,99,-4603,23,-172,-75,70
429,-1895,-1,98,-4599,23,-173,-75,71
430,-1895,-2,96,-4600,23,-174,-77,71
431,-1896,-3,96,-4604,23,-174,-75,70
432,-1895,-3,96,-4604,23,-174,-75,71
433,-1895,-2,95,-4604,23,-173,-76,72
434,-1895,-1,93,-4601,23,-174,-76,71
435,-1896,-2,91,-4600,23,-174,-76,69
436,-1895,-2,94,-4598,23,-172,-75,70
437,-1895,-2,92,-4603,23,-174,-76,71
438,-1893,-4,95,-4602,23,-175,-74,72
439,-1892,-3,94,-4602,23,-175,-76,70
440,-1893,-1,96,-4600,23,-174,-76,71
441,-1895,-2,97,-4603,23,-173,-77,71
442,-1896,-1,98,-4599,23,-176,-79,71
443,-1896,0,97,-4602,23,-177,-78,70
444,-1896,-1,94,-4601,23,-176,-76,71
445,-1897,0,93,-4600,23,-176,-75,71
446,-1896,-1,92,-4600,23,-175,-77,70
447,-1897,-3,92,-4600,23,-172,-77,70
448,-1897,-2,93,-4603,23,-173,-76,70
449,-1896,-2,94,-4602,23,-175,-75,69
450,-1896,-2,95,-4603,23,-174,-76,71
451,-1896,-1,96,-4600,23,-174,-76,70
452,-1895,1,91,-4600,23,-174,-78,71
453,-1896,0,89,-4602,23,-171,-79,72
454,-1898,0,92,-4606,23,-171,-77,71
455,-1899,-1,91,-4607,23,-174,-78,70
456,-1899,0,91,-4602,23,-174,-79,70
457,-1895,-2,91,-4603,23,-173,-76,69
458,-1896,-1,91,-4604,23,-175,-74,70
459,-1899,-3,92,-4605,23,-174,-76,70
460,-1896,-3,90,-4603,23,-176,-76,72
461,-1894,-3,93,-4603,23,-177,-77,72
462,-1893,0,92,-4600,23,-175,-78,70
463,-1893,0,92,-4604,23,-174,-78,70
464,-1894,0,91,-4603,23,-174,-75,70
465,-1894,0,93,-4602,23,-175,-78,68
466,-1895,0,91,-4601,23,-174,-78,69
467,-1893,-1,89,-4603,23,-175,-78,69
468,-1894,1,90,-4606,23,-174,-80,69
469,-1894,-1,90,-4606,23,-174,-79,69
470,-1893,-1,89,-4605,23,-173,-77,70
471,-1893,-1,93,-4603,23,-173,-78,71
472,-1894,-2,97,-4604,23,-174,-76,69
473,-1894,-1,96,-4603,23,-173,-76,70
474,-1893,-2,96,-4603,23,-174,-75,69
475,-1894,-1,96,-4600,23,-173,-75,69
476,-1894,-2,96,-4600,23,-174,-73,69
477,-1894,0,96,-4600,23,-174,-76,70
478,-1895,0,94,-4602,23,-173,-77,70
479,-1896,0,94,-4605,23,-171,-76,69
480,-1897,-1,96,-4605,23,-173,-75,71
481,-1895,-3,96,-4606,23,-174,-76,72
482,-1895,-4,92,-4604,23,-174,-77,70
483,-1895,-4,87,-4605,23,-174,-76,69
484,-1896,-4,85,-4601,23,-173,-78,69
485,-1895,-4,88,-4600,23,-174,-78,70
486,-1895,-3,91,-4601,23,-173,-78,68
487,-1895,-4,92,-4600,23,-174,-77,70
488,-1894,-3,93,-4599,23,-174,-75,71
489,-1893,-3,93,-4600,23,-175,-75,71
490,-1893,-2,96,-4601,23,-174,-76,72
491,-1893,-2,93,-4600,23,-175,-76,72
492,-1894,-2,95,-4603,23,-176,-78,71
493,-1894,-2,94,-4605,23,-175,-77,70
494,-1894,-2,93,-4604,23,-176,-78,71
495,-1894,-1,93,-4607,23,-174,-80,71
496,-1894,-2,93,-4608,23,-174,-80,70
497,-1894,-3,92,-4605,23,-177,-78,71
498,-1895,-3,91,-4606,23,-176,-78,70
499,-1894,-1,93,-4604,23,-173,-78,70
500,-1894,-3,95,-4604,23,-173,-78,70
501,-1893,-2,95,-4600,23,-176,-75,70
502,-1892,-1,95,-4601,23,-175,-74,70
503,-1893,0,96,-4600,23,-174,-76,70
504,-1895,0,97,-4602,23,-174,-76,69
505,-1894,0,97,-4603,23,-176,-76,69
506,-1895,-1,95,-4604,23,-175,-76,70
507,-1895,1,96,-4606,23,-176,-78,69
508,-1898,2,97,-4607,23,-175,-78,70
509,-1896,1,93,-4607,23,-173,-78,69
510,-1895,-3,91,-4607,23,-174,-76,69
511,-1895,-2,94,-4605,23,-170,-79,68
512,-1896,1,95,-4603,23,-172,-79,70
513,-1897,1,95,-4602,23,-174,-78,70
514,-1895,3,95,-4600,23,-175,-76,70
515,-1893,1,94,-4600,23,-175,-76,68
516,-1894,-1,96,-4602,23,-176,-77,71
517,-1895,-2,93,-4601,23,-173,-79,71
518,-1891,-2,95,-4599,23,-174,-77,72
519,-1891,-3,93,-4602,23,-176,-75,71
520,-1893,-2,93,-4604,23,-176,-76,70
521,-1894,0,95,-4602,23,-175,-75,68
522,-1894,0,94,-4606,23,-174,-75,67
523,-1894,-3,95,-4608,23,-175,-75,69
524,-1892,-4,93,-4605,23,-175,-74,69
525,-1895,-3,98,-4603,23,-177,-75,71
526,-1894,-4,98,-4603,23,-176,-76,70
527,-1894,-4,95,-4598,23,-175,-76,72
528,-1895,-4,94,-4601,23,-176,-76,71
529,-1894,-3,95,-4603,23,-174,-77,72
530,-1894,-3,90,-4602,23,-174,-76,71
531,-1894,-1,90,-4601,23,-175,-77,70
532,-1894,0,92,-4600,23,-176,-77,70
533,-1893,1,94,-4602,23,-175,-79,68
534,-1895,-3,96,-4599,23,-175,-78,69
535,-1895,-4,98,-4600,23,-175,-75,70
536,-1896,-5,96,-4598,23,-174,-77,69
537,-1895,-3,97,-4600,23,-174,-76,68
538,-1895,-2,98,-4601,23,-175,-76,71
539,-1894,-1,95,-4600,23,-172,-77,71
540,-1895,-2,95,-4601,23,-174,-76,70
541,-1895,-4,94,-4598,23,-174,-77,71
542,-1892,-3,92,-4598,23,-173,-80,68
543,-1893,-1,89,-4602,23,-173,-78,70
544,-1893,1,92,-4601,23,-174,-78,69
545,-1894,-1,92,-4600,23,-175,-77,70
546,-1896,0,93,-4604,23,-173,-79,69
547,-1898,-3,94,-4604,23,-175,-78,69
548,-1895,-3,91,-4603,23,-175,-79,70
549,-1896,-4,88,-4603,23,-173,-77,70
550,-1896,-6,87,-4605,23,-175,-79,70
551,-1896,-5,88,-4608,23,-175,-79,71
552,-1896,-1,92,-4605,23,-175,-78,71
553,-1895,-2,91,-4605,23,-173,-80,70
554,-1895,-1,93,-4606,23,-173,-81,70
555,-1895,0,94,-4604,23,-173,-82,70
556,-1895,3,93,-4601,23,-172,-79,71
557,-1894,0,98,-4605,23,-174,-79,73
558,-1893,1,95,-4608,23,-173,-77,71
559,-1895,2,95,-4606,23,-173,-77,70
560,-1894,2,94,-4602,23,-173,-78,70
561,-1892,-2,95,-4604,23,-172,-76,72
562,-1894,-2,91,-4603,23,-174,-77,71
563,-1894,-2,93,-4604,23,-174,-76,72
564,-1893,-2,95,-4607,23,-177,-78,71
565,-1893,0,96,-4607,23,-177,-78,70
566,-1893,0,97,-4608,23,-177,-77,70
567,-1894,0,97,-4608,23,-177,-76,70
568,-1895,-1,94,-4605,23,-175,-76,68
569,-1897,-1,95,-4604,23,-173,-78,69
570,-1895,-2,99,-4601,23,-173,-78,70
571,-1894,-4,96,-4601,23,-172,-78,69
572,-1894,-2,93,-4601,23,-172,-75,70
573,-1895,-2,93,-4608,23,-175,-77,71
574,-1894,-2,95,-4606,23,-175,-76,74
575,-1894,-4,94,-4603,23,-175,-77,73
576,-1894,-2,93,-4603,23,-174,-78,72
577,-1896,-1,96,-4600,23,-176,-78,72
578,-1895,0,95,-4599,23,-177,-76,71
579,-1894,0,93,-4596,23,-176,-76,69
580,-1890,-2,94,-4600,23,-175,-75,68
581,-1889,-3,92,-4600,23,-174,-75,69
582,-1891,-1,93,-4600,23,-174,-76,70
583,-1892,-1,94,-4602,23,-176,-77,68
584,-1895,-1,94,-4603,23,-176,-75,68
585,-1893,-3,96,-4601,23,-175,-76,69
586,-1892,-4,97,-4602,23,-176,-76,71
587,-1895,-3,98,-4604,23,-175,-75,73
588,-1893,-4,92,-4604,23,-173,-76,72
589,-1892,-2,95,-4602,23,-173,-76,72
590,-1892,-2,93,-4603,23,-171,-75,71
591,-1893,-4,92,-4599,23,-172,-75,69
592,-1894,-3,92,-4599,23,-174,-77,69
593,-1894,-4,92,-4598,23,-176,-77,70
594,-1893,-3,96,-4599,23,-176,-78,70
595,-1892,-5,94,-4600,23,-173,-77,70
596,-1893,-5,94,-4596,23,-174,-77,68
597,-1894,-3,92,-4602,23,-173,-75,69
598,-1893,-1,93,-4603,23,-175,-75,72
599,-1894,-1,93,-4602,23,-175,-75,71
600,-1894,0,92,-4602,23,-177,-73,72
601,-1893,0,93,-4603,23,-176,-76,72
602,-1893,1,91,-4602,23,-178,-76,70
603,-1897,0,93,-4601,23,-175,-77,71
604,-1895,0,92,-4602,23,-174,-77,68
605,-1895,-1,92,-4603,23,-174,-82,70
606,-1896,-2,94,-4598,23,-172,-80,70
607,-1896,0,95,-4597,23,-173,-78,70
608,-1894,-1,96,-4599,23,-172,-79,70
609,-1893,0,94,-4598,23,-172,-79,68
610,-1895,-1,94,-4600,23,-170,-77,67
611,-1897,1,96,-4600,23,-173,-77,68
612,-1897,2,97,-4599,23,-173,-77,68
613,-1897,-1,95,-4601,23,-172,-79,68
614,-1897,-2,93,-4603,23,-171,-79,66
615,-1897,-2,95,-4603,23,-172,-79,69
616,-1896,-1,96,-4604,23,-173,-77,69
617,-1895,0,96,-4603,23,-175,-79,68
618,-1894,-2,97,-4602,23,-175,-78,67
619,-1893,0,95,-4600,23,-173,-81,68
620,-1894,-2,95,-4600,23,-172,-79,68
621,-1894,0,96,-4600,23,-175,-78,69
622,-1896,-2,96,-4601,23,-173,-77,71
623,-1894,0,100,-4600,23,-174,-78,69
624,-1896,1,97,-4600,23,-175,-78,69
625,-1899,-2,95,-4603,23,-174,-79,69
626,-1898,-3,94,-4605,23,-175,-76,70
627,-1896,-2,93,-4603,23,-174,-73,70
628,-1895,-4,94,-4602,23,-173,-77,68
629,-1894,-3,94,-4604,23,-175,-79,68
630,-1894,-3,97,-4603,23,-175,-77,68
631,-1895,-4,93,-4605,23,-172,-78,69
632,-1895,-5,93,-4602,23,-173,-76,69
633,-1892,-5,93,-4601,23,-172,-76,70
634,-1891,-3,93,-4601,23,-175,-75,69
635,-1892,-2,93,-4601,23,-174,-76,69
636,-1891,-1,89,-4600,23,-174,-77,70
637,-1892,-1,90,-4601,23,-174,-76,70
638,-1893,-3,90,-4600,23,-174,-75,72
639,-1893,-1,94,-4600,23,-175,-77,69
640,-1893,-3,95,-4598,23,-174,-79,69
641,-1893,-2,95,-4599,23,-173,-79,70
642,-1894,-2,98,-4597,23,-172,-77,69
643,-1894,-2,96,-4600,23,-175,-79,68
644,-1893,-3,93,-4601,23,-176,-79,70
645,-1895,-3,93,-4600,23,-178,-77,69
646,-1894,-3,93,-4599,23,-177,-75,67
647,-1893,-2,93,-4597,23,-178,-76,67
648,-1895,0,95,-4599,23,-176,-77,69
649,-1897,-3,94,-4599,23,-175,-77,71
650,-1896,-1,96,-4598,23,-177,-79,68
651,-1896,-1,93,-4598,23,-176,-78,69
652,-1893,-2,93,-4598,23,-175,-78,68
653,-1895,-2,94,-4598,23,-174,-78,70
654,-1892,-3,96,-4600,23,-176,-79,69
655,-1892,0,96,-4599,23,-171,-78,71
656,-1893,1,94,-4598,23,-172,-78,70
657,-1894,-2,95,-4602,23,-173,-76,71
658,-1894,-2,94,-4602,23,-174,-77,69
659,-1895,-1,95,-4605,23,-174,-76,68
660,-1895,0,97,-4605,23,-175,-77,69
661,-1895,0,98,-4603,23,-174,-79,70
662,-1893,0,96,-4604,23,-173,-78,70
663,-1892,0,96,-4604,23,-172,-77,70
664,-1894,0,90,-4603,23,-173,-79,71
665,-1895,-2,94,-4605,23,-174,-79,70
666,-1897,-5,92,-4605,23,-174,-77,69
667,-1895,-3,91,-4604,23,-174,-75,68
668,-1893,-4,91,-4604,23,-174,-76,68
669,-1894,-3,90,-4604,23,-174,-76,68
670,-1894,-2,95,-4601,23,-173,-78,69
671,-1894,-2,95,-4602,23,-174,-77,70
672,-1893,-2,94,-4601,23,-174,-77,71
673,-1893,-3,93,-4600,23,-177,-76,70
674,-1893,-3,95,-4600,23,-175,-76,70
675,-1898,-2,95,-4605,23,-174,-76,70
676,-1898,-1,91,-4604,23,-173,-76,69
677,-1896,-2,91,-4602,23,-173,-76,71
678,-1895,-3,93,-4605,23,-172,-76,72
679,-1893,-2,93,-4604,23,-172,-76,72
680,-1895,-1,94,-4604,23,-173,-76,71
681,-1897,1,96,-4604,23,-173,-76,70
682,-1897,1,94,-4603,23,-172,-78,70
683,-1896,-1,94,-4603,23,-175,-77,69
684,-1895,-1,94,-4601,23,-174,-77,68
685,-1895,-1,93,-4596,23,-174,-77,68
686,-1893,-1,91,-4595,23,-175,-75,70
687,-1893,0,97,-4598,23,-175,-76,71
688,-1895,-1,94,-4598,23,-174,-76,68
689,-1894,0,93,-4602,23,-173,-77,69
690,-1894,-2,91,-4600,23,-175,-78,69
691,-1894,-5,93,-4599,23,-173,-79,71
692,-1895,-2,91,-4600,23,-175,-78,70
693,-1894,-2,91,-4601,23,-178,-79,67
694,-1895,-1,89,-4600,23,-176,-78,68
695,-1895,1,94,-4601,23,-175,-78,70
696,-1894,-2,92,-4600,23,-176,-78,69
697,-1896,-5,90,-4598,23,-176,-75,69
698,-1895,-5,91,-4599,23,-175,-75,69
699,-1895,-4,93,-4598,23,-175,-77,69
700,-1896,-2,93,-4598,23,-176,-77,68
701,-1894,-2,92,-4598,23,-175,-77,68
702,-1895,-1,97,-4598,23,-176,-77,69
703,-1896,0,92,-4599,23,-175,-78,71
704,-1894,-1,90,-4600,23,-174,-79,73
705,-1893,-4,93,-4600,23,-174,-78,71
706,-1893,-1,95,-4596,23,-174,-76,71
707,-1891,-2,96,-4600,23,-174,-76,71
708,-1894,-1,94,-4601,23,-174,-78,71
709,-1896,-2,92,-4601,23,-175,-76,71
710,-1896,-4,90,-4603,23,-176,-76,72
711,-1896,-2,93,-4605,23,-175,-78,70
712,-1896,-1,93,-4603,23,-174,-77,69
713,-1898,0,92,-4603,23,-175,-76,71
714,-1896,-1,89,-4603,23,-174,-77,71
715,-1895,0,88,-4599,23,-172,-77,71
716,-1897,-2,89,-4600,23,-173,-76,68
717,-1895,-1,92,-4600,23,-176,-77,69
718,-1895,-3,89,-4598,23,-176,-77,67
719,-1895,-2,94,-4600,23,-173,-76,68
720,-1894,-2,90,-4595,23,-174,-76,69
721,-1899,-1,90,-4597,23,-173,-78,71
722,-1896,-2,92,-4600,23,-174,-80,73
723,-1897,-3,94,-4599,23,-175,-78,72
724,-1895,-2,95,-4600,23,-176,-77,69
725,-1894,0,95,-4600,23,-175,-77,72
726,-1895,-3,95,-4598,23,-176,-77,71
727,-1894,-4,94,-4598,23,-173,-76,69
728,-1894,-2,97,-4600,23,-171,-77,70
729,-1894,0,98,-4604,23,-173,-78,68
730,-1896,-1,95,-4604,23,-173,-78,68
731,-1897,-2,94,-4601,23,-175,-79,68
732,-1896,0,97,-4603,23,-175,-80,69
733,-1895,-1,94,-4603,23,-175,-75,68
734,-1895,-2,97,-4603,23,-175,-76,69
735,-1895,-4,95,-4599,23,-175,-75,69
736,-1895,-2,92,-4600,23,-175,-77,68
737,-1895,-1,90,-4597,23,-174,-77,70
738,-1896,-1,90,-4601,23,-175,-77,70
739,-1898,0,89,-4600,23,-177,-75,69
740,-1895,-4,89,-4599,23,-178,-76,69
741,-1895,-2,95,-4596,23,-177,-75,69
742,-1897,-4,97,-4597,23,-174,-76,70
743,-1899,-4,96,-4599,23,-176,-78,72
744,-1896,-2,99,-4600,23,-174,-78,72
745,-1895,-2,100,-4602,23,-173,-77,70
746,-1894,-3,98,-4601,23,-172,-78,70
747,-1896,-1,98,-4599,23,-173,-79,68
748,-1894,-4,98,-4601,23,-174,-79,67
749,-1895,-2,98,-4600,23,-174,-79,68
750,-1895,-1,91,-4597,23,-176,-76,68
751,-1896,-4,94,-4596,23,-175,-79,68
752,-1894,-2,93,-4599,23,-174,-76,71
753,-1894,-3,95,-4599,23,-174,-76,69
754,-1893,-2,95,-4597,23,-173,-77,69
755,-1895,-3,93,-4600,23,-171,-77,69
756,-1897,-4,95,-4604,23,-173,-77,67
757,-1896,-2,97,-4604,23,-174,-75,68
758,-1896,-2,99,-4602,23,-173,-76,70
759,-1894,-1,97,-4601,23,-172,-78,69
760,-1894,-1,96,-4601,23,-175,-78,69
761,-1898,-3,94,-4601,23,-175,-81,72
762,-1895,-3,92,-4604,23,-174,-79,71
763,-1895,-2,92,-4605,23,-174,-78,72
764,-1897,-2,91,-4602,23,-174,-78,72
765,-1897,-3,90,-4603,23,-177,-77,71
766,-1898,-3,93,-4601,23,-176,-79,70
767,-1897,0,94,-4598,23,-175,-79,69
768,-1896,-2,93,-4595,23,-175,-80,69
769,-1893,-3,93,-4597,23,-176,-78,71
770,-1893,-3,93,-4599,23,-176,-79,69
771,-1894,-2,94,-4598,23,-175,-78,67
772,-1894,1,95,-4597,23,-175,-77,67
773,-1895,0,95,-4598,23,-177,-77,70
774,-1896,-2,91,-4601,23,-177,-79,70
775,-1893,-4,94,-4603,23,-175,-78,71
776,-1896,-4,95,-4603,23,-174,-79,72
777,-1895,-3,92,-4601,23,-173,-78,72
778,-1894,-2,95,-4598,23,-176,-78,70
779,-1898,-3,94,-4597,23,-175,-76,71
780,-1897,-3,95,-4596,23,-175,-76,69
781,-1894,-4,95,-4598,23,-174,-77,68
782,-1896,-4,95,-4596,23,-175,-77,69
783,-1896,-3,96,-4597,23,-173,-78,70
784,-1896,-4,96,-4594,23,-173,-78,70
785,-1896,-4,95,-4598,23,-174,-79,68
786,-1896,-3,96,-4598,23,-175,-80,69
787,-1897,-1,92,-4600,23,-174,-79,69
788,-1894,-2,91,-4602,23,-175,-79,71
789,-1895,-2,91,-4602,23,-174,-76,71
790,-1895,-1,93,-4599,23,-175,-77,69
791,-1896,-2,91,-4599,23,-176,-76,70
792,-1895,-2,95,-4599,23,-175,-76,71
793,-1897,-2,94,-4599,23,-172,-77,70
794,-1897,-1,94,-4600,23,-173,-78,69
795,-1897,1,90,-4600,23,-171,-76,70
796,-1896,-1,89,-4601,23,-172,-75,70
797,-1896,-3,92,-4599,23,-171,-77,69
798,-1897,-1,93,-4601,23,-173,-79,69
799,-1895,-3,93,-4603,23,-172,-77,69
800,-1894,-3,96,-4601,23,-172,-78,68
801,-1892,-1,92,-4597,23,-173,-79,69
802,-1893,-2,94,-4594,23,-174,-78,70
803,-1894,-2,97,-4596,23,-174,-76,70
804,-1893,-4,97,-4596,23,-172,-78,68
805,-1894,-4,101,-4600,23,-171,-78,70
806,-1893,-4,98,-4599,23,-170,-80,69
807,-1894,-2,98,-4597,23,-170,-79,69
808,-1895,-2,97,-4596,23,-174,-77,69
809,-1894,-2,93,-4595,23,-175,-76,71
810,-1895,-1,91,-4596,23,-176,-76,71
811,-1894,0,94,-4597,23,-174,-77,72
812,-1895,-1,92,-4597,23,-175,-77,71
813,-1898,-1,88,-4596,23,-176,-76,69
814,-1896,-2,93,-4600,23,-174,-76,70
815,-1896,1,95,-4598,23,-174,-77,70
816,-1897,2,96,-4599,23,-174,-75,70
817,-1895,1,95,-4598,23,-174,-78,69
818,-1896,2,92,-4601,23,-174,-77,69
819,-1896,1,92,-4597,23,-175,-75,71
820,-1895,1,90,-4600,23,-177,-75,71
821,-1895,-2,90,-4602,23,-176,-73,69
822,-1894,-2,92,-4600,23,-176,-75,67
823,-1895,-1,90,-4597,23,-172,-75,71
824,-1894,-2,90,-4601,23,-174,-77,71
825,-1892,-1,90,-4598,23,-173,-77,71
826,-1890,-1,92,-4598,23,-171,-77,69
827,-1893,-2,90,-4598,23,-172,-75,65
828,-1894,0,91,-4597,23,-173,-75,66
829,-1895,0,91,-4598,23,-173,-75,68
830,-1896,-1,93,-4598,23,-174,-77,68
831,-1895,-1,96,-4596,23,-175,-78,69
832,-1892,-1,94,-4595,23,-176,-79,70
833,-1892,-1,94,-4597,23,-174,-80,69
834,-1895,-1,93,-4595,23,-174,-77,70
835,-1894,-4,95,-4598,23,-175,-76,69
836,-1893,-4,91,-4598,23,-176,-75,68
837,-1895,-2,89,-4597,23,-176,-75,70
838,-1892,-3,87,-4596,23,-173,-75,72
839,-1895,-2,90,-4596,23,-175,-74,71
840,-1898,-5,95,-4596,23,-173,-76,68
841,-1897,-3,96,-4594,23,-173,-78,68
842,-1897,-2,93,-4593,23,-173,-78,69
843,-1894,-5,95,-4596,23,-172,-80,71
844,-1894,-4,96,-4597,23,-173,-78,70
845,-1895,-6,95,-4596,23,-174,-77,67
846,-1895,-4,98,-4599,23,-175,-78,68
847,-1897,-3,94,-4595,23,-175,-77,69
848,-1894,-2,92,-4595,23,-176,-77,68
849,-1896,-1,94,-4592,23,-174,-77,68
850,-1896,-2,95,-4594,23,-175,-76,69
851,-1896,0,93,-4596,23,-173,-78,70
852,-1897,-2,95,-4598,23,-173,-77,70
853,-1895,-2,93,-4597,23,-173,-77,72
854,-1896,-2,91,-4600,23,-173,-77,71
855,-1894,0,93,-4600,23,-174,-78,71
856,-1894,-1,93,-4595,23,-174,-76,70
857,-1892,-2,94,-4598,23,-174,-75,70
858,-1894,-2,96,-4596,23,-175,-74,71
859,-1895,-3,99,-4597,23,-175,-77,71
860,-1896,-3,97,-4594,23,-175,-76,69
861,-1894,-4,98,-4591,23,-175,-75,70
862,-1894,-3,99,-4594,23,-173,-77,70
863,-1894,-3,97,-4597,23,-174,-77,69
864,-1894,-2,95,-4598,23,-175,-77,71
865,-1894,0,95,-4595,23,-175,-77,72
866,-1895,0,93,-4599,23,-176,-76,71
867,-1894,-2,94,-4600,23,-177,-78,70
868,-1893,-4,92,-4599,23,-175,-79,69
869,-1895,-5,93,-4592,23,-175,-78,69
870,-1893,-5,92,-4593,23,-174,-78,69
871,-1893,-4,92,-4599,23,-174,-78,70
872,-1893,-2,92,-4598,23,-174,-77,69
873,-1892,0,90,-4598,23,-175,-80,70
874,-1894,0,90,-4599,23,-175,-77,69
875,-1894,-3,92,-4601,23,-175,-75,70
876,-1896,-2,93,-4602,23,-176,-76,70
877,-1896,-3,94,-4599,23,-174,-73,70
878,-1896,-1,94,-4601,23,-174,-74,71
879,-1894,-4,90,-4600,23,-175,-76,70
880,-1895,-6,93,-4600,23,-175,-78,70
881,-1898,-4,92,-4600,23,-175,-77,72
882,-1901,-1,91,-4595,23,-174,-76,72
883,-1898,-2,90,-4595,23,-173,-73,70
884,-1897,-1,92,-4593,23,-174,-75,69
885,-1897,0,94,-4594,23,-176,-77,68
886,-1896,0,91,-4597,23,-175,-77,70
887,-1897,-2,89,-4597,23,-176,-78,69
888,-1896,-1,95,-4595,23,-175,-77,69
889,-1897,-1,94,-4598,23,-174,-78,70
890,-1896,-1,92,-4597,23,-174,-79,71
891,-1895,-2,92,-4595,23,-176,-80,69
892,-1895,-1,91,-4593,23,-174,-80,70
893,-1896,-2,90,-4595,23,-175,-78,69
894,-1896,-1,95,-4593,23,-175,-77,69
895,-1895,-3,95,-4598,23,-173,-76,70
896,-1894,-2,93,-4595,23,-171,-77,70
897,-1893,-3,92,-4592,23,-171,-77,71
898,-1893,-1,93,-4596,23,-173,-78,72
899,-1894,-1,95,-4594,23,-172,-77,72
900,-1894,-1,97,-4599,23,-173,-79,71
901,-1894,-1,96,-4599,23,-172,-77,69
902,-1894,-1,95,-4595,23,-172,-77,70
903,-1895,-2,93,-4592,23,-174,-77,71
904,-1895,-2,94,-4590,23,-176,-76,70
905,-1896,-2,95,-4589,23,-173,-80,71
906,-1892,-4,98,-4589,23,-175,-83,69
907,-1894,-4,98,-4591,23,-174,-81,67
908,-1894,-4,93,-4592,23,-176,-80,68
909,-1896,0,95,-4593,23,-177,-78,70
910,-1896,-2,97,-4595,23,-175,-79,71
911,-1895,0,97,-4594,23,-173,-78,70
912,-1896,1,96,-4597,23,-174,-79,68
913,-1896,2,92,-4595,23,-175,-78,70
914,-1896,1,91,-4594,23,-174,-76,69
915,-1897,-2,90,-4595,23,-175,-78,70
916,-1895,-3,93,-4598,23,-177,-78,70
917,-1896,-2,95,-4597,23,-176,-76,69
918,-1897,-1,93,-4596,23,-174,-78,68
919,-1896,-1,91,-4595,23,-172,-76,68
920,-1895,-3,93,-4594,23,-171,-78,69
921,-1895,-3,91,-4595,23,-171,-79,70
922,-1895,-3,93,-4596,23,-175,-78,68
923,-1895,-3,94,-4600,23,-176,-78,71
924,-1894,-4,95,-4598,23,-175,-76,70
925,-1894,-2,94,-4599,23,-174,-77,70
926,-1895,-3,96,-4599,23,-174,-77,70
927,-1895,-6,97,-4599,23,-173,-77,71
928,-1893,-2,93,-4599,23,-175,-78,71
929,-1895,-3,92,-4598,23,-174,-79,72
930,-1893,-3,97,-4596,23,-174,-77,72
931,-1894,-2,95,-4595,23,-176,-78,72
932,-1893,-2,97,-4596,23,-175,-76,73
933,-1895,-2,96,-4594,23,-176,-74,71
934,-1895,-3,99,-4595,23,-177,-76,70
935,-1896,-2,98,-4597,23,-176,-75,68
936,-1896,-2,99,-4598,23,-175,-77,68
937,-1897,-4,99,-4595,23,-172,-76,69
938,-1895,-3,97,-4593,23,-173,-78,70
939,-1896,-4,95,-4597,23,-173,-78,69
940,-1895,-3,93,-4595,23,-172,-80,68
941,-1893,-2,94,-4595,23,-173,-78,68
942,-1892,-2,93,-4597,23,-172,-76,68
943,-1893,0,93,-4601,23,-172,-77,71
944,-1894,1,92,-4600,23,-174,-76,69
945,-1895,0,95,-4598,23,-174,-78,68
946,-1895,1,97,-4598,23,-173,-78,67
947,-1895,-1,95,-4603,23,-174,-79,66
948,-1897,0,94,-4603,23,-173,-79,68
949,-1896,-2,93,-4600,23,-174,-78,70
950,-1896,-1,91,-4599,23,-174,-78,69
951,-1895,0,96,-4600,23,-174,-76,68
952,-1893,1,93,-4598,23,-175,-76,69
953,-1892,-1,93,-4598,23,-176,-77,69
954,-1892,-2,94,-4601,23,-176,-77,70
955,-1894,-1,94,-4601,23,-176,-76,68
956,-1895,-1,97,-4603,23,-175,-77,70
957,-1896,-3,97,-4599,23,-176,-77,70
958,-1895,-4,96,-4601,23,-175,-76,69
959,-1896,-1,96,-4603,23,-175,-76,70
960,-1893,-2,94,-4600,23,-176,-78,70
961,-1893,-2,95,-4599,23,-177,-77,70
962,-1896,-2,94,-4601,23,-178,-76,70
963,-1897,-1,92,-4602,23,-177,-78,72
964,-1896,-1,96,-4602,23,-176,-78,72
965,-1895,-2,97,-4601,23,-176,-78,70
966,-1896,-3,96,-4598,23,-175,-76,70
967,-1894,-1,95,-4597,23,-176,-76,70
968,-1893,-3,93,-4594,23,-174,-76,69
969,-1894,-2,95,-4597,23,-175,-75,71
970,-1893,-4,96,-4596,23,-174,-76,70
971,-1893,-4,94,-4597,23,-175,-77,71
972,-1894,-5,91,-4596,23,-174,-79,70
973,-1894,-4,90,-4596,23,-174,-79,72
974,-1894,-5,91,-4599,23,-172,-78,72
975,-1893,-2,92,-4600,23,-175,-78,71
976,-1894,-1,95,-4597,23,-174,-78,71
977,-1896,-1,94,-4599,23,-173,-77,71
978,-1895,-3,94,-4604,23,-173,-76,70
979,-1893,-2,97,-4602,23,-175,-77,70
980,-1894,-3,95,-4602,23,-175,-76,70
981,-1893,-1,93,-4600,23,-174,-77,71
982,-1895,-1,96,-4602,23,-175,-78,70
983,-1891,-4,96,-4597,23,-176,-78,71
984,-1894,-4,98,-4600,23,-177,-78,70
985,-1894,-1,98,-4601,23,-176,-79,69
986,-1893,-2,96,-4600,23,-176,-80,69
987,-1893,-2,95,-4596,23,-176,-83,69
988,-1892,-4,93,-4599,23,-175,-81,70
989,-1893,-3,92,-4598,23,-174,-79,70
990,-1895,-1,96,-4602,23,-174,-78,71
991,-1894,-2,99,-4603,23,-174,-77,67
992,-1894,-1,99,-4603,23,-175,-76,68
993,-1896,0,97,-4604,23,-173,-78,70
994,-1895,-1,97,-4600,23,-174,-77,69
995,-1896,0,93,-4598,23,-174,-76,68
996,-1894,1,95,-4600,23,-175,-77,69
997,-1895,-4,100,-4600,23,-175,-77,71
998,-1894,-3,98,-4600,23,-175,-75,71
