,acc_X,acc_Y,acc_Z,temp,tempC,gyr_X,gyr_Y,gyr_Z
0,-15176,20,764,-4624,23,-43,-20,18
1,-15142,20,812,-4622,23,-44,-19,17
2,-15162,0,744,-4627,23,-44,-20,17
3,-15138,-14,772,-4623,23,-43,-20,17
4,-15120,-40,742,-4619,23,-43,-19,17
5,-15138,-44,746,-4622,23,-44,-20,18
6,-15182,-16,736,-4620,23,-43,-20,17
7,-15190,-30,774,-4621,23,-45,-18,17
8,-15142,-46,732,-4623,23,-45,-19,17
9,-15154,-44,718,-4622,23,-44,-20,17
10,-15150,-24,746,-4621,23,-44,-20,17
11,-15184,-4,740,-4619,23,-44,-20,18
12,-15194,-20,766,-4616,23,-43,-20,17
13,-15186,0,774,-4626,23,-44,-20,17
14,-15128,0,778,-4630,23,-44,-20,16
15,-15126,14,726,-4624,23,-44,-20,16
16,-15154,-6,710,-4624,23,-43,-18,17
17,-15146,-2,744,-4624,23,-44,-19,17
18,-15158,-32,746,-4626,23,-45,-20,17
19,-15166,-6,722,-4625,23,-45,-20,18
20,-15174,-2,746,-4622,23,-43,-20,17
21,-15192,-16,768,-4623,23,-44,-21,18
22,-15186,-12,716,-4627,23,-42,-20,18
23,-15158,-28,688,-4630,23,-44,-21,17
24,-15168,-50,710,-4624,23,-45,-20,16
25,-15170,-48,732,-4624,23,-44,-20,17
26,-15146,10,764,-4627,23,-43,-19,17
27,-15170,-14,744,-4629,23,-44,-19,17
28,-15172,-26,736,-4627,23,-44,-20,16
29,-15158,-16,706,-4621,23,-43,-19,16
30,-15144,-28,768,-4624,23,-44,-19,17
31,-15158,2,760,-4625,23,-44,-19,16
32,-15140,-2,776,-4624,23,-44,-21,17
33,-15144,8,748,-4627,23,-44,-21,17
34,-15196,-14,734,-4622,23,-44,-20,17
35,-15150,-18,712,-4628,23,-44,-21,17
36,-15156,-14,746,-4625,23,-45,-20,17
37,-15164,2,774,-4628,23,-44,-20,17
38,-15162,-14,810,-4627,23,-44,-19,16
39,-15168,-36,762,-4621,23,-43,-20,17
40,-15152,22,796,-4621,23,-44,-19,17
41,-15156,-12,794,-4625,23,-44,-19,17
42,-15158,-26,774,-4617,23,-44,-20,17
43,-15142,0,734,-4619,23,-44,-20,16
44,-15160,26,742,-4619,23,-44,-20,17
45,-15172,-18,744,-4625,23,-44,-19,17
46,-15160,-16,754,-4629,23,-44,-20,17
47,-15196,-20,766,-4626,23,-44,-19,16
48,-15198,-12,768,-4625,23,-44,-19,17
49,-15208,2,724,-4625,23,-44,-20,18
50,-15176,-4,758,-4621,23,-44,-21,17
51,-15176,-24,698,-4621,23,-45,-20,17
52,-15164,-30,734,-4618,23,-44,-21,18
53,-15176,-18,736,-4618,23,-44,-20,18
54,-15158,-18,724,-4623,23,-44,-20,17
55,-15178,2,736,-4626,23,-45,-21,17
56,-15154,6,782,-4627,23,-44,-20,17
57,-15164,-16,784,-4622,23,-44,-20,17
58,-15158,-4,752,-4622,23,-44,-20,17
59,-15132,4,774,-4621,23,-44,-21,18
60,-15154,4,748,-4622,23,-45,-21,17
61,-15146,-6,782,-4624,23,-45,-20,18
62,-15134,-32,778,-4625,23,-43,-21,17
63,-15120,-16,716,-4633,23,-44,-20,17
64,-15162,-22,722,-4627,23,-44,-20,17
65,-15162,-22,730,-4630,23,-43,-19,18
66,-15170,0,718,-4626,23,-44,-19,17
67,-15182,0,756,-4623,23,-43,-20,18
68,-15160,-8,728,-4627,23,-44,-20,18
69,-15148,2,718,-4628,23,-44,-20,18
70,-15148,-14,726,-4622,23,-44,-19,17
71,-15146,2,760,-4625,23,-45,-20,18
72,-15164,14,750,-4620,23,-44,-20,19
73,-15154,26,772,-4618,23,-44,-21,18
74,-15170,-14,754,-4621,23,-45,-20,17
75,-15182,-6,772,-4619,23,-44,-19,17
76,-15174,-4,760,-4621,23,-44,-20,17
77,-15176,-6,748,-4623,23,-44,-21,17
78,-15164,-6,748,-4617,23,-44,-20,18
79,-15116,-20,760,-4626,23,-43,-20,17
80,-15152,-8,708,-4622,23,-44,-20,18
81,-15132,-44,694,-4620,23,-44,-20,17
82,-15154,0,730,-4626,23,-44,-20,18
83,-15152,-10,734,-4625,23,-44,-21,18
84,-15156,2,710,-4627,23,-44,-20,18
85,-15172,-18,722,-4626,23,-44,-20,17
86,-15150,4,750,-4628,23,-44,-20,17
87,-15172,-10,772,-4621,23,-44,-20,17
88,-15170,10,790,-4628,23,-44,-19,17
89,-15184,-22,744,-4628,23,-43,-21,17
90,-15146,4,740,-4626,23,-44,-20,17
91,-15148,10,712,-4626,23,-44,-21,17
92,-15150,-10,706,-4624,23,-44,-20,17
93,-15136,-10,736,-4621,23,-44,-20,17
94,-15140,-8,782,-4623,23,-44,-20,16
95,-15164,4,790,-4625,23,-43,-20,17
96,-15172,-12,752,-4627,23,-44,-20,17
97,-15144,-26,772,-4621,23,-44,-20,17
98,-15124,-18,738,-4619,23,-44,-20,16
99,-15148,-52,726,-4621,23,-44,-19,18
100,-15138,4,752,-4621,23,-45,-19,18
101,-15170,-4,764,-4621,23,-45,-19,17
102,-15176,-14,742,-4621,23,-44,-19,17
103,-15174,-20,730,-4622,23,-45,-19,17
104,-15192,-36,790,-4620,23,-44,-19,16
105,-15180,10,818,-4625,23,-44,-19,17
106,-15168,6,772,-4624,23,-44,-19,17
107,-15152,-2,782,-4626,23,-44,-20,16
108,-15156,-16,768,-4622,23,-44,-19,16
109,-15172,-2,778,-4621,23,-44,-20,17
110,-15154,-6,756,-4625,23,-44,-20,18
111,-15166,-22,748,-4623,23,-43,-20,18
112,-15168,-14,722,-4625,23,-44,-19,17
113,-15152,-34,734,-4622,23,-43,-19,17
114,-15126,-4,738,-4621,23,-43,-19,18
115,-15116,-16,752,-4620,23,-43,-19,17
116,-15116,-8,770,-4622,23,-43,-20,17
117,-15154,-4,714,-4621,23,-43,-20,18
118,-15156,2,718,-4623,23,-42,-20,17
119,-15138,-20,714,-4625,23,-43,-20,17
120,-15142,-14,770,-4620,23,-43,-20,17
121,-15156,-48,760,-4614,23,-43,-20,16
122,-15180,-6,740,-4620,23,-44,-20,17
123,-15174,-6,746,-4621,23,-44,-19,18
124,-15168,-28,760,-4623,23,-44,-20,17
125,-15186,4,772,-4620,23,-44,-19,17
126,-15152,10,728,-4624,23,-44,-20,17
127,-15170,-24,780,-4625,23,-44,-20,17
128,-15172,-4,782,-4621,23,-42,-20,17
129,-15164,2,766,-4622,23,-43,-21,17
130,-15150,-4,778,-4626,23,-44,-20,17
131,-15148,-10,794,-4626,23,-44,-20,18
132,-15164,-10,778,-4626,23,-44,-20,17
133,-15158,12,776,-4624,23,-44,-20,17
134,-15160,0,744,-4628,23,-45,-20,17
135,-15166,-10,766,-4625,23,-44,-20,17
136,-15144,-2,778,-4621,23,-44,-20,17
137,-15148,-14,752,-4625,23,-44,-19,17
138,-15156,-18,742,-4625,23,-44,-20,17
139,-15192,-32,742,-4625,23,-45,-20,17
140,-15174,-22,748,-4626,23,-43,-19,17
141,-15186,-12,728,-4622,23,-44,-20,17
142,-15186,-32,774,-4633,23,-43,-20,18
143,-15200,-20,790,-4629,23,-43,-20,18
144,-15182,-14,808,-4623,23,-44,-19,17
145,-15178,-12,770,-4621,23,-45,-20,16
146,-15154,-14,776,-4624,23,-44,-20,17
147,-15132,-4,804,-4619,23,-44,-19,17
148,-15136,0,760,-4623,23,-44,-19,18
149,-15152,30,732,-4620,23,-44,-20,17
150,-15190,8,720,-4618,23,-43,-20,18
151,-15194,-10,782,-4622,23,-44,-20,17
152,-15158,-16,780,-4622,23,-43,-19,18
153,-15146,-26,732,-4623,23,-44,-19,18
154,-15152,-12,750,-4624,23,-44,-18,18
155,-15162,6,750,-4627,23,-44,-20,17
156,-15188,-26,768,-4627,23,-44,-20,17
157,-15168,-22,722,-4629,23,-44,-19,18
158,-15140,-6,744,-4623,23,-44,-19,18
159,-15198,-12,778,-4621,23,-44,-19,17
160,-15178,-28,718,-4623,23,-44,-19,17
161,-15170,-38,776,-4617,23,-43,-19,17
162,-15152,-20,786,-4621,23,-44,-20,17
163,-15156,2,728,-4617,23,-44,-20,17
164,-15134,8,720,-4622,23,-44,-20,17
165,-15138,-4,766,-4626,23,-45,-20,17
166,-15144,-34,700,-4624,23,-45,-20,17
167,-15126,-38,760,-4630,23,-44,-20,17
168,-15160,-16,740,-4623,23,-45,-20,17
169,-15168,-12,754,-4624,23,-44,-20,18
170,-15164,44,756,-4623,23,-43,-21,17
171,-15176,26,720,-4622,23,-43,-20,17
172,-15180,-22,728,-4624,23,-44,-19,18
173,-15146,-4,672,-4622,23,-45,-18,17
174,-15154,-10,704,-4624,23,-44,-19,17
175,-15132,44,724,-4616,23,-43,-19,17
176,-15120,26,738,-4615,23,-44,-20,17
177,-15142,-14,726,-4621,23,-45,-20,17
178,-15172,20,758,-4620,23,-44,-20,18
179,-15158,6,798,-4619,23,-44,-20,17
180,-15152,2,778,-4624,23,-45,-20,17
181,-15182,0,770,-4620,23,-44,-19,16
182,-15138,-6,770,-4625,23,-44,-20,17
183,-15154,-38,774,-4620,23,-44,-20,18
184,-15134,-12,758,-4622,23,-44,-21,17
185,-15134,-40,730,-4623,23,-44,-19,18
186,-15132,-40,748,-4623,23,-44,-20,17
187,-15154,-20,720,-4625,23,-44,-19,17
188,-15138,-34,744,-4624,23,-44,-19,18
189,-15130,0,762,-4626,23,-44,-20,17
190,-15186,6,772,-4624,23,-44,-19,17
191,-15160,10,764,-4623,23,-44,-19,17
192,-15156,-12,774,-4624,23,-44,-20,16
193,-15154,-30,740,-4620,23,-44,-19,17
194,-15136,-22,716,-4619,23,-45,-20,17
195,-15136,-12,752,-4622,23,-44,-20,17
196,-15174,26,762,-4621,23,-44,-20,17
197,-15154,-22,790,-4621,23,-45,-21,17
198,-15158,-4,778,-4617,23,-45,-20,17
199,-15152,-22,768,-4618,23,-44,-19,17
200,-15150,-42,766,-4619,23,-44,-19,17
201,-15152,-32,758,-4620,23,-44,-20,17
202,-15170,-32,796,-4621,23,-44,-20,17
203,-15174,-20,746,-4618,23,-44,-20,18
204,-15168,-32,736,-4625,23,-44,-20,18
205,-15194,-26,778,-4628,23,-44,-19,17
206,-15156,-4,754,-4623,23,-44,-20,18
207,-15190,-8,724,-4621,23,-45,-21,17
208,-15172,10,730,-4622,23,-43,-19,17
209,-15170,-18,744,-4622,23,-44,-20,17
210,-15134,-38,760,-4618,23,-43,-19,17
211,-15130,-26,718,-4622,23,-43,-20,17
212,-15154,-16,744,-4621,23,-45,-20,17
213,-15144,24,722,-4626,23,-45,-20,17
214,-15144,-14,762,-4620,23,-44,-20,17
215,-15136,-4,744,-4621,23,-43,-19,18
216,-15140,-10,724,-4613,23,-45,-20,17
217,-15146,6,746,-4616,23,-44,-20,17
218,-15158,-32,778,-4620,23,-44,-20,17
219,-15168,-20,762,-4623,23,-44,-20,17
220,-15146,-30,788,-4621,23,-43,-19,17
221,-15164,-22,774,-4623,23,-43,-19,17
222,-15176,-32,752,-4623,23,-43,-19,18
223,-15196,-14,694,-4621,23,-45,-20,17
224,-15200,14,730,-4621,23,-45,-20,17
225,-15176,-4,734,-4625,23,-45,-20,17
226,-15158,-6,730,-4623,23,-44,-19,16
227,-15138,10,760,-4617,23,-44,-19,17
228,-15150,-14,756,-4624,23,-44,-19,17
229,-15158,-14,764,-4626,23,-43,-19,16
230,-15156,-10,796,-4622,23,-44,-19,17
231,-15176,-4,784,-4620,23,-44,-19,17
232,-15158,-18,760,-4622,23,-44,-19,17
233,-15156,-18,732,-4619,23,-44,-20,16
234,-15150,-6,776,-4624,23,-44,-21,17
235,-15140,-10,748,-4620,23,-44,-20,18
236,-15154,-20,748,-4624,23,-44,-19,18
237,-15144,-30,800,-4624,23,-44,-20,18
238,-15130,-40,794,-4622,23,-44,-19,17
239,-15138,-20,772,-4622,23,-44,-20,16
240,-15170,-22,744,-4624,23,-44,-19,17
241,-15158,-22,760,-4621,23,-44,-20,17
242,-15162,-16,802,-4623,23,-45,-18,17
243,-15140,-22,754,-4615,23,-44,-19,17
244,-15134,-12,766,-4620,23,-44,-20,17
245,-15162,-8,762,-4619,23,-44,-20,17
246,-15164,-8,682,-4625,23,-45,-20,18
247,-15134,-18,708,-4616,23,-44,-19,17
248,-15148,-8,772,-4623,23,-44,-19,17
249,-15158,-30,750,-4616,23,-44,-21,17
250,-15156,-38,742,-4612,23,-44,-20,17
251,-15176,2,760,-4616,23,-45,-20,17
252,-15160,0,760,-4620,23,-44,-20,17
253,-15144,6,798,-4623,23,-43,-20,17
254,-15176,-2,778,-4619,23,-43,-19,17
255,-15166,-6,730,-4619,23,-43,-19,17
256,-15154,2,766,-4625,23,-43,-19,17
257,-15176,-20,746,-4625,23,-43,-19,17
258,-15152,4,738,-4619,23,-44,-19,17
259,-15164,8,796,-4615,23,-44,-20,17
260,-15148,-10,742,-4615,23,-45,-19,17
261,-15158,-4,758,-4620,23,-45,-19,17
262,-15172,-8,734,-4619,23,-43,-19,17
263,-15196,-18,756,-4619,23,-43,-19,17
264,-15182,-10,774,-4621,23,-44,-20,17
265,-15176,4,730,-4621,23,-44,-20,17
266,-15196,10,756,-4620,23,-44,-20,18
267,-15188,-16,782,-4620,23,-44,-19,17
268,-15194,-24,730,-4618,23,-45,-20,17
269,-15204,-8,758,-4615,23,-45,-20,17
270,-15190,2,738,-4620,23,-45,-20,17
271,-15144,-24,704,-4622,23,-44,-20,17
272,-15186,-12,700,-4617,23,-43,-19,17
273,-15148,-38,744,-4619,23,-43,-20,17
274,-15162,-10,776,-4618,23,-44,-20,17
275,-15134,8,782,-4620,23,-44,-20,18
276,-15172,-4,786,-4615,23,-44,-20,17
277,-15154,6,770,-4618,23,-44,-20,17
278,-15158,-18,774,-4622,23,-43,-20,17
279,-15154,-20,760,-4620,23,-44,-19,18
280,-15168,-26,774,-4619,23,-43,-19,18
281,-15156,2,762,-4621,23,-42,-19,18
282,-15134,-8,744,-4616,23,-43,-19,17
283,-15150,-26,734,-4619,23,-43,-20,17
284,-15166,-40,730,-4620,23,-44,-20,16
285,-15124,-20,760,-4612,23,-43,-21,17
286,-15152,-14,792,-4618,23,-44,-19,18
287,-15154,-20,768,-4616,23,-44,-19,17
288,-15128,-22,776,-4619,23,-44,-19,17
289,-15140,-38,764,-4613,23,-43,-20,17
290,-15134,-20,796,-4621,23,-44,-19,17
291,-15130,0,748,-4620,23,-44,-19,17
292,-15144,2,716,-4616,23,-43,-20,17
293,-15122,0,688,-4613,23,-44,-19,17
294,-15152,-38,728,-4616,23,-44,-20,17
295,-15166,-32,758,-4613,23,-44,-20,17
296,-15138,-20,744,-4615,23,-44,-19,18
297,-15116,-34,788,-4619,23,-44,-19,18
298,-15132,-42,802,-4622,23,-43,-19,17
299,-15158,-30,762,-4623,23,-44,-19,17
300,-15174,-22,754,-4618,23,-43,-19,17
301,-15170,26,744,-4621,23,-43,-20,17
302,-15168,-2,732,-4623,23,-43,-19,17
303,-15158,-16,752,-4618,23,-44,-20,17
304,-15136,-32,744,-4616,23,-43,-20,18
305,-15148,0,772,-4617,23,-44,-19,17
306,-15162,-20,720,-4617,23,-44,-19,17
307,-15162,-16,748,-4615,23,-44,-19,17
308,-15154,-24,722,-4619,23,-44,-20,17
309,-15138,-24,712,-4615,23,-44,-20,17
310,-15154,-36,720,-4619,23,-43,-20,17
311,-15146,8,770,-4621,23,-43,-20,17
312,-15148,4,774,-4624,23,-43,-20,17
313,-15146,-8,750,-4622,23,-44,-20,16
314,-15150,10,768,-4621,23,-44,-20,17
315,-15142,-6,778,-4619,23,-44,-18,17
316,-15154,-8,742,-4616,23,-44,-20,17
317,-15170,-18,726,-4618,23,-44,-20,17
318,-15184,-50,736,-4620,23,-43,-21,17
319,-15164,-30,798,-4617,23,-44,-21,17
320,-15140,-36,790,-4616,23,-44,-20,17
321,-15148,-34,816,-4615,23,-44,-20,17
322,-15152,-24,760,-4623,23,-44,-19,17
323,-15170,-4,758,-4623,23,-44,-19,17
324,-15154,8,742,-4621,23,-44,-20,17
325,-15140,-2,782,-4617,23,-44,-19,17
326,-15160,-8,758,-4618,23,-44,-20,17
327,-15174,-10,798,-4612,23,-43,-20,17
328,-15156,-4,750,-4618,23,-44,-20,17
329,-15152,-12,714,-4620,23,-44,-19,17
330,-15146,-14,718,-4618,23,-45,-19,18
331,-15126,-32,792,-4622,23,-44,-19,17
332,-15150,-24,740,-4624,23,-43,-20,17
333,-15202,-22,750,-4619,23,-43,-20,17
334,-15180,-2,750,-4619,23,-43,-20,17
335,-15156,-2,776,-4617,23,-43,-20,18
336,-15166,-16,752,-4622,23,-44,-20,17
337,-15168,-4,776,-4623,23,-45,-20,17
338,-15172,-2,752,-4620,23,-44,-20,17
339,-15162,-24,722,-4623,23,-45,-20,17
340,-15164,-30,730,-4624,23,-44,-19,17
341,-15164,-10,720,-4619,23,-44,-20,17
342,-15140,18,734,-4615,23,-43,-21,17
343,-15168,-28,748,-4613,23,-44,-20,18
344,-15178,-28,750,-4617,23,-44,-20,17
345,-15172,-2,782,-4621,23,-44,-19,17
346,-15164,-28,738,-4618,23,-44,-19,17
347,-15120,2,752,-4619,23,-44,-18,17
348,-15176,16,776,-4621,23,-44,-19,16
349,-15186,30,766,-4617,23,-44,-20,17
350,-15170,24,810,-4615,23,-44,-20,17
351,-15148,-24,768,-4613,23,-44,-20,18
352,-15156,-12,738,-4617,23,-44,-20,18
353,-15152,-28,712,-4619,23,-44,-19,17
354,-15192,-12,714,-4615,23,-43,-19,17
355,-15198,-2,814,-4619,23,-44,-19,18
356,-15138,4,756,-4619,23,-44,-19,18
357,-15136,10,750,-4619,23,-44,-19,17
358,-15162,10,834,-4619,23,-44,-20,17
359,-15192,-10,800,-4617,23,-44,-20,17
360,-15174,-32,792,-4613,23,-44,-20,17
361,-15190,-42,784,-4621,23,-44,-20,18
362,-15152,-28,738,-4621,23,-44,-20,17
363,-15194,-2,764,-4621,23,-44,-20,17
364,-15176,2,732,-4623,23,-44,-19,17
365,-15164,-10,746,-4617,23,-44,-19,17
366,-15170,0,734,-4620,23,-44,-19,17
367,-15204,-8,744,-4621,23,-44,-19,17
368,-15196,-14,750,-4618,23,-45,-20,17
369,-15184,-14,776,-4621,23,-44,-21,16
370,-15178,20,772,-4617,23,-44,-20,17
371,-15184,-12,750,-4615,23,-44,-20,17
372,-15140,-14,754,-4619,23,-43,-20,17
373,-15168,-14,790,-4618,23,-44,-18,17
374,-15184,-18,802,-4625,23,-44,-19,18
375,-15158,-10,726,-4623,23,-44,-19,18
376,-15182,-22,758,-4616,23,-43,-19,18
377,-15180,-8,752,-4620,23,-43,-20,17
378,-15184,-20,750,-4621,23,-43,-19,17
379,-15158,0,718,-4620,23,-45,-20,17
380,-15166,-12,772,-4618,23,-45,-19,17
381,-15170,-12,774,-4613,23,-45,-19,17
382,-15158,-42,766,-4615,23,-44,-19,17
383,-15174,2,732,-4619,23,-43,-19,17
384,-15190,46,732,-4616,23,-44,-20,17
385,-15182,6,780,-4613,23,-45,-19,17
386,-15152,2,772,-4623,23,-44,-19,17
387,-15126,2,764,-4618,23,-45,-20,17
388,-15136,-24,740,-4620,23,-44,-20,17
389,-15126,2,752,-4624,23,-44,-19,17
390,-15140,12,740,-4617,23,-44,-20,18
391,-15126,-58,774,-4616,23,-45,-20,17
392,-15146,-18,742,-4611,23,-44,-20,17
393,-15188,12,730,-4614,23,-44,-20,16
394,-15156,-22,780,-4616,23,-45,-20,17
395,-15156,-20,762,-4618,23,-44,-20,17
396,-15176,-32,802,-4621,23,-44,-20,17
397,-15162,-26,748,-4618,23,-44,-20,18
398,-15144,-24,754,-4615,23,-44,-20,17
399,-15142,-14,734,-4617,23,-44,-19,18
400,-15134,-32,742,-4613,23,-45,-20,17
401,-15160,-14,704,-4615,23,-45,-20,17
402,-15138,-28,722,-4619,23,-43,-21,16
403,-15152,-18,782,-4616,23,-43,-20,17
404,-15156,-16,766,-4618,23,-43,-20,17
405,-15162,-18,742,-4619,23,-43,-20,16
406,-15154,-38,700,-4620,23,-44,-20,17
407,-15130,10,710,-4621,23,-44,-19,16
408,-15150,-14,728,-4622,23,-44,-19,16
409,-15178,-2,720,-4621,23,-44,-19,17
410,-15174,-24,696,-4618,23,-44,-19,17
411,-15156,-28,720,-4619,23,-44,-20,17
412,-15126,-54,720,-4619,23,-44,-20,17
413,-15152,-26,726,-4617,23,-43,-19,18
414,-15180,-20,762,-4619,23,-45,-19,17
415,-15168,-6,768,-4617,23,-44,-20,17
416,-15182,-24,760,-4619,23,-44,-19,18
417,-15226,-34,780,-4616,23,-43,-19,18
418,-15154,-30,722,-4616,23,-44,-20,16
419,-15174,-10,784,-4619,23,-45,-19,17
420,-15156,-18,756,-4623,23,-44,-19,17
421,-15172,-34,770,-4625,23,-44,-20,16
422,-15174,-26,776,-4617,23,-44,-20,17
423,-15184,-12,746,-4615,23,-43,-20,18
424,-15178,-20,772,-4620,23,-43,-19,18
425,-15146,-40,762,-4622,23,-44,-20,17
426,-15164,-52,780,-4618,23,-43,-20,17
427,-15190,-26,802,-4618,23,-43,-20,18
428,-15168,-14,768,-4615,23,-43,-20,18
429,-15154,-10,738,-4618,23,-43,-19,17
430,-15154,-4,728,-4618,23,-45,-19,17
431,-15156,4,750,-4616,23,-44,-20,17
432,-15112,-20,722,-4619,23,-44,-20,17
433,-15154,-22,734,-4621,23,-44,-20,16
434,-15156,-2,708,-4623,23,-45,-20,17
435,-15150,-16,732,-4622,23,-44,-19,17
436,-15176,-20,758,-4618,23,-44,-19,17
437,-15150,-40,792,-4614,23,-44,-19,17
438,-15174,-10,816,-4609,23,-44,-19,17
439,-15148,-18,810,-4616,23,-44,-21,17
440,-15158,-18,798,-4617,23,-44,-20,17
441,-15148,20,784,-4617,23,-44,-20,17
442,-15158,14,770,-4618,23,-44,-20,16
443,-15160,-18,768,-4616,23,-44,-19,17
444,-15160,-4,742,-4615,23,-43,-19,16
445,-15152,-22,754,-4612,23,-44,-19,16
446,-15170,0,734,-4617,23,-44,-20,17
447,-15174,-26,732,-4613,23,-42,-20,17
448,-15166,-14,714,-4619,23,-44,-21,17
449,-15162,6,724,-4618,23,-44,-19,16
450,-15142,-12,780,-4622,23,-44,-20,17
451,-15146,0,750,-4621,23,-44,-20,16
452,-15166,-4,720,-4622,23,-43,-20,16
453,-15156,-28,770,-4625,23,-43,-20,17
454,-15174,-14,812,-4625,23,-44,-19,17
455,-15150,12,764,-4619,23,-44,-19,17
456,-15152,10,784,-4620,23,-45,-19,17
457,-15140,-2,754,-4624,23,-43,-19,18
458,-15168,12,734,-4623,23,-45,-19,17
459,-15166,-20,800,-4625,23,-44,-19,17
460,-15160,-8,768,-4620,23,-43,-20,18
461,-15152,2,776,-4622,23,-43,-19,17
462,-15178,14,762,-4622,23,-43,-20,17
463,-15146,-8,796,-4621,23,-43,-20,17
464,-15138,-40,768,-4619,23,-45,-20,17
465,-15144,-46,744,-4619,23,-43,-19,18
466,-15164,-42,764,-4618,23,-43,-20,17
467,-15148,-50,740,-4614,23,-44,-19,17
468,-15160,4,764,-4614,23,-43,-19,17
469,-15152,-6,736,-4618,23,-44,-19,17
470,-15196,18,770,-4620,23,-43,-20,17
471,-15166,2,770,-4616,23,-44,-20,17
472,-15156,10,770,-4617,23,-44,-19,17
473,-15144,-22,772,-4619,23,-44,-19,17
474,-15164,-18,762,-4620,23,-43,-19,17
475,-15166,-20,760,-4618,23,-43,-19,17
476,-15144,-12,750,-4614,23,-43,-19,17
477,-15156,-24,740,-4619,23,-44,-19,17
478,-15172,-14,780,-4620,23,-45,-19,17
479,-15148,-26,754,-4613,23,-44,-19,17
480,-15132,-12,786,-4610,23,-44,-20,17
481,-15150,14,768,-4614,23,-44,-19,17
482,-15156,14,736,-4616,23,-44,-18,17
483,-15140,-42,778,-4620,23,-44,-19,16
484,-15138,-14,762,-4616,23,-44,-19,16
485,-15136,4,786,-4614,23,-44,-19,16
486,-15136,22,792,-4614,23,-45,-19,17
487,-15148,2,770,-4617,23,-44,-19,17
488,-15140,0,768,-4613,23,-44,-20,18
489,-15130,16,754,-4614,23,-43,-19,16
490,-15156,-2,766,-4619,23,-44,-19,16
491,-15184,-4,740,-4615,23,-43,-19,16
492,-15178,2,740,-4616,23,-43,-20,16
493,-15150,-4,762,-4619,23,-43,-20,17
494,-15182,-16,770,-4622,23,-44,-20,16
495,-15158,-48,742,-4625,23,-44,-19,17
496,-15174,-36,764,-4622,23,-44,-19,17
497,-15192,-4,798,-4618,23,-44,-20,17
498,-15176,0,782,-4615,23,-44,-20,17
499,-15128,-30,762,-4623,23,-44,-20,17
500,-15146,-26,752,-4624,23,-44,-19,17
501,-15146,12,752,-4620,23,-44,-20,17
502,-15152,-6,716,-4620,23,-44,-20,17
503,-15170,-12,720,-4619,23,-44,-19,18
504,-15158,0,712,-4617,23,-44,-19,18
505,-15172,-20,756,-4618,23,-43,-20,17
506,-15178,-16,764,-4622,23,-45,-20,17
507,-15182,-6,718,-4620,23,-45,-21,18
508,-15212,-12,740,-4620,23,-45,-20,16
509,-15154,16,766,-4619,23,-44,-20,17
510,-15152,4,748,-4623,23,-44,-20,17
511,-15172,-8,724,-4619,23,-43,-20,18
512,-15186,-14,710,-4617,23,-43,-20,17
513,-15178,-16,760,-4616,23,-44,-20,17
514,-15148,-8,754,-4617,23,-44,-20,16
515,-15164,4,742,-4616,23,-44,-20,17
516,-15124,-6,758,-4617,23,-44,-20,17
517,-15102,0,764,-4615,23,-45,-19,17
518,-15144,-30,730,-4610,23,-44,-20,17
519,-15152,-30,790,-4611,23,-44,-20,17
520,-15178,-2,788,-4614,23,-44,-20,17
521,-15134,4,746,-4614,23,-43,-20,18
522,-15130,-10,740,-4616,23,-45,-20,17
523,-15152,8,718,-4617,23,-44,-19,17
524,-15168,-8,726,-4615,23,-44,-19,17
525,-15188,-8,750,-4613,23,-44,-19,17
526,-15144,2,742,-4617,23,-43,-19,16
527,-15120,-18,802,-4617,23,-43,-19,17
528,-15132,10,778,-4617,23,-44,-19,16
529,-15112,-10,762,-4620,23,-43,-20,17
530,-15178,-12,774,-4614,23,-45,-19,17
531,-15146,-4,772,-4613,23,-45,-19,17
532,-15142,28,826,-4613,23,-45,-20,17
533,-15158,0,792,-4616,23,-44,-21,17
534,-15162,-10,792,-4619,23,-44,-20,17
535,-15148,-4,800,-4615,23,-44,-19,17
536,-15168,-20,792,-4618,23,-43,-19,18
537,-15172,-18,766,-4615,23,-44,-19,17
538,-15152,10,784,-4615,23,-44,-19,17
539,-15152,-12,770,-4611,23,-43,-20,17
540,-15152,6,772,-4615,23,-44,-20,18
541,-15152,-18,770,-4621,23,-44,-20,18
542,-15100,-12,784,-4619,23,-44,-19,18
543,-15130,0,736,-4619,23,-44,-19,17
544,-15124,20,712,-4618,23,-44,-19,17
545,-15174,-36,736,-4617,23,-44,-20,17
546,-15172,-40,732,-4616,23,-44,-21,17
547,-15164,-32,778,-4614,23,-44,-20,17
548,-15160,-18,788,-4614,23,-44,-20,17
549,-15166,-6,808,-4620,23,-44,-20,17
550,-15152,-10,798,-4617,23,-43,-20,17
551,-15192,-14,784,-4617,23,-43,-19,16
552,-15168,-28,778,-4615,23,-44,-20,16
553,-15136,-16,740,-4616,23,-45,-20,16
554,-15144,-20,710,-4620,23,-44,-20,17
555,-15138,-8,716,-4619,23,-44,-20,17
556,-15152,-44,750,-4613,23,-44,-20,17
557,-15146,-8,752,-4618,23,-43,-20,17
558,-15146,0,732,-4615,23,-44,-20,18
559,-15136,-8,748,-4617,23,-44,-20,17
560,-15144,-24,740,-4619,23,-43,-20,17
561,-15140,-2,742,-4617,23,-44,-20,17
562,-15158,8,756,-4620,23,-43,-20,18
563,-15160,8,754,-4621,23,-44,-19,17
564,-15164,14,780,-4617,23,-44,-20,17
565,-15174,-6,790,-4620,23,-44,-20,17
566,-15184,-6,748,-4613,23,-45,-20,17
567,-15152,8,780,-4616,23,-43,-20,17
568,-15150,-4,776,-4613,23,-43,-19,17
569,-15136,6,736,-4620,23,-43,-20,18
570,-15128,30,770,-4620,23,-44,-19,18
571,-15128,-20,810,-4617,23,-43,-19,17
572,-15088,-34,788,-4616,23,-43,-19,17
573,-15124,-32,758,-4619,23,-45,-18,17
574,-15140,-64,774,-4614,23,-44,-20,18
575,-15136,-44,758,-4617,23,-45,-19,17
576,-15120,-24,762,-4619,23,-44,-20,17
577,-15168,4,782,-4619,23,-44,-19,17
578,-15172,16,770,-4617,23,-45,-19,17
579,-15164,-4,754,-4616,23,-44,-20,17
580,-15162,-8,776,-4614,23,-43,-19,17
581,-15152,-6,780,-4614,23,-44,-19,16
582,-15164,-2,766,-4617,23,-44,-19,17
583,-15148,-12,752,-4617,23,-44,-19,17
584,-15132,-24,718,-4615,23,-44,-19,17
585,-15166,-18,774,-4622,23,-44,-19,17
586,-15168,-30,748,-4619,23,-44,-20,17
587,-15144,-20,706,-4618,23,-45,-20,16
588,-15140,-32,752,-4620,23,-44,-20,17
589,-15146,-28,712,-4620,23,-43,-19,17
590,-15170,-10,686,-4616,23,-43,-19,17
591,-15140,-6,744,-4614,23,-44,-20,17
592,-15126,2,774,-4616,23,-44,-20,17
593,-15166,6,700,-4614,23,-44,-20,18
594,-15150,-4,736,-4616,23,-44,-20,18
595,-15140,-20,738,-4619,23,-44,-20,17
596,-15132,-6,722,-4622,23,-44,-20,17
597,-15148,-20,794,-4619,23,-44,-20,17
598,-15146,-44,778,-4619,23,-45,-19,18
599,-15126,-20,760,-4618,23,-44,-20,18
600,-15138,-12,768,-4618,23,-44,-20,17
601,-15116,-8,752,-4619,23,-44,-20,17
602,-15162,-6,728,-4621,23,-44,-20,17
603,-15150,4,740,-4621,23,-44,-19,18
604,-15162,-4,760,-4618,23,-44,-20,17
605,-15164,-2,764,-4618,23,-45,-19,16
606,-15154,-30,746,-4621,23,-44,-19,17
607,-15148,-24,730,-4619,23,-44,-20,17
608,-15156,-4,792,-4620,23,-44,-19,17
609,-15182,12,800,-4618,23,-45,-19,17
610,-15168,6,756,-4612,23,-45,-19,16
611,-15188,6,710,-4613,23,-44,-20,16
612,-15204,-40,728,-4613,23,-44,-20,16
613,-15182,6,698,-4617,23,-44,-20,17
614,-15136,16,724,-4613,23,-44,-20,17
615,-15162,-10,730,-4609,23,-44,-20,17
616,-15176,30,776,-4612,23,-44,-20,17
617,-15152,20,736,-4613,23,-44,-20,17
618,-15122,2,720,-4612,23,-43,-20,17
619,-15130,32,752,-4612,23,-43,-19,17
620,-15160,24,766,-4618,23,-43,-20,17
621,-15192,6,734,-4612,23,-44,-20,17
622,-15178,-20,754,-4616,23,-44,-20,17
623,-15172,-20,830,-4617,23,-44,-20,17
624,-15142,-26,784,-4611,23,-44,-19,17
625,-15174,-40,758,-4619,23,-44,-20,17
626,-15154,-38,736,-4621,23,-45,-20,17
627,-15156,-40,750,-4620,23,-44,-20,17
628,-15138,-28,748,-4618,23,-44,-19,17
629,-15180,-30,728,-4622,23,-43,-20,16
630,-15168,-4,752,-4621,23,-44,-19,17
631,-15154,-26,726,-4615,23,-44,-19,17
632,-15158,-12,736,-4618,23,-44,-20,17
633,-15140,-6,786,-4615,23,-44,-20,17
634,-15140,-8,786,-4617,23,-44,-20,18
635,-15146,8,740,-4621,23,-44,-20,17
636,-15160,28,758,-4618,23,-44,-20,17
637,-15184,-8,716,-4620,23,-45,-19,17
638,-15188,8,742,-4616,23,-44,-19,17
639,-15160,-10,764,-4616,23,-43,-19,16
640,-15186,-36,772,-4619,23,-44,-19,16
641,-15182,-16,772,-4620,23,-44,-19,17
642,-15148,-14,770,-4614,23,-44,-20,17
643,-15152,-16,776,-4622,23,-44,-20,17
644,-15164,-14,784,-4619,23,-44,-20,17
645,-15152,-30,788,-4618,23,-44,-20,18
646,-15166,-26,788,-4612,23,-44,-20,17
647,-15160,-10,768,-4609,23,-43,-19,17
648,-15160,-4,740,-4614,23,-43,-20,17
649,-15128,-28,746,-4615,23,-44,-20,17
650,-15120,14,738,-4618,23,-45,-19,16
651,-15142,10,750,-4616,23,-45,-20,17
652,-15148,20,788,-4613,23,-45,-19,17
653,-15146,2,750,-4616,23,-44,-20,16
654,-15154,12,706,-4618,23,-44,-20,17
655,-15148,8,704,-4615,23,-45,-20,17
656,-15140,-10,704,-4617,23,-44,-21,17
657,-15140,2,756,-4616,23,-44,-19,17
658,-15138,8,764,-4616,23,-43,-20,18
659,-15144,-4,734,-4621,23,-44,-19,17
660,-15148,-36,728,-4619,23,-43,-20,16
661,-15174,-18,754,-4615,23,-44,-21,17
662,-15140,-42,752,-4615,23,-43,-20,17
663,-15136,-18,750,-4615,23,-44,-20,17
664,-15160,-30,786,-4617,23,-44,-20,18
665,-15174,-12,746,-4616,23,-43,-19,17
666,-15158,4,714,-4623,23,-44,-19,17
667,-15170,-16,754,-4621,23,-44,-19,17
668,-15156,-18,796,-4620,23,-45,-20,17
669,-15128,-14,714,-4619,23,-44,-20,17
670,-15132,-8,762,-4614,23,-44,-19,17
671,-15132,32,756,-4618,23,-44,-20,17
672,-15156,14,720,-4620,23,-43,-20,17
673,-15142,24,724,-4622,23,-43,-20,17
674,-15150,20,760,-4617,23,-44,-20,17
675,-15176,0,732,-4623,23,-44,-20,17
676,-15176,-8,750,-4619,23,-43,-20,17
677,-15180,-6,780,-4616,23,-44,-18,18
678,-15198,-8,766,-4619,23,-45,-18,17
679,-15162,-28,742,-4620,23,-44,-19,17
680,-15142,-34,754,-4621,23,-44,-20,17
681,-15162,0,758,-4619,23,-44,-20,18
682,-15176,-2,766,-4618,23,-44,-20,17
683,-15186,-18,760,-4618,23,-44,-20,17
684,-15166,-34,790,-4618,23,-44,-20,17
685,-15194,6,772,-4615,23,-44,-18,17
686,-15156,14,736,-4614,23,-45,-19,17
687,-15156,10,750,-4617,23,-44,-20,17
688,-15130,18,746,-4619,23,-44,-20,17
689,-15128,-2,720,-4615,23,-44,-19,17
690,-15130,-2,702,-4618,23,-44,-19,17
691,-15134,-16,712,-4613,23,-44,-19,17
692,-15130,-22,752,-4615,23,-43,-19,16
693,-15118,-24,770,-4611,23,-43,-19,17
694,-15154,22,758,-4615,23,-43,-19,17
695,-15150,-22,740,-4616,23,-44,-19,17
696,-15172,-20,752,-4619,23,-44,-20,17
697,-15156,-20,784,-4612,23,-44,-20,17
698,-15140,-14,738,-4619,23,-44,-20,17
699,-15174,-12,782,-4619,23,-45,-19,17
700,-15176,-12,784,-4618,23,-44,-19,17
701,-15144,-18,798,-4614,23,-44,-19,17
702,-15190,6,770,-4613,23,-44,-19,17
703,-15158,18,706,-4609,23,-44,-19,17
704,-15158,-32,706,-4612,23,-44,-20,17
705,-15182,-26,728,-4613,23,-43,-20,17
706,-15190,-26,774,-4613,23,-44,-20,17
707,-15156,-24,782,-4616,23,-44,-19,17
708,-15126,-34,758,-4618,23,-43,-20,17
709,-15138,-28,750,-4618,23,-43,-20,17
710,-15152,-30,750,-4618,23,-44,-20,17
711,-15182,-16,742,-4620,23,-44,-20,17
712,-15166,-34,684,-4617,23,-45,-19,16
713,-15150,-12,726,-4620,23,-44,-19,17
714,-15166,4,750,-4623,23,-44,-19,17
715,-15134,-18,780,-4622,23,-44,-20,16
716,-15168,8,776,-4620,23,-44,-20,17
717,-15172,2,782,-4618,23,-44,-20,17
718,-15164,0,780,-4614,23,-44,-19,17
719,-15158,-6,746,-4616,23,-44,-20,16
720,-15158,-16,760,-4616,23,-44,-19,17
721,-15188,-24,752,-4614,23,-43,-19,17
722,-15166,-14,752,-4620,23,-43,-20,17
723,-15128,-8,716,-4621,23,-43,-20,17
724,-15148,-18,770,-4618,23,-44,-21,17
725,-15162,-30,744,-4617,23,-44,-20,17
726,-15120,-24,750,-4612,23,-44,-20,17
727,-15152,-24,758,-4619,23,-44,-20,18
728,-15152,8,712,-4611,23,-44,-20,18
729,-15134,-10,734,-4614,23,-44,-20,17
730,-15150,-28,732,-4615,23,-44,-20,18
731,-15130,-6,728,-4614,23,-43,-19,18
732,-15134,-2,768,-4615,23,-43,-20,17
733,-15138,-2,792,-4619,23,-43,-20,18
734,-15142,-18,764,-4617,23,-44,-20,17
735,-15144,-40,846,-4621,23,-44,-20,17
736,-15148,4,798,-4620,23,-44,-20,17
737,-15174,-18,780,-4616,23,-44,-19,17
738,-15162,-2,780,-4624,23,-44,-19,16
739,-15144,-20,756,-4622,23,-44,-20,17
740,-15118,24,794,-4619,23,-44,-20,17
741,-15146,14,740,-4618,23,-44,-20,17
742,-15154,-10,744,-4618,23,-43,-20,17
743,-15164,-28,750,-4614,23,-44,-20,17
744,-15166,0,748,-4619,23,-44,-20,17
745,-15160,-26,742,-4613,23,-44,-20,18
746,-15126,-38,718,-4618,23,-44,-20,18
747,-15172,-30,750,-4617,23,-44,-21,17
748,-15158,-22,728,-4619,23,-44,-21,17
749,-15134,-20,750,-4618,23,-44,-21,17
750,-15150,-2,740,-4620,23,-44,-21,17
751,-15172,2,790,-4618,23,-44,-20,17
752,-15164,10,766,-4612,23,-45,-20,17
753,-15162,-14,744,-4612,23,-44,-19,17
754,-15118,-22,770,-4621,23,-44,-19,17
755,-15160,-36,740,-4612,23,-44,-19,17
756,-15182,10,784,-4616,23,-44,-20,17
757,-15166,-12,800,-4616,23,-44,-20,18
758,-15164,-20,762,-4618,23,-44,-20,18
759,-15176,-22,754,-4618,23,-44,-20,18
760,-15170,8,770,-4611,23,-43,-20,18
761,-15164,-20,818,-4618,23,-45,-19,17
762,-15154,-14,746,-4614,23,-44,-20,16
763,-15158,4,774,-4616,23,-44,-20,17
764,-15138,-6,722,-4614,23,-44,-20,17
765,-15136,-4,734,-4613,23,-44,-19,17
766,-15130,-10,732,-4620,23,-44,-20,18
767,-15168,6,776,-4617,23,-43,-20,17
768,-15128,6,726,-4620,23,-44,-19,18
769,-15150,-10,732,-4616,23,-44,-20,18
770,-15152,-40,708,-4614,23,-44,-20,17
771,-15150,-28,738,-4614,23,-44,-20,17
772,-15168,-18,722,-4618,23,-44,-20,17
773,-15166,-12,734,-4620,23,-44,-20,17
774,-15158,-32,758,-4617,23,-44,-20,16
775,-15134,14,758,-4616,23,-45,-21,18
776,-15160,-8,740,-4617,23,-45,-21,17
777,-15154,-26,722,-4615,23,-44,-20,17
778,-15148,12,786,-4615,23,-44,-20,18
779,-15164,2,738,-4619,23,-43,-20,17
780,-15182,-16,702,-4620,23,-44,-19,17
781,-15170,-10,740,-4619,23,-44,-19,17
782,-15140,2,778,-4623,23,-44,-20,16
783,-15160,-16,764,-4622,23,-44,-19,16
784,-15156,-6,712,-4625,23,-44,-19,17
785,-15164,-60,728,-4622,23,-43,-19,17
786,-15164,-10,698,-4621,23,-44,-19,18
787,-15136,6,698,-4617,23,-44,-19,18
788,-15170,-26,718,-4619,23,-44,-18,17
789,-15140,-8,766,-4618,23,-44,-19,17
790,-15136,-14,780,-4618,23,-43,-19,17
791,-15136,12,740,-4616,23,-44,-20,18
792,-15120,-32,738,-4613,23,-43,-20,18
793,-15158,4,730,-4612,23,-44,-20,17
794,-15170,12,726,-4617,23,-45,-20,17
795,-15154,14,794,-4622,23,-44,-19,17
796,-15174,-4,752,-4619,23,-43,-19,17
797,-15134,-16,710,-4619,23,-44,-20,16
798,-15136,-10,684,-4617,23,-44,-19,16
799,-15138,-14,728,-4616,23,-44,-20,16
800,-15136,-14,764,-4611,23,-44,-20,17
801,-15162,8,762,-4618,23,-44,-20,17
802,-15146,6,758,-4620,23,-44,-20,18
803,-15162,-4,772,-4621,23,-43,-19,17
804,-15170,-8,756,-4620,23,-44,-19,16
805,-15140,-16,742,-4622,23,-43,-20,18
806,-15130,-12,762,-4620,23,-44,-21,17
807,-15160,-24,748,-4619,23,-43,-19,17
808,-15156,-18,748,-4620,23,-44,-20,17
809,-15148,-34,742,-4614,23,-44,-21,18
810,-15164,-10,766,-4618,23,-45,-20,17
811,-15184,-14,750,-4617,23,-44,-20,16
812,-15140,-14,746,-4622,23,-44,-20,17
813,-15162,-44,724,-4616,23,-43,-20,17
814,-15172,-12,758,-4616,23,-44,-20,17
815,-15160,-22,750,-4622,23,-44,-20,18
816,-15186,6,730,-4619,23,-44,-20,17
817,-15182,-6,736,-4617,23,-43,-19,18
818,-15152,-32,776,-4622,23,-44,-20,18
819,-15156,-14,788,-4619,23,-44,-20,17
820,-15130,-24,782,-4615,23,-44,-20,17
821,-15108,-38,758,-4613,23,-45,-19,17
822,-15180,-52,752,-4610,23,-45,-19,17
823,-15176,4,732,-4621,23,-44,-19,17
824,-15164,-4,734,-4622,23,-44,-20,16
825,-15126,4,790,-4619,23,-44,-20,17
826,-15134,6,804,-4620,23,-44,-20,17
827,-15160,2,778,-4617,23,-45,-20,17
828,-15146,-46,776,-4615,23,-44,-20,17
829,-15172,-8,748,-4619,23,-45,-21,17
830,-15168,-6,696,-4621,23,-44,-20,17
831,-15132,-40,736,-4621,23,-44,-19,17
832,-15138,-16,760,-4614,23,-44,-19,17
833,-15140,-44,802,-4617,23,-44,-20,17
834,-15180,-38,788,-4617,23,-44,-20,18
835,-15184,-22,788,-4623,23,-44,-20,17
836,-15148,-22,750,-4618,23,-44,-19,18
837,-15156,-8,754,-4617,23,-44,-19,17
838,-15168,-22,750,-4614,23,-44,-19,17
839,-15162,-14,726,-4615,23,-44,-19,17
840,-15186,-2,762,-4616,23,-44,-20,17
841,-15174,2,748,-4617,23,-44,-19,16
842,-15146,-2,748,-4618,23,-44,-19,16
843,-15156,-4,770,-4614,23,-43,-19,16
844,-15132,-54,760,-4611,23,-44,-19,17
845,-15168,-38,720,-4617,23,-44,-20,17
846,-15182,-26,690,-4619,23,-44,-20,16
847,-15144,-14,780,-4617,23,-44,-19,17
848,-15162,-18,774,-4617,23,-44,-19,17
849,-15144,-6,736,-4623,23,-44,-19,17
850,-15138,-22,748,-4620,23,-44,-20,17
851,-15166,-24,758,-4624,23,-44,-20,17
852,-15188,-8,768,-4618,23,-44,-20,17
853,-15146,-22,772,-4619,23,-45,-19,17
854,-15164,-38,746,-4613,23,-44,-19,17
855,-15150,-10,806,-4613,23,-44,-19,18
856,-15142,-54,782,-4615,23,-44,-20,17
857,-15168,-48,726,-4613,23,-44,-20,17
858,-15164,0,694,-4610,23,-44,-20,17
859,-15166,-20,734,-4612,23,-44,-19,17
860,-15154,-14,770,-4617,23,-44,-20,17
861,-15150,22,782,-4614,23,-43,-20,17
862,-15148,-18,752,-4612,23,-44,-20,16
863,-15168,-28,748,-4616,23,-43,-19,17
864,-15158,-14,726,-4616,23,-43,-20,17
865,-15156,-26,770,-4613,23,-45,-20,17
866,-15148,-6,760,-4613,23,-44,-19,17
867,-15154,-38,804,-4614,23,-43,-20,17
868,-15162,-22,746,-4611,23,-44,-20,18
869,-15162,-22,752,-4612,23,-44,-19,18
870,-15178,-2,758,-4621,23,-44,-20,18
871,-15186,2,762,-4621,23,-44,-20,18
872,-15198,-22,712,-4618,23,-43,-20,17
873,-15184,-22,720,-4619,23,-44,-19,17
874,-15170,-20,750,-4617,23,-43,-19,17
875,-15168,-4,706,-4619,23,-44,-19,17
876,-15146,12,766,-4622,23,-44,-19,17
877,-15148,-26,766,-4616,23,-44,-20,18
878,-15156,-50,742,-4620,23,-44,-19,17
879,-15134,-32,768,-4616,23,-44,-20,17
880,-15138,18,756,-4617,23,-44,-20,17
881,-15156,-2,712,-4616,23,-44,-20,17
882,-15146,-20,716,-4613,23,-44,-19,18
883,-15162,-44,742,-4615,23,-44,-20,17
884,-15148,-72,746,-4615,23,-43,-21,18
885,-15130,-40,724,-4610,23,-44,-20,17
886,-15156,-36,768,-4615,23,-44,-20,17
887,-15156,4,768,-4618,23,-43,-19,17
888,-15178,-10,754,-4618,23,-43,-20,17
889,-15180,-10,760,-4614,23,-44,-20,17
890,-15178,0,746,-4616,23,-44,-19,18
891,-15174,-18,764,-4616,23,-44,-20,18
892,-15152,-40,724,-4619,23,-44,-19,17
893,-15152,-10,766,-4618,23,-44,-19,17
894,-15166,-36,774,-4618,23,-44,-19,18
895,-15154,-44,800,-4613,23,-45,-20,17
896,-15180,-28,782,-4613,23,-44,-20,17
897,-15168,-28,718,-4614,23,-44,-19,18
898,-15164,-18,708,-4614,23,-43,-20,18
899,-15164,-46,728,-4618,23,-44,-20,18
900,-15146,-22,750,-4614,23,-44,-19,17
901,-15190,-6,748,-4611,23,-43,-20,17
902,-15166,-20,776,-4610,23,-44,-20,17
903,-15168,-2,748,-4616,23,-44,-19,17
904,-15148,-40,758,-4616,23,-43,-19,17
905,-15186,-56,742,-4616,23,-44,-20,17
906,-15166,-68,742,-4616,23,-45,-20,17
907,-15166,-4,758,-4610,23,-44,-21,17
908,-15174,-8,744,-4618,23,-44,-19,18
909,-15140,-24,752,-4615,23,-43,-19,17
910,-15110,-38,724,-4615,23,-44,-20,17
911,-15122,-10,724,-4616,23,-44,-19,16
912,-15152,-32,756,-4620,23,-43,-20,15
913,-15206,-12,808,-4622,23,-43,-20,16
914,-15178,-10,764,-4618,23,-43,-20,16
915,-15112,-6,790,-4619,23,-44,-19,17
916,-15108,-32,762,-4619,23,-44,-19,17
917,-15154,-44,734,-4611,23,-44,-20,17
918,-15174,-62,724,-4612,23,-44,-20,17
919,-15130,4,774,-4614,23,-43,-20,18
920,-15160,10,762,-4614,23,-44,-20,17
921,-15134,-4,692,-4614,23,-43,-20,17
922,-15166,32,730,-4613,23,-44,-20,17
923,-15172,-6,728,-4614,23,-44,-20,17
924,-15136,6,718,-4610,23,-44,-19,18
925,-15128,0,730,-4611,23,-44,-20,18
926,-15174,2,718,-4616,23,-44,-20,17
927,-15144,-8,692,-4619,23,-44,-21,17
928,-15158,-6,712,-4615,23,-45,-20,17
929,-15158,-22,752,-4608,23,-44,-20,18
930,-15156,-14,722,-4617,23,-43,-21,18
931,-15168,-22,716,-4618,23,-43,-20,18
932,-15140,-10,722,-4616,23,-43,-19,17
933,-15146,24,712,-4617,23,-43,-20,17
934,-15156,0,732,-4616,23,-44,-20,17
935,-15174,6,732,-4611,23,-44,-19,17
936,-15160,-4,752,-4618,23,-44,-19,17
937,-15164,-8,786,-4617,23,-43,-19,17
938,-15168,-6,742,-4613,23,-43,-20,17
939,-15180,-20,768,-4621,23,-44,-20,17
940,-15158,-26,756,-4620,23,-43,-19,17
941,-15160,-12,784,-4618,23,-44,-20,17
942,-15142,-30,734,-4616,23,-44,-20,17
943,-15140,-36,750,-4614,23,-43,-19,17
944,-15154,-16,750,-4610,23,-44,-19,17
945,-15142,-12,734,-4611,23,-44,-20,17
946,-15144,-14,770,-4616,23,-43,-20,17
947,-15158,-12,756,-4614,23,-43,-20,17
948,-15162,4,752,-4612,23,-44,-20,17
949,-15172,12,742,-4614,23,-44,-20,18
950,-15152,-12,756,-4613,23,-45,-20,16
951,-15118,36,732,-4616,23,-44,-19,17
952,-15144,10,740,-4614,23,-44,-19,17
953,-15158,-2,780,-4616,23,-44,-20,18
954,-15142,-20,756,-4616,23,-44,-19,17
955,-15154,-14,774,-4619,23,-44,-19,17
956,-15178,-6,772,-4612,23,-43,-20,17
957,-15180,-10,778,-4616,23,-43,-19,18
958,-15126,-10,732,-4610,23,-44,-19,17
959,-15150,4,822,-4610,23,-43,-20,17
960,-15156,-12,816,-4610,23,-44,-19,17
961,-15156,14,734,-4613,23,-44,-20,17
962,-15166,10,788,-4612,23,-43,-20,18
963,-15144,-8,786,-4618,23,-43,-20,18
964,-15146,-26,776,-4609,23,-44,-20,17
965,-15146,-28,776,-4614,23,-44,-19,17
966,-15130,0,766,-4611,23,-44,-19,17
967,-15152,8,762,-4619,23,-44,-20,17
968,-15158,18,782,-4616,23,-44,-18,17
969,-15160,-4,792,-4618,23,-43,-20,17
970,-15164,22,790,-4617,23,-44,-19,17
971,-15174,-8,776,-4614,23,-44,-20,16
972,-15154,18,784,-4615,23,-43,-20,17
973,-15134,8,738,-4612,23,-44,-20,17
974,-15142,2,736,-4614,23,-45,-20,17
975,-15164,-6,756,-4615,23,-44,-20,17
976,-15146,-20,786,-4614,23,-44,-20,17
977,-15174,4,780,-4614,23,-44,-20,17
978,-15150,10,756,-4613,23,-43,-20,17
979,-15182,-20,750,-4615,23,-43,-20,17
980,-15176,-30,762,-4612,23,-43,-20,17
981,-15156,14,780,-4617,23,-44,-20,17
982,-15138,-18,750,-4619,23,-43,-19,17
983,-15146,-42,758,-4619,23,-43,-20,17
984,-15134,-18,774,-4615,23,-43,-19,18
985,-15170,-24,730,-4614,23,-44,-20,18
986,-15140,-16,686,-4608,23,-44,-20,17
987,-15136,12,734,-4610,23,-44,-19,17
988,-15136,-42,762,-4614,23,-44,-20,17
989,-15150,-20,702,-4611,23,-44,-18,18
990,-15144,-32,760,-4612,23,-43,-19,17
991,-15126,-32,750,-4617,23,-44,-20,17
992,-15160,-12,768,-4615,23,-44,-19,18
993,-15156,-14,722,-4611,23,-44,-19,18
994,-15164,-14,694,-4615,23,-44,-19,17
995,-15146,-14,744,-4619,23,-44,-19,17
996,-15182,-28,764,-4617,23,-45,-19,18
997,-15132,-30,746,-4615,23,-44,-21,17
998,-15120,-10,724,-4614,23,-44,-21,17
