,acc_x,acc_y,acc_z,gyro_x,gyro_y,gyro_z,temp
0,172,65535,1838,65267,65411,71,61146
1,172,0,1837,65267,65411,71,61146
2,172,65535,1837,65267,65411,72,61146
3,172,65534,1836,65267,65412,72,61146
4,172,65534,1836,65267,65414,69,61146
5,172,0,1836,65267,65415,71,61146
6,172,0,1837,65268,65412,75,61148
7,171,0,1838,65266,65411,74,61147
8,173,0,1842,65266,65413,74,61146
9,172,2,1838,65269,65413,76,61148
10,171,1,1838,65265,65412,78,61148
11,172,65534,1840,65267,65414,76,61150
12,172,65535,1839,65266,65414,72,61149
13,174,65535,1840,65268,65416,70,61148
14,172,2,1840,65269,65415,73,61149
15,172,1,1840,65267,65416,70,61150
16,173,3,1842,65266,65415,71,61150
17,174,2,1839,65266,65414,72,61149
18,172,0,1841,65265,65414,75,61150
19,171,65534,1839,65267,65412,70,61151
20,171,65535,1837,65265,65415,65,61150
21,171,0,1839,65267,65415,69,61151
22,172,1,1837,65266,65415,71,61152
23,173,0,1840,65265,65417,73,61150
24,173,1,1840,65266,65418,72,61150
25,172,1,1840,65267,65415,70,61152
26,171,1,1841,65265,65418,73,61151
27,171,1,1839,65264,65414,74,61149
28,171,65535,1841,65264,65416,71,61151
29,172,0,1836,65265,65414,73,61150
30,173,1,1835,65267,65416,76,61151
31,172,2,1836,65267,65417,71,61151
32,171,2,1839,65271,65419,70,61151
33,170,2,1839,65270,65414,71,61153
34,170,0,1837,65267,65413,74,61155
35,174,0,1838,65266,65417,74,61155
36,172,0,1838,65267,65416,75,61155
37,171,0,1836,65266,65416,72,61151
38,171,1,1837,65264,65413,73,61150
39,172,65535,1839,65267,65414,71,61151
40,173,1,1838,65267,65415,72,61151
41,174,1,1837,65269,65413,73,61151
42,174,1,1839,65268,65410,73,61153
43,173,2,1842,65266,65414,68,61157
44,172,2,1841,65267,65412,71,61156
45,173,0,1836,65269,65417,72,61156
46,173,1,1838,65269,65420,73,61157
47,172,0,1841,65267,65416,70,61155
48,174,65534,1838,65264,65415,73,61157
49,174,0,1839,65265,65417,72,61155
50,174,1,1838,65265,65413,71,61152
51,174,1,1836,65264,65415,75,61154
52,172,2,1839,65265,65415,76,61155
53,171,0,1840,65264,65414,75,61156
54,172,0,1841,65265,65417,76,61154
55,173,0,1839,65269,65416,71,61156
56,171,0,1839,65268,65415,73,61155
57,173,0,1839,65264,65412,73,61156
58,173,0,1839,65267,65414,74,61155
59,172,1,1837,65268,65415,74,61156
60,174,65535,1839,65270,65414,73,61154
61,174,1,1839,65265,65411,74,61154
62,174,1,1839,65268,65415,72,61154
63,172,65535,1842,65269,65417,75,61157
64,172,0,1839,65266,65418,73,61154
65,174,0,1839,65269,65417,73,61156
66,172,0,1839,65269,65415,71,61152
67,172,1,1842,65269,65416,73,61153
68,173,0,1840,65270,65415,70,61152
69,172,1,1840,65267,65415,71,61152
70,172,65535,1841,65265,65414,73,61156
71,173,0,1841,65268,65415,76,61155
72,172,1,1842,65265,65415,74,61155
73,174,65534,1838,65268,65415,74,61154
74,171,65535,1838,65265,65413,72,61153
75,172,1,1839,65267,65414,73,61153
76,172,65535,1838,65269,65413,72,61156
77,171,0,1837,65268,65414,75,61157
78,172,1,1837,65271,65414,69,61159
79,172,0,1841,65267,65416,69,61157
80,172,0,1840,65268,65414,71,61158
81,173,65535,1841,65267,65410,72,61155
82,174,65535,1839,65267,65412,75,61153
83,173,1,1840,65267,65410,72,61154
84,172,0,1839,65268,65410,74,61157
85,172,0,1840,65267,65415,76,61157
86,172,65535,1840,65267,65417,73,61154
87,172,1,1838,65266,65418,74,61154
88,172,1,1839,65266,65414,73,61154
89,172,0,1840,65266,65414,72,61155
90,170,2,1840,65263,65414,73,61157
91,171,0,1839,65268,65412,70,61157
92,173,0,1839,65268,65413,72,61159
93,173,65534,1841,65267,65414,75,61155
94,172,65535,1838,65268,65416,74,61154
95,171,65535,1839,65263,65416,73,61153
96,172,0,1836,65268,65415,72,61153
97,172,0,1838,65265,65411,73,61157
98,173,2,1840,65266,65415,74,61154
99,173,0,1841,65265,65415,73,61153
100,173,0,1838,65266,65414,73,61153
101,172,1,1836,65267,65417,74,61154
102,173,1,1836,65267,65415,71,61155
103,172,0,1838,65266,65415,76,61156
104,171,2,1840,65268,65414,72,61152
105,171,2,1839,65266,65413,74,61154
106,172,1,1840,65265,65413,72,61154
107,172,2,1841,65265,65412,75,61154
108,172,0,1838,65265,65412,74,61155
109,172,65535,1840,65268,65416,72,61153
110,172,1,1838,65264,65414,73,61153
111,172,1,1842,65264,65415,72,61156
112,170,65535,1841,65266,65413,73,61154
113,171,0,1839,65268,65413,71,61157
114,171,65534,1840,65265,65413,70,61155
115,171,1,1842,65269,65411,68,61160
116,169,65535,1839,65267,65412,71,61159
117,172,65534,1839,65269,65418,71,61159
118,171,0,1839,65268,65417,74,61156
119,171,0,1840,65268,65416,72,61157
120,172,1,1840,65268,65418,70,61157
121,173,0,1840,65265,65415,73,61155
122,171,0,1840,65264,65417,71,61155
123,171,65535,1840,65268,65418,72,61155
124,171,65535,1838,65268,65416,71,61154
125,168,2,1839,65268,65418,74,61157
126,173,0,1838,65267,65417,76,61158
127,174,1,1838,65268,65414,74,61154
128,172,1,1840,65267,65414,73,61159
129,172,0,1836,65266,65418,73,61158
130,171,2,1838,65263,65413,73,61157
131,171,2,1838,65265,65411,72,61157
132,171,2,1839,65268,65417,72,61156
133,171,3,1841,65269,65415,74,61156
134,173,2,1840,65266,65413,73,61155
135,173,1,1838,65267,65412,70,61153
136,172,1,1841,65267,65417,72,61155
137,171,0,1839,65265,65414,75,61154
138,172,1,1842,65264,65412,74,61152
139,171,65535,1841,65266,65415,74,61156
140,172,0,1840,65268,65411,76,61157
141,173,65535,1838,65267,65417,74,61155
142,170,65534,1838,65268,65411,74,61156
143,173,0,1839,65271,65415,72,61156
144,175,1,1841,65267,65414,75,61154
145,174,65535,1840,65266,65416,73,61153
146,173,65535,1842,65265,65417,71,61153
147,173,1,1839,65267,65414,73,61155
148,171,65535,1840,65268,65422,70,61156
149,173,0,1839,65270,65419,71,61155
150,172,2,1839,65269,65417,72,61154
151,172,65535,1841,65269,65416,67,61153
152,172,65535,1840,65266,65418,69,61149
153,174,1,1839,65265,65415,72,61153
154,172,1,1841,65266,65414,73,61152
155,171,65535,1842,65268,65419,74,61155
156,173,65535,1840,65266,65416,76,61155
157,172,65534,1840,65267,65413,75,61150
158,172,65535,1838,65266,65414,74,61151
159,170,65534,1840,65266,65415,69,61155
160,171,0,1842,65266,65416,70,61156
161,171,2,1841,65264,65417,71,61153
162,171,2,1839,65265,65413,70,61153
163,171,0,1838,65265,65410,72,61148
164,171,65534,1842,65263,65413,71,61148
165,170,1,1840,65265,65416,73,61152
166,171,65535,1840,65267,65416,70,61153
167,172,65535,1839,65263,65415,73,61155
168,172,1,1843,65267,65412,73,61156
169,172,0,1841,65266,65419,71,61154
170,171,1,1838,65266,65417,73,61154
171,173,0,1841,65267,65416,73,61155
172,171,0,1841,65265,65415,74,61156
173,170,65535,1839,65266,65414,75,61153
174,172,0,1838,65267,65417,73,61153
175,174,0,1838,65268,65411,73,61154
176,172,0,1840,65270,65413,70,61156
177,171,0,1840,65268,65415,71,61157
178,172,1,1839,65268,65418,70,61155
179,171,1,1840,65269,65418,72,61155
180,172,1,1840,65268,65415,71,61154
181,171,2,1838,65268,65415,69,61154
182,171,65535,1841,65266,65416,76,61158
183,174,65535,1838,65265,65415,74,61155
184,171,0,1840,65265,65414,69,61154
185,171,0,1840,65266,65416,71,61157
186,174,1,1839,65264,65415,68,61156
187,173,1,1841,65266,65414,67,61155
188,171,0,1840,65266,65416,70,61155
189,171,1,1841,65266,65415,71,61156
190,171,1,1840,65269,65415,72,61160
191,171,1,1841,65267,65416,72,61156
192,172,0,1841,65268,65415,74,61154
193,172,0,1840,65266,65415,74,61157
194,174,65535,1839,65267,65415,72,61155
195,173,65534,1838,65267,65416,74,61156
196,173,65535,1835,65265,65413,73,61156
197,173,65535,1838,65269,65416,70,61155
198,174,65534,1837,65268,65418,72,61154
199,172,0,1840,65266,65416,74,61155
200,171,1,1842,65260,65414,71,61154
201,173,2,1842,65265,65417,70,61158
202,173,1,1837,65266,65417,71,61160
203,172,0,1836,65263,65415,73,61157
204,173,65535,1838,65264,65410,70,61155
205,173,0,1839,65266,65419,71,61155
206,171,0,1841,65269,65419,70,61157
207,172,65535,1838,65265,65416,69,61157
208,172,2,1841,65266,65415,75,61156
209,172,3,1843,65264,65422,74,61155
210,173,1,1841,65266,65417,70,61153
211,171,2,1840,65267,65415,73,61154
212,171,1,1839,65266,65416,73,61155
213,172,1,1841,65264,65414,75,61158
214,172,0,1842,65266,65416,74,61157
215,171,0,1840,65268,65414,74,61157
216,172,65534,1836,65268,65414,73,61157
217,172,0,1837,65265,65412,74,61159
218,172,65534,1840,65266,65416,70,61158
219,174,65535,1840,65266,65415,73,61154
220,172,65535,1840,65268,65419,71,61157
221,173,2,1839,65266,65418,71,61158
222,174,2,1841,65268,65414,74,61157
223,173,2,1839,65267,65413,73,61156
224,174,1,1841,65266,65412,68,61156
225,171,1,1838,65265,65413,70,61156
226,171,2,1837,65266,65416,69,61157
227,171,2,1837,65268,65414,67,61156
228,172,0,1837,65266,65416,71,61158
229,173,0,1841,65267,65419,73,61158
230,172,65535,1840,65267,65416,68,61160
231,172,65535,1839,65267,65415,70,61159
232,171,0,1843,65267,65416,72,61156
233,173,0,1840,65269,65416,73,61159
234,173,0,1842,65267,65413,73,61158
235,173,0,1841,65267,65414,72,61155
236,173,2,1837,65263,65412,68,61157
237,173,65535,1837,65264,65416,71,61158
238,172,65535,1837,65266,65417,73,61155
239,172,65535,1838,65268,65416,71,61157
240,173,0,1841,65267,65413,70,61157
241,175,65535,1843,65267,65415,70,61159
242,174,1,1841,65268,65416,72,61159
243,174,0,1840,65265,65417,73,61157
244,173,65535,1839,65266,65418,69,61157
245,172,65535,1837,65268,65415,73,61156
246,173,1,1840,65268,65415,71,61156
247,172,65535,1840,65268,65414,74,61155
248,172,1,1842,65264,65417,78,61154
249,172,1,1842,65264,65416,73,61156
250,173,0,1841,65267,65414,70,61156
251,172,65535,1838,65265,65415,75,61158
252,172,1,1841,65265,65412,72,61154
253,172,1,1839,65265,65413,72,61152
254,173,65535,1836,65267,65412,71,61153
255,172,1,1838,65269,65410,69,61152
256,172,65535,1843,65267,65414,74,61153
257,173,65534,1838,65267,65414,71,61154
258,174,0,1841,65268,65416,74,61152
259,173,0,1840,65263,65418,73,61156
260,171,1,1838,65264,65419,69,61157
261,171,1,1840,65265,65418,67,61157
262,172,65535,1841,65266,65421,71,61154
263,172,65535,1840,65266,65419,71,61156
264,173,0,1841,65267,65415,72,61155
265,173,0,1839,65265,65418,71,61155
266,171,1,1838,65266,65417,70,61155
267,173,0,1840,65266,65417,69,61155
268,172,1,1839,65267,65414,73,61159
269,170,1,1840,65268,65415,74,61157
270,171,65535,1841,65267,65413,71,61156
271,175,1,1844,65266,65412,70,61157
272,173,65534,1841,65265,65413,69,61156
273,171,65535,1836,65265,65417,69,61153
274,173,0,1840,65267,65415,70,61156
275,173,0,1841,65266,65416,75,61156
276,172,1,1842,65267,65417,73,61154
277,174,1,1840,65267,65417,71,61157
278,173,2,1842,65267,65416,72,61152
279,173,0,1839,65267,65415,68,61152
280,172,0,1838,65266,65414,69,61153
281,173,2,1840,65264,65414,74,61153
282,173,65535,1839,65267,65417,70,61155
283,172,0,1837,65266,65415,71,61153
284,173,0,1837,65265,65415,76,61155
285,171,65535,1838,65267,65416,74,61157
286,171,0,1840,65267,65412,72,61157
287,171,2,1839,65270,65415,70,61157
288,171,1,1839,65268,65416,71,61156
289,171,0,1839,65268,65418,75,61156
290,172,0,1839,65266,65415,72,61156
291,171,0,1840,65267,65411,69,61152
292,173,0,1838,65268,65416,73,61157
293,172,0,1836,65267,65417,70,61153
294,173,2,1838,65267,65418,72,61156
295,174,1,1841,65267,65416,75,61153
296,171,65535,1837,65267,65413,75,61158
297,172,1,1839,65270,65416,72,61156
298,172,3,1840,65267,65414,71,61156
299,171,0,1838,65267,65416,71,61157
300,172,0,1838,65265,65418,70,61157
301,173,2,1837,65267,65416,71,61159
302,172,0,1834,65269,65423,75,61157
303,173,1,1836,65267,65421,73,61156
304,174,0,1839,65265,65418,71,61157
305,172,1,1840,65266,65418,74,61158
306,171,2,1837,65264,65416,72,61157
307,172,0,1840,65263,65418,70,61157
308,172,65535,1840,65265,65413,71,61155
309,172,1,1840,65266,65415,71,61156
310,172,2,1841,65267,65420,70,61158
311,171,2,1841,65264,65417,70,61159
312,173,1,1841,65267,65413,72,61157
313,172,1,1839,65263,65416,74,61157
314,169,0,1838,65266,65414,72,61157
315,172,0,1838,65267,65413,73,61157
316,174,0,1838,65265,65415,73,61155
317,174,0,1838,65265,65416,73,61156
318,173,1,1838,65264,65416,74,61154
319,172,65535,1838,65262,65418,71,61153
320,173,1,1839,65263,65415,73,61154
321,174,1,1839,65264,65413,71,61153
322,170,1,1837,65266,65414,65,61155
323,170,1,1841,65264,65415,72,61155
324,171,0,1840,65267,65417,70,61157
325,172,0,1838,65268,65415,74,61156
326,172,0,1838,65267,65416,73,61156
327,172,2,1839,65265,65416,72,61158
328,170,0,1841,65266,65416,74,61158
329,171,1,1840,65267,65413,72,61156
330,169,2,1840,65268,65415,74,61155
331,170,0,1839,65268,65417,74,61157
332,171,0,1838,65267,65416,72,61153
333,173,0,1841,65266,65417,71,61155
334,173,1,1841,65266,65413,75,61157
335,173,0,1840,65267,65414,71,61155
336,173,0,1840,65267,65412,75,61154
337,175,65535,1842,65266,65419,78,61154
338,173,1,1837,65267,65416,74,61153
339,171,65535,1840,65260,65410,77,61153
340,172,1,1840,65266,65417,71,61155
341,171,65535,1840,65265,65414,68,61152
342,172,65535,1839,65265,65413,72,61154
343,173,1,1839,65266,65413,76,61156
344,171,1,1838,65268,65416,74,61156
345,172,0,1838,65266,65414,70,61157
346,172,0,1839,65265,65412,71,61155
347,172,0,1840,65266,65415,71,61157
348,171,0,1842,65267,65414,74,61154
349,171,1,1839,65269,65415,75,61155
350,173,1,1838,65268,65415,73,61157
351,173,1,1838,65264,65418,71,61156
352,175,65535,1838,65267,65417,69,61155
353,171,0,1840,65268,65416,72,61158
354,173,65535,1841,65270,65418,75,61157
355,171,65535,1840,65265,65414,74,61156
356,170,1,1839,65268,65418,72,61157
357,171,1,1839,65264,65417,71,61155
358,173,1,1841,65267,65418,70,61155
359,171,65535,1843,65268,65419,69,61154
360,172,65535,1841,65263,65418,78,61155
361,172,0,1838,65266,65415,80,61154
362,172,65535,1839,65267,65414,76,61153
363,173,0,1840,65269,65416,72,61156
364,170,1,1840,65267,65418,73,61155
365,170,0,1840,65271,65419,75,61154
366,172,0,1838,65266,65416,76,61156
367,171,65535,1838,65268,65422,77,61158
368,170,1,1838,65264,65417,70,61158
369,172,2,1839,65265,65415,72,61159
370,172,1,1841,65269,65417,72,61158
371,173,3,1844,65267,65418,72,61155
372,173,2,1841,65265,65417,73,61158
373,175,0,1837,65266,65413,67,61156
374,172,0,1838,65265,65413,74,61155
375,172,0,1839,65266,65418,74,61158
376,171,1,1838,65266,65416,74,61156
377,172,1,1839,65264,65417,72,61157
378,169,0,1841,65264,65419,70,61156
379,171,2,1839,65266,65420,74,61159
380,172,2,1841,65266,65417,72,61157
381,172,1,1840,65267,65416,70,61158
382,171,0,1842,65267,65412,70,61156
383,173,0,1841,65267,65418,71,61156
384,173,0,1838,65270,65418,72,61156
385,171,1,1841,65267,65414,75,61155
386,173,2,1840,65270,65414,73,61156
387,174,2,1839,65270,65417,72,61156
388,172,65535,1842,65267,65417,68,61155
389,171,65533,1840,65267,65417,69,61157
390,170,0,1838,65264,65417,69,61157
391,171,1,1836,65268,65418,73,61157
392,173,0,1838,65262,65410,75,61156
393,172,0,1840,65266,65415,72,61159
394,171,0,1838,65267,65418,76,61160
395,170,0,1838,65267,65415,72,61160
396,172,65535,1839,65267,65416,72,61158
397,171,65534,1840,65266,65417,75,61159
398,174,2,1839,65267,65411,71,61157
399,173,2,1838,65265,65413,68,61154
400,173,1,1841,65265,65415,70,61155
401,173,0,1837,65266,65414,72,61154
402,174,1,1840,65263,65415,71,61152
403,172,65533,1839,65273,65419,68,61156
404,172,1,1840,65265,65415,72,61155
405,173,0,1838,65268,65414,71,61157
406,172,0,1838,65267,65418,74,61160
407,171,1,1839,65266,65418,74,61158
408,171,1,1837,65265,65416,77,61158
409,171,1,1838,65267,65413,75,61160
410,171,1,1840,65262,65414,71,61156
411,172,0,1842,65265,65415,73,61156
412,172,1,1839,65267,65414,73,61159
413,171,1,1839,65270,65416,74,61155
414,173,0,1836,65267,65416,74,61153
415,171,0,1835,65266,65416,72,61154
416,170,0,1836,65268,65420,72,61156
417,173,65535,1836,65265,65418,73,61154
418,171,65535,1839,65268,65415,71,61157
419,171,0,1840,65265,65417,73,61157
420,172,1,1841,65270,65417,71,61157
421,171,3,1840,65268,65417,73,61155
422,171,1,1835,65268,65418,72,61156
423,172,0,1838,65267,65416,69,61160
424,172,1,1839,65266,65416,71,61160
425,169,2,1841,65269,65417,69,61158
426,170,1,1841,65264,65416,69,61159
427,171,1,1844,65265,65416,72,61160
428,171,65534,1839,65268,65415,69,61160
429,173,0,1841,65264,65417,73,61161
430,172,1,1840,65262,65418,70,61160
431,174,65535,1840,65267,65417,70,61158
432,175,1,1841,65266,65418,71,61159
433,173,2,1841,65265,65415,76,61159
434,173,1,1837,65265,65413,74,61160
435,172,65535,1840,65265,65417,72,61159
436,173,1,1840,65265,65414,72,61158
437,172,3,1841,65265,65416,73,61156
438,172,2,1840,65265,65414,72,61156
439,171,2,1841,65265,65417,71,61155
440,173,3,1839,65265,65414,71,61157
441,173,2,1839,65266,65413,75,61156
442,174,0,1839,65268,65414,71,61155
443,172,1,1838,65266,65415,70,61155
444,173,1,1840,65267,65413,71,61157
445,175,0,1841,65268,65417,71,61155
446,173,0,1841,65266,65417,71,61157
447,174,1,1839,65266,65419,70,61156
448,172,65535,1841,65268,65414,70,61157
449,172,2,1840,65268,65415,68,61156
450,170,0,1840,65269,65414,66,61159
451,171,0,1841,65267,65418,70,61157
452,169,0,1841,65267,65416,69,61155
453,172,0,1839,65266,65417,69,61153
454,172,0,1837,65267,65415,70,61156
455,172,1,1840,65267,65418,76,61156
456,171,1,1838,65271,65417,75,61153
457,170,1,1841,65266,65414,74,61151
458,173,1,1838,65267,65414,70,61153
459,173,0,1837,65266,65412,72,61158
460,171,0,1839,65264,65415,72,61158
461,173,2,1840,65264,65416,71,61157
462,173,0,1838,65267,65415,73,61156
463,172,2,1837,65263,65417,76,61156
464,171,0,1839,65267,65416,72,61158
465,173,0,1839,65266,65418,71,61156
466,170,2,1841,65266,65418,74,61156
467,173,0,1838,65265,65413,70,61155
468,171,0,1840,65267,65417,72,61158
469,173,1,1838,65267,65417,71,61156
470,173,65535,1840,65268,65414,70,61155
471,170,1,1838,65269,65412,72,61156
472,174,1,1840,65267,65414,69,61154
473,173,0,1839,65264,65418,73,61153
474,172,0,1839,65266,65415,72,61152
475,172,0,1839,65266,65417,69,61156
476,169,0,1839,65266,65418,70,61157
477,172,0,1840,65265,65418,70,61156
478,172,0,1839,65264,65419,66,61158
479,172,0,1840,65266,65415,71,61158
480,173,0,1840,65269,65413,73,61156
481,172,65535,1840,65269,65416,72,61157
482,173,0,1842,65267,65415,74,61157
483,174,1,1843,65266,65414,73,61155
484,171,65535,1839,65265,65415,73,61156
485,173,0,1839,65267,65415,77,61160
486,173,65535,1841,65267,65415,74,61158
487,174,65535,1842,65266,65416,74,61158
488,175,1,1841,65266,65414,73,61155
489,172,1,1840,65269,65416,71,61155
490,171,1,1839,65267,65414,70,61154
491,173,2,1839,65268,65416,73,61157
492,172,1,1839,65267,65417,72,61159
493,170,1,1840,65267,65416,70,61158
494,171,0,1839,65268,65416,71,61156
495,172,0,1840,65267,65418,74,61155
496,173,2,1839,65267,65414,73,61156
497,172,0,1840,65268,65416,75,61154
498,173,2,1836,65266,65413,72,61153
499,170,2,1838,65268,65415,70,61155
500,169,0,1841,65269,65412,71,61154
501,171,0,1839,65266,65409,71,61156
502,173,65535,1842,65265,65410,73,61154
503,171,0,1841,65265,65416,75,61153
504,173,1,1838,65264,65415,73,61153
505,171,0,1836,65267,65417,74,61155
506,173,65535,1838,65266,65415,75,61151
507,173,1,1840,65267,65418,75,61157
508,172,0,1840,65266,65419,71,61158
509,173,2,1841,65265,65417,72,61158
510,172,1,1841,65263,65415,69,61154
511,171,0,1840,65261,65416,69,61156
512,171,1,1839,65264,65415,73,61156
513,172,2,1841,65266,65418,75,61154
514,174,1,1838,65266,65418,75,61156
515,172,1,1839,65267,65416,76,61154
516,172,1,1841,65267,65415,69,61154
517,172,2,1842,65267,65416,71,61153
518,171,0,1841,65267,65416,71,61154
519,172,65535,1838,65266,65415,68,61153
520,171,1,1840,65264,65418,75,61152
521,172,1,1837,65264,65417,72,61155
522,171,1,1839,65264,65417,70,61155
523,172,1,1840,65264,65418,73,61154
524,172,0,1842,65266,65417,69,61154
525,171,3,1841,65264,65417,68,61152
526,172,0,1840,65267,65418,74,61150
527,173,0,1843,65268,65415,71,61152
528,171,65535,1840,65267,65414,70,61154
529,173,1,1840,65268,65415,74,61154
530,172,3,1841,65266,65416,71,61153
531,170,2,1840,65266,65416,77,61152
532,172,2,1838,65266,65413,76,61153
533,171,1,1840,65265,65417,73,61153
534,171,1,1840,65266,65416,70,61155
535,173,1,1838,65266,65413,70,61152
536,172,2,1838,65267,65416,72,61154
537,173,1,1840,65267,65415,73,61151
538,173,1,1838,65266,65416,72,61155
539,172,0,1838,65269,65415,74,61153
540,174,0,1840,65271,65418,73,61152
541,173,0,1838,65268,65414,69,61153
542,173,1,1837,65266,65417,73,61156
543,172,0,1838,65267,65416,73,61157
544,171,1,1840,65266,65415,74,61156
545,171,1,1839,65265,65417,75,61156
546,173,0,1839,65267,65411,73,61151
547,173,1,1839,65266,65412,73,61153
548,172,1,1838,65266,65414,70,61153
549,172,0,1838,65267,65414,71,61154
550,172,1,1840,65264,65415,72,61150
551,171,65535,1839,65263,65416,72,61151
552,173,0,1839,65264,65418,71,61149
553,172,1,1836,65263,65416,71,61150
554,171,0,1839,65263,65415,73,61152
555,171,1,1839,65267,65415,73,61153
556,174,1,1841,65267,65415,69,61155
557,174,2,1840,65266,65416,74,61150
558,172,1,1838,65265,65420,74,61150
559,172,2,1839,65267,65418,67,61151
560,171,3,1840,65266,65416,69,61149
561,171,0,1839,65268,65418,70,61151
562,171,0,1842,65268,65417,75,61149
563,171,65535,1838,65266,65414,73,61148
564,172,1,1839,65267,65417,70,61151
565,172,1,1841,65267,65415,69,61151
566,173,0,1841,65270,65413,68,61150
567,172,65535,1839,65267,65415,70,61149
568,172,0,1840,65268,65414,70,61154
569,174,1,1840,65269,65416,74,61153
570,173,1,1837,65266,65418,69,61152
571,172,1,1836,65264,65419,72,61151
572,172,2,1838,65265,65418,75,61152
573,172,0,1838,65266,65415,69,61150
574,173,0,1841,65269,65416,73,61149
575,172,1,1838,65267,65414,75,61152
576,175,3,1839,65269,65417,79,61151
577,171,1,1836,65263,65411,72,61150
578,172,65535,1841,65260,65410,75,61152
579,170,65534,1840,65270,65419,76,61156
580,170,1,1841,65266,65418,75,61152
581,172,65535,1841,65266,65417,71,61151
582,171,65535,1841,65264,65415,72,61153
583,171,0,1840,65269,65412,68,61152
584,171,0,1841,65266,65413,71,61153
585,171,65535,1838,65266,65416,71,61154
586,170,1,1838,65266,65416,72,61153
587,171,65535,1838,65265,65417,70,61151
588,172,65534,1838,65264,65417,74,61150
589,172,0,1837,65264,65416,73,61150
590,172,65535,1839,65267,65415,74,61147
591,172,0,1839,65268,65416,71,61150
592,172,1,1839,65269,65415,73,61148
593,172,0,1843,65265,65416,72,61149
594,171,1,1842,65266,65418,69,61148
595,172,2,1839,65267,65419,70,61150
596,172,65535,1839,65266,65414,73,61150
597,173,0,1840,65266,65415,73,61151
598,173,2,1838,65264,65416,67,61151
599,171,1,1843,65263,65417,71,61151
600,171,1,1841,65265,65417,74,61153
601,172,0,1841,65264,65413,72,61150
602,172,65535,1840,65265,65414,71,61151
603,171,65534,1838,65265,65418,70,61151
604,171,65534,1840,65268,65416,71,61150
605,173,0,1839,65269,65418,71,61150
606,172,1,1841,65266,65417,69,61152
607,171,0,1840,65266,65412,69,61153
608,173,1,1841,65267,65417,74,61152
609,172,1,1840,65269,65419,74,61153
610,173,1,1839,65270,65415,76,61155
611,173,1,1839,65266,65417,71,61156
612,171,2,1839,65266,65415,72,61150
613,171,3,1835,65267,65416,74,61151
614,173,1,1837,65268,65412,74,61149
615,172,2,1840,65268,65417,73,61149
616,171,65535,1839,65269,65414,72,61150
617,172,65535,1841,65269,65416,76,61148
618,174,0,1839,65267,65414,73,61148
619,172,0,1842,65264,65416,71,61149
620,172,2,1841,65265,65417,73,61149
621,171,1,1840,65263,65417,71,61154
622,170,0,1840,65264,65418,73,61151
623,171,65535,1839,65266,65416,72,61151
624,173,1,1840,65265,65419,71,61149
625,175,3,1840,65265,65419,71,61149
626,172,1,1837,65268,65418,71,61150
627,172,0,1836,65269,65419,77,61153
628,172,2,1838,65267,65418,72,61152
629,173,1,1842,65267,65417,74,61147
630,171,0,1839,65268,65416,76,61148
631,172,0,1839,65266,65420,75,61147
632,169,1,1840,65267,65416,74,61147
633,170,65533,1840,65267,65416,73,61147
634,171,0,1840,65267,65418,74,61149
635,171,65535,1840,65265,65414,73,61148
636,173,1,1843,65265,65417,73,61147
637,173,1,1841,65265,65416,69,61149
638,174,65535,1840,65266,65421,71,61152
639,171,65535,1840,65265,65418,73,61151
640,171,1,1839,65262,65419,72,61154
641,171,0,1839,65262,65414,72,61153
642,171,2,1839,65264,65410,70,61150
643,171,1,1839,65264,65412,72,61152
644,174,1,1839,65263,65411,69,61153
645,171,0,1838,65264,65414,71,61152
646,172,65535,1840,65269,65416,71,61151
647,173,0,1841,65266,65417,73,61150
648,172,0,1840,65266,65417,68,61154
649,172,0,1838,65266,65419,71,61150
650,172,2,1838,65266,65416,71,61153
651,172,1,1839,65267,65417,73,61153
652,172,1,1839,65268,65419,73,61151
653,172,2,1838,65266,65418,70,61148
654,170,1,1836,65267,65419,71,61150
655,171,1,1838,65266,65418,76,61150
656,172,1,1839,65266,65419,74,61151
657,172,1,1836,65266,65414,70,61148
658,171,0,1839,65265,65415,70,61148
659,173,0,1839,65265,65411,68,61148
660,173,1,1841,65268,65413,73,61151
661,171,2,1842,65266,65418,72,61151
662,172,2,1838,65267,65419,74,61152
663,173,0,1838,65266,65417,74,61149
664,171,65534,1838,65268,65416,72,61151
665,172,65535,1840,65266,65418,71,61149
666,172,1,1840,65266,65420,71,61149
667,173,65534,1838,65266,65419,73,61153
668,173,1,1838,65266,65415,70,61152
669,173,0,1838,65265,65414,70,61151
670,171,1,1842,65264,65418,67,61151
671,171,1,1841,65268,65417,69,61149
672,173,0,1839,65267,65415,73,61153
673,171,65535,1841,65267,65415,71,61156
674,171,0,1842,65266,65415,75,61154
675,172,1,1839,65266,65417,72,61152
676,173,2,1839,65266,65412,70,61155
677,172,0,1838,65264,65413,75,61153
678,172,0,1839,65263,65414,75,61156
679,172,0,1839,65264,65414,78,61157
680,171,0,1842,65264,65413,75,61156
681,174,0,1841,65266,65412,74,61155
682,172,0,1840,65266,65417,73,61154
683,173,65535,1839,65266,65415,68,61155
684,174,0,1842,65267,65408,72,61152
685,170,2,1842,65266,65413,72,61154
686,171,3,1839,65266,65410,72,61151
687,171,2,1835,65266,65407,73,61151
688,174,3,1844,65268,65410,71,61153
689,173,3,1843,65264,65413,75,61153
690,173,1,1839,65263,65413,75,61153
691,172,2,1840,65264,65413,73,61155
692,171,3,1838,65264,65412,76,61152
693,172,0,1839,65266,65414,75,61153
694,172,0,1837,65265,65415,69,61155
695,171,1,1839,65263,65413,70,61151
696,172,0,1838,65265,65416,74,61151
697,172,0,1839,65266,65417,73,61153
698,171,0,1839,65266,65419,76,61154
699,172,1,1842,65264,65419,70,61154
700,172,2,1841,65266,65416,76,61156
701,170,0,1839,65265,65416,74,61157
702,172,1,1838,65267,65419,74,61153
703,173,0,1837,65269,65418,72,61155
704,172,2,1839,65266,65421,69,61155
705,173,0,1840,65267,65417,66,61154
706,171,0,1841,65267,65417,69,61151
707,170,65535,1843,65267,65414,72,61152
708,172,65534,1839,65266,65415,69,61152
709,170,1,1839,65265,65420,76,61153
710,173,65535,1838,65269,65415,71,61152
711,172,1,1838,65268,65410,71,61153
712,172,1,1841,65265,65416,75,61155
713,172,1,1840,65264,65414,75,61154
714,171,0,1839,65266,65414,74,61151
715,171,1,1840,65266,65414,72,61154
716,172,1,1839,65266,65416,72,61153
717,171,1,1843,65267,65416,75,61154
718,172,1,1839,65268,65411,74,61153
719,174,2,1840,65267,65411,74,61153
720,171,1,1841,65264,65414,72,61151
721,171,2,1840,65264,65414,70,61152
722,171,1,1840,65263,65417,69,61151
723,172,0,1838,65267,65419,69,61152
724,172,1,1840,65270,65418,71,61153
725,172,2,1842,65266,65417,66,61155
726,171,2,1841,65264,65417,71,61156
727,172,65535,1843,65264,65414,76,61153
728,171,3,1842,65266,65416,71,61154
729,172,1,1839,65267,65414,71,61157
730,172,2,1841,65265,65414,72,61156
731,173,2,1842,65267,65415,72,61159
732,172,1,1843,65266,65414,68,61157
733,170,1,1838,65266,65414,70,61157
734,171,1,1839,65267,65418,71,61157
735,172,0,1838,65268,65415,66,61153
736,172,2,1840,65265,65420,67,61155
737,170,1,1840,65267,65420,69,61155
738,173,1,1840,65268,65417,71,61155
739,171,1,1839,65267,65415,72,61157
740,171,0,1838,65266,65417,69,61156
741,173,1,1840,65265,65417,72,61158
742,171,2,1839,65268,65423,74,61156
743,173,65535,1839,65265,65418,74,61155
744,173,65535,1840,65265,65415,75,61158
745,170,1,1841,65264,65417,73,61155
746,172,0,1842,65266,65415,70,61154
747,173,65535,1840,65267,65417,71,61153
748,173,0,1843,65268,65419,67,61156
749,172,65535,1839,65267,65417,72,61158
750,173,0,1840,65268,65416,72,61156
751,172,3,1839,65266,65414,70,61156
752,174,1,1839,65266,65416,70,61157
753,174,1,1839,65264,65418,73,61158
754,174,2,1839,65266,65417,72,61156
755,173,1,1840,65268,65413,71,61155
756,172,1,1839,65265,65415,70,61155
757,171,3,1841,65267,65413,72,61157
758,172,1,1840,65266,65418,71,61156
759,172,0,1843,65269,65419,72,61160
760,172,0,1841,65266,65413,74,61158
761,173,1,1840,65266,65415,75,61155
762,174,1,1840,65267,65419,72,61154
763,174,2,1839,65267,65419,71,61156
764,173,3,1839,65268,65416,70,61155
765,173,2,1839,65269,65418,69,61155
766,172,65535,1840,65265,65414,74,61158
767,173,1,1840,65264,65416,76,61156
768,174,0,1840,65266,65417,74,61154
769,174,0,1838,65267,65420,73,61154
770,174,1,1840,65267,65418,71,61156
771,172,0,1841,65266,65418,74,61154
772,172,65535,1841,65266,65419,74,61151
773,172,65534,1838,65264,65418,72,61155
774,172,0,1840,65263,65416,74,61154
775,172,2,1841,65266,65415,74,61154
776,174,0,1842,65266,65414,73,61152
777,174,65535,1841,65265,65413,74,61155
778,172,65535,1840,65264,65415,69,61155
779,172,65535,1841,65267,65414,75,61153
780,172,1,1839,65267,65415,75,61154
781,171,0,1841,65266,65413,73,61153
782,171,65534,1840,65268,65416,73,61153
783,172,0,1839,65264,65419,75,61153
784,171,0,1840,65265,65417,73,61154
785,172,65534,1838,65267,65414,75,61155
786,172,0,1842,65268,65413,74,61156
787,174,1,1840,65266,65416,71,61157
788,174,65535,1839,65265,65416,71,61158
789,174,0,1836,65267,65417,71,61160
790,173,1,1839,65264,65415,73,61159
791,173,1,1839,65265,65414,71,61160
792,173,0,1838,65265,65418,74,61158
793,172,65535,1840,65267,65419,71,61156
794,171,0,1839,65267,65421,74,61160
795,173,0,1841,65269,65416,70,61161
796,172,1,1841,65267,65420,73,61158
797,172,65535,1841,65267,65416,73,61159
798,171,1,1841,65265,65416,72,61158
799,173,1,1841,65265,65412,76,61159
800,174,0,1842,65268,65414,75,61158
801,173,1,1840,65268,65416,73,61157
802,172,1,1839,65267,65415,74,61158
803,173,65534,1837,65267,65414,74,61159
804,173,0,1840,65266,65415,68,61157
805,172,2,1840,65269,65414,69,61158
806,172,1,1840,65266,65416,68,61157
807,171,65535,1840,65265,65420,74,61156
808,173,65535,1839,65265,65419,76,61160
809,174,1,1839,65265,65417,73,61159
810,174,1,1839,65265,65418,71,61159
811,172,1,1841,65268,65416,75,61156
812,172,65535,1841,65269,65416,71,61155
813,173,0,1839,65266,65416,73,61159
814,173,0,1841,65267,65413,72,61160
815,173,0,1837,65267,65415,74,61158
816,174,0,1839,65268,65415,69,61161
817,170,2,1839,65267,65419,71,61159
818,172,2,1841,65268,65415,69,61160
819,172,2,1836,65271,65417,67,61161
820,172,0,1839,65269,65415,69,61159
821,173,65534,1839,65265,65414,71,61159
822,173,65534,1839,65263,65415,71,61155
823,170,65535,1841,65265,65415,73,61159
824,172,65535,1841,65265,65420,74,61159
825,174,65534,1840,65264,65418,71,61162
826,173,0,1838,65265,65416,73,61159
827,171,1,1836,65261,65415,74,61161
828,173,65535,1842,65261,65414,76,61158
829,171,1,1837,65268,65419,79,61158
830,172,65535,1842,65260,65412,75,61158
831,171,1,1840,65266,65411,74,61159
832,173,0,1840,65267,65410,73,61156
833,173,0,1840,65267,65413,72,61158
834,171,1,1842,65268,65416,70,61156
835,172,65535,1840,65264,65413,76,61158
836,171,1,1836,65268,65412,76,61158
837,172,2,1838,65268,65416,73,61160
838,173,2,1841,65272,65420,73,61159
839,171,0,1837,65267,65416,74,61156
840,172,1,1838,65263,65416,77,61157
841,172,1,1840,65267,65416,73,61155
842,170,2,1839,65264,65411,71,61157
843,170,65535,1839,65265,65412,71,61157
844,173,1,1839,65267,65414,71,61155
845,174,1,1837,65268,65417,74,61159
846,172,65535,1838,65268,65416,71,61159
847,172,0,1837,65268,65413,70,61158
848,172,1,1839,65264,65413,71,61155
849,171,2,1839,65266,65415,72,61156
850,172,0,1839,65265,65412,71,61156
851,173,65535,1840,65267,65414,68,61157
852,172,0,1838,65266,65412,70,61162
853,172,65535,1840,65264,65414,71,61160
854,172,65534,1838,65266,65419,70,61162
855,172,2,1840,65266,65421,68,61163
856,173,0,1841,65266,65416,73,61163
857,173,0,1840,65265,65418,74,61163
858,172,0,1836,65269,65416,70,61161
859,172,1,1840,65263,65416,75,61158
860,172,1,1842,65270,65418,73,61159
861,171,2,1839,65265,65418,75,61158
862,174,65535,1839,65266,65417,76,61163
863,171,65535,1839,65266,65415,69,61159
864,174,2,1843,65266,65414,70,61159
865,171,1,1841,65267,65414,73,61160
866,170,65535,1839,65268,65416,70,61161
867,170,2,1839,65268,65415,71,61163
868,171,2,1839,65267,65421,73,61161
869,171,0,1840,65264,65417,73,61161
870,175,2,1837,65269,65416,70,61158
871,173,1,1838,65267,65414,68,61160
872,172,3,1838,65266,65416,72,61161
873,172,1,1840,65267,65415,73,61162
874,173,65535,1839,65269,65414,72,61162
875,172,0,1839,65268,65413,75,61160
876,171,0,1839,65269,65419,74,61158
877,172,65535,1839,65272,65416,76,61157
878,172,1,1841,65262,65415,73,61158
879,171,2,1837,65268,65419,74,61162
880,172,0,1838,65266,65415,76,61164
881,173,0,1836,65267,65412,74,61161
882,172,1,1838,65269,65416,74,61162
883,173,1,1839,65264,65416,69,61164
884,174,2,1839,65265,65419,74,61165
885,175,0,1838,65267,65417,75,61164
886,171,65535,1841,65267,65417,74,61157
887,171,1,1842,65266,65414,67,61159
888,172,65535,1841,65265,65416,70,61158
889,171,0,1842,65266,65415,71,61163
890,172,65535,1841,65265,65416,73,61163
891,171,1,1840,65263,65414,71,61161
892,171,0,1841,65274,65423,71,61160
893,173,0,1836,65263,65416,72,61161
894,172,65534,1840,65264,65415,73,61162
895,172,65535,1839,65265,65413,74,61165
896,171,0,1841,65265,65414,72,61163
897,173,1,1840,65265,65418,75,61160
898,173,65535,1840,65265,65417,73,61159
899,174,2,1839,65267,65414,70,61160
900,171,1,1842,65267,65415,73,61159
901,171,2,1839,65265,65416,77,61162
902,174,1,1840,65267,65417,73,61162
903,173,2,1838,65265,65417,67,61163
904,172,1,1839,65265,65416,68,61163
905,172,65534,1840,65266,65418,72,61165
906,172,65535,1840,65270,65417,69,61164
907,171,1,1837,65266,65411,71,61164
908,174,1,1842,65261,65413,70,61161
909,173,1,1837,65269,65416,71,61161
910,172,3,1840,65267,65412,68,61161
911,171,65535,1839,65266,65415,69,61161
912,171,65535,1837,65266,65415,69,61160
913,173,1,1839,65268,65414,74,61160
914,172,0,1838,65267,65418,69,61163
915,173,0,1838,65267,65414,72,61163
916,174,3,1839,65265,65415,73,61165
917,173,0,1838,65264,65414,67,61164
918,173,1,1839,65265,65416,71,61163
919,170,1,1840,65266,65415,74,61161
920,170,1,1840,65268,65420,73,61163
921,172,65535,1838,65266,65417,74,61161
922,172,65535,1842,65266,65415,72,61159
923,171,0,1839,65266,65418,71,61160
924,171,0,1839,65268,65415,68,61161
925,170,0,1839,65265,65415,68,61165
926,171,1,1841,65268,65417,71,61162
927,171,1,1840,65267,65416,69,61163
928,173,0,1840,65270,65415,69,61163
929,172,1,1840,65266,65418,71,61165
930,171,2,1843,65265,65418,71,61164
931,172,0,1839,65267,65422,69,61164
932,173,2,1839,65264,65418,67,61163
933,172,0,1841,65266,65419,72,61164
934,172,65535,1840,65268,65419,74,61166
935,171,0,1837,65267,65417,74,61164
936,172,2,1839,65267,65415,72,61162
937,172,65535,1840,65267,65415,75,61161
938,172,65534,1838,65268,65413,69,61161
939,172,0,1841,65266,65414,72,61162
940,174,1,1836,65268,65414,72,61160
941,172,65534,1837,65267,65412,74,61162
942,172,65535,1836,65266,65414,72,61160
943,171,65535,1837,65268,65418,71,61161
944,174,65533,1837,65265,65412,75,61162
945,171,1,1836,65267,65414,74,61163
946,170,2,1840,65268,65416,75,61166
947,171,1,1837,65268,65417,69,61161
948,172,0,1842,65269,65417,68,61163
949,172,2,1841,65267,65415,73,61163
950,174,65535,1843,65266,65419,72,61161
951,172,1,1840,65270,65416,74,61161
952,170,2,1838,65268,65418,73,61162
953,172,1,1837,65268,65415,70,61160
954,171,1,1838,65268,65416,74,61164
955,171,1,1839,65268,65416,74,61162
956,172,1,1839,65267,65418,71,61164
957,170,1,1838,65267,65417,75,61164
958,171,2,1836,65268,65415,74,61164
959,173,1,1837,65268,65412,71,61165
960,173,2,1839,65265,65418,72,61164
961,171,3,1840,65266,65414,70,61164
962,172,2,1839,65265,65416,74,61165
963,172,2,1839,65266,65418,72,61166
964,171,1,1840,65265,65418,73,61164
965,172,1,1844,65266,65416,72,61163
966,171,1,1844,65266,65417,76,61164
967,172,0,1844,65264,65419,74,61162
968,172,0,1842,65267,65418,72,61165
969,171,0,1841,65266,65419,78,61167
970,172,0,1840,65267,65416,75,61166
971,172,0,1840,65267,65420,72,61165
972,173,0,1841,65268,65417,72,61165
973,173,65535,1842,65269,65412,69,61165
974,172,1,1838,65267,65413,71,61163
975,171,0,1840,65266,65413,71,61166
976,171,1,1841,65266,65417,75,61166
977,172,2,1839,65264,65416,72,61164
978,173,1,1838,65268,65417,71,61162
979,174,0,1837,65268,65414,74,61163
980,171,0,1840,65268,65416,72,61164
981,172,1,1838,65267,65411,73,61161
982,172,1,1836,65268,65418,76,61161
983,172,0,1839,65268,65418,72,61163
984,174,65534,1840,65268,65416,71,61162
985,172,2,1839,65267,65415,76,61162
986,172,0,1841,65267,65411,76,61163
987,171,0,1839,65266,65411,69,61161
988,171,65535,1840,65266,65415,72,61161
989,172,2,1839,65265,65416,69,61162
990,173,1,1842,65268,65415,69,61164
991,172,3,1842,65268,65413,72,61162
992,173,2,1844,65267,65412,71,61165
993,172,2,1841,65268,65414,76,61164
994,172,2,1841,65266,65414,70,61165
995,171,1,1839,65264,65413,74,61163
996,171,1,1840,65267,65415,70,61164
997,170,1,1842,65270,65416,70,61162
