,acc_X,acc_Y,acc_Z,temp,tempC,gyr_X,gyr_Y,gyr_Z
0,8704,-4,-972,-4364,24,-174,-77,69
1,8704,-2,-978,-4365,24,-174,-77,68
2,8702,1,-981,-4366,24,-174,-77,68
3,8703,-6,-982,-4365,24,-174,-76,68
4,8708,-1,-981,-4367,24,-175,-76,70
5,8702,-1,-976,-4366,24,-175,-77,69
6,8705,-6,-974,-4367,24,-173,-77,69
7,8703,-9,-982,-4367,24,-173,-78,70
8,8702,-7,-971,-4367,24,-173,-78,69
9,8704,-3,-971,-4367,24,-173,-78,69
10,8698,-1,-969,-4367,24,-174,-78,69
11,8697,3,-964,-4368,24,-174,-77,69
12,8697,1,-958,-4368,24,-174,-78,69
13,8694,-3,-965,-4369,24,-175,-78,69
14,8697,-4,-963,-4371,24,-175,-78,70
15,8698,-6,-965,-4370,24,-174,-77,69
16,8699,-6,-968,-4370,24,-175,-79,70
17,8698,-7,-974,-4369,24,-174,-79,70
18,8699,-1,-979,-4367,24,-174,-78,70
19,8700,-3,-982,-4366,24,-173,-78,70
20,8705,-4,-981,-4367,24,-173,-77,72
21,8710,-3,-985,-4367,24,-173,-78,70
22,8710,-5,-980,-4367,24,-173,-78,70
23,8712,-3,-973,-4366,24,-173,-78,70
24,8709,-6,-973,-4364,24,-173,-77,70
25,8716,-7,-970,-4365,24,-173,-76,70
26,8710,-3,-969,-4367,24,-173,-76,69
27,8709,-1,-972,-4369,24,-174,-77,70
28,8711,1,-966,-4367,24,-175,-77,70
29,8707,4,-970,-4368,24,-174,-77,69
30,8706,4,-968,-4369,24,-174,-76,69
31,8703,1,-965,-4370,24,-174,-76,70
32,8703,-2,-964,-4371,24,-174,-77,69
33,8700,-4,-959,-4372,24,-174,-79,70
34,8700,-3,-965,-4372,24,-172,-78,70
35,8699,-1,-967,-4372,24,-173,-78,71
36,8697,1,-963,-4372,24,-172,-77,70
37,8701,-4,-965,-4371,24,-172,-77,70
38,8700,-3,-965,-4369,24,-172,-78,70
39,8703,-6,-962,-4369,24,-173,-78,70
40,8702,-5,-953,-4370,24,-174,-80,71
41,8707,0,-961,-4370,24,-173,-80,70
42,8706,-6,-964,-4371,24,-174,-81,70
43,8704,-7,-971,-4372,24,-174,-80,70
44,8708,-6,-969,-4369,24,-174,-79,71
45,8707,-13,-967,-4370,24,-172,-80,71
46,8709,-9,-960,-4370,24,-172,-78,70
47,8708,-6,-962,-4372,24,-170,-79,70
48,8708,-2,-960,-4371,24,-171,-78,70
49,8705,-1,-965,-4371,24,-171,-78,71
50,8707,-5,-960,-4372,24,-173,-78,70
51,8710,-6,-963,-4372,24,-173,-78,69
52,8706,2,-964,-4371,24,-174,-78,70
53,8701,3,-970,-4371,24,-173,-78,70
54,8707,9,-977,-4372,24,-175,-77,71
55,8707,6,-964,-4372,24,-174,-78,70
56,8708,5,-969,-4373,24,-174,-79,70
57,8710,1,-973,-4373,24,-174,-78,70
58,8708,3,-972,-4373,24,-174,-77,70
59,8711,0,-971,-4371,24,-174,-76,69
60,8708,-2,-971,-4371,24,-174,-75,69
61,8707,1,-973,-4369,24,-172,-77,69
62,8706,3,-971,-4368,24,-173,-76,68
63,8706,3,-971,-4368,24,-172,-77,69
64,8708,-1,-968,-4368,24,-172,-77,69
65,8704,0,-976,-4367,24,-172,-77,68
66,8708,-2,-980,-4368,24,-172,-77,69
67,8707,-3,-976,-4367,24,-174,-78,70
68,8703,0,-977,-4365,24,-174,-77,71
69,8709,0,-970,-4367,24,-174,-77,71
70,8703,2,-972,-4366,24,-174,-78,72
71,8701,2,-973,-4368,24,-173,-76,72
72,8702,2,-970,-4369,24,-173,-77,71
73,8700,-6,-971,-4369,24,-173,-77,71
74,8699,-1,-971,-4369,24,-173,-77,71
75,8705,2,-970,-4368,24,-174,-77,72
76,8709,4,-972,-4368,24,-173,-77,71
77,8711,3,-972,-4367,24,-174,-78,72
78,8710,0,-980,-4367,24,-173,-78,70
79,8710,-4,-975,-4368,24,-173,-77,70
80,8708,-5,-974,-4367,24,-174,-77,70
81,8711,-6,-967,-4365,24,-173,-78,71
82,8709,-8,-966,-4366,24,-172,-78,71
83,8701,-9,-972,-4365,24,-172,-77,69
84,8703,-11,-977,-4367,24,-173,-77,69
85,8703,-12,-975,-4367,24,-174,-78,69
86,8699,-8,-983,-4367,24,-173,-79,70
87,8702,-9,-980,-4368,24,-173,-79,70
88,8702,-8,-985,-4368,24,-173,-79,70
89,8703,-10,-978,-4370,24,-173,-79,70
90,8703,-10,-972,-4371,24,-173,-80,69
91,8707,-5,-965,-4371,24,-174,-80,69
92,8708,-8,-971,-4370,24,-174,-79,70
93,8702,-6,-976,-4369,24,-174,-80,71
94,8700,-7,-978,-4368,24,-174,-80,70
95,8700,-10,-971,-4368,24,-174,-79,70
96,8698,-9,-967,-4368,24,-173,-79,70
97,8697,-8,-964,-4369,24,-173,-79,71
98,8700,-5,-964,-4370,24,-174,-78,70
99,8697,-4,-966,-4370,24,-173,-78,70
100,8702,-6,-975,-4369,24,-173,-78,69
101,8705,-4,-981,-4368,24,-172,-78,70
102,8708,-1,-974,-4368,24,-173,-77,70
103,8701,2,-967,-4368,24,-173,-78,69
104,8701,0,-977,-4369,24,-174,-78,70
105,8702,-2,-975,-4369,24,-174,-78,69
106,8705,-3,-970,-4367,24,-174,-77,71
107,8707,-5,-971,-4369,24,-174,-77,69
108,8710,-6,-978,-4369,24,-174,-76,69
109,8711,-9,-973,-4368,24,-174,-77,70
110,8708,-11,-981,-4369,24,-175,-77,70
111,8707,-12,-983,-4369,24,-174,-77,71
112,8708,-12,-974,-4368,24,-175,-78,70
113,8708,-9,-975,-4371,24,-173,-78,70
114,8710,-5,-981,-4370,24,-172,-77,70
115,8702,-5,-979,-4370,24,-172,-77,71
116,8703,-4,-982,-4371,24,-172,-77,70
117,8696,-7,-981,-4369,24,-172,-77,70
118,8697,-6,-970,-4370,24,-171,-77,70
119,8700,-6,-969,-4369,24,-172,-78,70
120,8700,-7,-972,-4369,24,-171,-78,70
121,8707,-6,-980,-4369,24,-171,-77,70
122,8705,-8,-978,-4368,24,-172,-77,71
123,8704,-5,-971,-4368,24,-171,-76,71
124,8704,-1,-974,-4366,24,-171,-75,70
125,8702,1,-974,-4367,24,-171,-76,70
126,8704,-4,-968,-4367,24,-172,-76,70
127,8704,-2,-967,-4370,24,-172,-76,71
128,8707,-7,-975,-4371,24,-172,-76,71
129,8707,-5,-979,-4369,24,-171,-74,70
130,8709,-7,-974,-4369,24,-172,-75,69
131,8704,-6,-975,-4369,24,-172,-76,68
132,8702,-6,-973,-4368,24,-172,-76,69
133,8704,-9,-976,-4368,24,-173,-77,69
134,8706,-7,-980,-4366,24,-173,-77,69
135,8706,-5,-979,-4367,24,-173,-77,69
136,8708,1,-987,-4368,24,-174,-77,70
137,8705,-6,-978,-4366,24,-173,-78,70
138,8710,-5,-978,-4367,24,-173,-77,71
139,8709,-9,-978,-4368,24,-174,-77,70
140,8707,-10,-973,-4366,24,-172,-76,70
141,8705,-12,-970,-4367,24,-172,-76,70
142,8706,-12,-978,-4367,24,-172,-76,71
143,8709,-14,-974,-4368,24,-173,-76,69
144,8714,-15,-977,-4370,24,-172,-76,69
145,8712,-12,-977,-4370,24,-172,-77,69
146,8713,-7,-981,-4372,24,-172,-76,69
147,8709,-7,-975,-4370,24,-173,-76,70
148,8707,-3,-973,-4370,24,-173,-77,69
149,8708,-3,-970,-4368,24,-173,-77,68
150,8706,-2,-961,-4368,24,-172,-78,69
151,8707,1,-959,-4368,24,-171,-78,69
152,8709,-4,-960,-4368,24,-172,-78,69
153,8710,-4,-967,-4370,24,-172,-78,70
154,8709,-6,-966,-4371,24,-173,-78,71
155,8706,-4,-968,-4371,24,-173,-78,70
156,8699,-10,-960,-4370,24,-172,-77,70
157,8700,-12,-957,-4368,24,-173,-77,69
158,8704,-7,-957,-4367,24,-172,-78,70
159,8702,-7,-958,-4368,24,-173,-78,70
160,8704,-7,-962,-4368,24,-173,-77,70
161,8703,-9,-968,-4368,24,-173,-76,69
162,8702,-8,-966,-4367,24,-173,-78,69
163,8704,-5,-969,-4367,24,-173,-78,68
164,8711,-4,-972,-4368,24,-173,-77,69
165,8708,-7,-970,-4368,24,-173,-78,68
166,8708,-6,-968,-4370,24,-173,-77,69
167,8710,-5,-965,-4371,24,-173,-78,70
168,8706,1,-968,-4369,24,-172,-78,69
169,8704,5,-966,-4370,24,-171,-78,69
170,8701,8,-965,-4369,24,-172,-78,67
171,8696,9,-970,-4369,24,-173,-78,69
172,8697,5,-973,-4369,24,-173,-78,70
173,8703,-1,-972,-4369,24,-174,-78,70
174,8698,-1,-970,-4369,24,-174,-78,70
175,8703,0,-971,-4369,24,-173,-78,70
176,8701,4,-967,-4369,24,-172,-79,70
177,8699,1,-965,-4369,24,-172,-78,70
178,8702,-1,-971,-4370,24,-173,-77,69
179,8708,-2,-976,-4369,24,-173,-78,69
180,8705,-1,-974,-4368,24,-172,-77,70
181,8705,-1,-981,-4371,24,-172,-76,70
182,8701,-5,-977,-4370,24,-172,-77,71
183,8702,-4,-978,-4370,24,-172,-75,71
184,8702,-2,-980,-4370,24,-173,-75,71
185,8706,-4,-973,-4371,24,-174,-76,71
186,8704,-2,-975,-4372,24,-175,-76,70
187,8700,-2,-978,-4372,24,-176,-76,71
188,8704,-5,-979,-4371,24,-175,-77,71
189,8703,-4,-984,-4370,24,-175,-78,71
190,8701,-3,-977,-4372,24,-175,-77,72
191,8700,-3,-979,-4373,24,-175,-78,72
192,8702,-3,-983,-4372,24,-175,-77,71
193,8700,-4,-975,-4371,24,-175,-76,70
194,8694,1,-971,-4371,24,-175,-77,71
195,8695,-3,-972,-4370,24,-175,-76,70
196,8700,-1,-965,-4370,24,-175,-77,70
197,8707,3,-970,-4369,24,-175,-77,71
198,8709,0,-967,-4368,24,-174,-76,69
199,8707,2,-971,-4368,24,-175,-76,69
200,8707,2,-971,-4367,24,-174,-77,68
201,8709,0,-971,-4366,24,-174,-76,69
202,8704,-3,-971,-4368,24,-174,-77,70
203,8709,-3,-972,-4368,24,-174,-78,69
204,8705,0,-973,-4368,24,-173,-78,70
205,8707,2,-979,-4369,24,-173,-78,70
206,8702,0,-980,-4369,24,-173,-79,69
207,8702,-3,-973,-4368,24,-174,-79,69
208,8703,-5,-974,-4370,24,-175,-79,69
209,8703,-9,-974,-4370,24,-173,-80,69
210,8704,-8,-972,-4368,24,-173,-79,69
211,8705,-5,-977,-4368,24,-173,-79,68
212,8706,-5,-977,-4369,24,-172,-78,70
213,8708,-5,-970,-4369,24,-172,-78,69
214,8706,-10,-980,-4368,24,-172,-78,70
215,8703,-3,-979,-4367,24,-174,-77,70
216,8703,3,-975,-4367,24,-173,-77,70
217,8701,3,-982,-4368,24,-173,-78,70
218,8703,1,-986,-4367,24,-174,-78,71
219,8700,-1,-990,-4366,24,-174,-78,71
220,8696,-1,-989,-4367,24,-173,-78,71
221,8697,-3,-989,-4368,24,-174,-77,70
222,8700,-5,-983,-4368,24,-175,-77,70
223,8701,-9,-982,-4367,24,-175,-76,70
224,8702,-6,-979,-4366,24,-176,-78,71
225,8700,-5,-980,-4368,24,-174,-78,69
226,8701,-4,-980,-4369,24,-173,-78,70
227,8703,-3,-980,-4370,24,-173,-77,70
228,8698,-3,-981,-4370,24,-175,-77,69
229,8697,-3,-983,-4370,24,-173,-78,70
230,8699,-6,-976,-4371,24,-174,-79,70
231,8696,-7,-972,-4370,24,-173,-79,71
232,8702,-3,-973,-4368,24,-172,-78,71
233,8701,-3,-974,-4368,24,-173,-78,71
234,8703,0,-980,-4368,24,-173,-77,71
235,8699,0,-980,-4370,24,-172,-77,71
236,8704,2,-974,-4368,24,-173,-77,70
237,8704,5,-971,-4369,24,-172,-78,70
238,8704,7,-970,-4369,24,-171,-79,70
239,8708,3,-964,-4368,24,-172,-79,70
240,8701,1,-963,-4368,24,-172,-78,70
241,8696,-2,-973,-4368,24,-172,-77,71
242,8698,-5,-977,-4369,24,-172,-77,70
243,8698,-4,-976,-4370,24,-173,-78,69
244,8702,1,-973,-4370,24,-172,-78,70
245,8702,-4,-972,-4370,24,-173,-77,70
246,8701,-6,-973,-4370,24,-174,-78,70
247,8703,-7,-969,-4368,24,-173,-78,70
248,8699,-2,-974,-4369,24,-174,-77,69
249,8705,-1,-967,-4369,24,-174,-77,69
250,8707,-1,-970,-4370,24,-173,-77,69
251,8705,-3,-971,-4368,24,-173,-77,70
252,8703,0,-971,-4366,24,-173,-78,70
253,8704,0,-967,-4366,24,-174,-79,69
254,8705,-5,-970,-4368,24,-173,-79,69
255,8710,-11,-967,-4366,24,-173,-78,69
256,8705,-14,-962,-4365,24,-173,-78,70
257,8707,-8,-962,-4366,24,-173,-78,70
258,8707,0,-961,-4366,24,-172,-78,69
259,8709,3,-963,-4366,24,-174,-77,70
260,8711,5,-970,-4366,24,-174,-78,71
261,8710,7,-964,-4366,24,-173,-79,71
262,8707,-2,-964,-4368,24,-173,-77,71
263,8703,2,-969,-4370,24,-173,-77,71
264,8700,1,-969,-4372,24,-173,-77,71
265,8702,4,-975,-4371,24,-173,-77,71
266,8705,1,-974,-4369,24,-174,-78,71
267,8704,-3,-965,-4369,24,-173,-77,71
268,8707,-3,-969,-4369,24,-172,-76,71
269,8707,-7,-964,-4369,24,-172,-77,71
270,8710,-1,-965,-4369,24,-173,-77,69
271,8712,-4,-957,-4370,24,-172,-78,69
272,8710,-3,-956,-4370,24,-173,-77,69
273,8709,-7,-961,-4370,24,-174,-77,70
274,8708,-4,-965,-4369,24,-173,-77,69
275,8709,-2,-965,-4368,24,-174,-77,69
276,8706,-2,-967,-4367,24,-173,-77,69
277,8710,-3,-971,-4368,24,-174,-76,70
278,8712,-5,-971,-4367,24,-174,-77,70
279,8709,-2,-976,-4369,24,-174,-77,70
280,8706,-7,-979,-4368,24,-174,-77,69
281,8703,-4,-980,-4367,24,-175,-78,69
282,8708,-3,-981,-4369,24,-176,-77,69
283,8710,-5,-984,-4368,24,-175,-78,69
284,8710,-3,-976,-4369,24,-175,-77,69
285,8707,-1,-974,-4369,24,-175,-77,69
286,8702,-5,-977,-4371,24,-174,-78,70
287,8704,-3,-971,-4372,24,-174,-79,70
288,8701,-9,-968,-4371,24,-174,-78,70
289,8703,-3,-967,-4372,24,-174,-78,71
290,8699,-4,-971,-4372,24,-174,-76,71
291,8698,-6,-969,-4371,24,-174,-77,71
292,8694,-5,-968,-4372,24,-174,-77,70
293,8691,-8,-965,-4372,24,-174,-78,71
294,8698,-5,-969,-4372,24,-173,-77,70
295,8706,-6,-970,-4372,24,-173,-76,69
296,8707,-7,-963,-4371,24,-174,-77,70
297,8703,-13,-960,-4372,24,-174,-78,71
298,8697,-4,-963,-4371,24,-173,-77,71
299,8697,-3,-962,-4370,24,-172,-78,69
300,8698,-1,-967,-4371,24,-171,-78,69
301,8699,1,-969,-4371,24,-172,-79,70
302,8699,1,-968,-4369,24,-173,-78,70
303,8699,-3,-965,-4370,24,-174,-78,70
304,8696,-1,-974,-4371,24,-175,-77,69
305,8694,-1,-976,-4371,24,-175,-79,70
306,8696,-5,-984,-4371,24,-174,-78,70
307,8699,-8,-982,-4372,24,-176,-78,71
308,8700,-5,-984,-4372,24,-175,-78,71
309,8702,-1,-985,-4370,24,-174,-77,71
310,8701,-3,-984,-4370,24,-174,-77,70
311,8702,-5,-986,-4370,24,-172,-78,71
312,8703,-1,-978,-4369,24,-172,-79,70
313,8709,-6,-981,-4370,24,-171,-78,71
314,8709,-7,-982,-4369,24,-171,-78,70
315,8706,-2,-975,-4369,24,-171,-77,71
316,8708,-4,-981,-4369,24,-171,-78,71
317,8707,2,-979,-4370,24,-172,-77,71
318,8706,-3,-981,-4370,24,-171,-78,70
319,8708,-5,-979,-4371,24,-172,-77,69
320,8709,-7,-980,-4371,24,-172,-77,69
321,8709,-7,-976,-4372,24,-172,-76,69
322,8712,-6,-972,-4371,24,-172,-76,69
323,8713,-6,-965,-4370,24,-172,-76,68
324,8713,-7,-970,-4369,24,-172,-76,69
325,8710,-7,-972,-4367,24,-172,-77,69
326,8706,-8,-968,-4368,24,-172,-77,68
327,8701,-5,-972,-4371,24,-172,-77,69
328,8707,-2,-968,-4370,24,-172,-77,70
329,8706,-4,-971,-4370,24,-172,-78,70
330,8710,-8,-974,-4370,24,-172,-78,70
331,8709,-9,-972,-4370,24,-172,-79,69
332,8704,-3,-965,-4369,24,-172,-79,69
333,8706,-2,-967,-4371,24,-172,-78,69
334,8709,-1,-972,-4372,24,-173,-77,69
335,8706,2,-979,-4372,24,-173,-76,69
336,8705,-1,-978,-4371,24,-173,-77,69
337,8708,-3,-979,-4372,24,-173,-78,69
338,8705,3,-973,-4372,24,-173,-77,69
339,8705,2,-975,-4372,24,-173,-77,71
340,8705,0,-973,-4372,24,-173,-76,70
341,8702,-1,-972,-4371,24,-173,-77,70
342,8703,0,-980,-4371,24,-173,-78,69
343,8707,-5,-977,-4369,24,-174,-77,69
344,8708,-4,-981,-4369,24,-174,-77,69
345,8708,-3,-982,-4367,24,-174,-79,69
346,8708,-7,-983,-4368,24,-173,-79,69
347,8713,-6,-975,-4369,24,-173,-79,71
348,8709,0,-974,-4368,24,-172,-78,71
349,8708,-4,-974,-4369,24,-172,-78,71
350,8707,0,-977,-4369,24,-171,-78,72
351,8705,0,-971,-4369,24,-172,-79,72
352,8705,-2,-971,-4371,24,-172,-78,71
353,8703,0,-972,-4372,24,-173,-79,70
354,8699,0,-969,-4371,24,-173,-78,70
355,8698,-2,-972,-4371,24,-173,-78,70
356,8696,-6,-973,-4372,24,-174,-78,70
357,8697,-11,-968,-4371,24,-174,-78,72
358,8700,-8,-965,-4371,24,-173,-77,71
359,8700,-6,-957,-4369,24,-173,-78,71
360,8702,-4,-960,-4367,24,-173,-77,71
361,8707,-3,-967,-4368,24,-175,-78,70
362,8711,0,-964,-4367,24,-174,-77,71
363,8709,0,-964,-4368,24,-173,-78,71
364,8711,-3,-968,-4368,24,-173,-77,70
365,8710,-3,-969,-4370,24,-173,-77,71
366,8707,-3,-970,-4370,24,-174,-77,71
367,8704,-4,-968,-4369,24,-174,-78,70
368,8703,-2,-967,-4370,24,-173,-77,70
369,8701,-1,-969,-4370,24,-173,-77,70
370,8698,0,-968,-4370,24,-173,-78,70
371,8702,1,-965,-4370,24,-172,-78,71
372,8698,-3,-969,-4370,24,-173,-76,71
373,8700,-1,-960,-4371,24,-173,-77,71
374,8699,2,-960,-4370,24,-173,-78,71
375,8701,1,-962,-4370,24,-172,-80,71
376,8700,1,-959,-4369,24,-172,-78,71
377,8701,3,-960,-4370,24,-173,-79,71
378,8702,1,-968,-4370,24,-173,-79,71
379,8702,0,-971,-4369,24,-174,-79,71
380,8700,-8,-975,-4371,24,-174,-78,71
381,8697,-12,-975,-4370,24,-174,-79,71
382,8699,-5,-977,-4371,24,-173,-78,70
383,8700,-5,-981,-4370,24,-173,-77,71
384,8700,0,-984,-4371,24,-173,-77,71
385,8700,2,-982,-4371,24,-173,-76,71
386,8701,-1,-980,-4372,24,-172,-77,70
387,8702,-2,-978,-4373,24,-173,-77,69
388,8699,-1,-975,-4372,24,-174,-77,69
389,8702,2,-973,-4372,24,-174,-77,70
390,8697,1,-970,-4371,24,-174,-77,70
391,8697,0,-975,-4370,24,-174,-78,70
392,8700,0,-975,-4370,24,-174,-78,70
393,8700,-3,-976,-4369,24,-175,-78,70
394,8700,-6,-982,-4370,24,-176,-78,69
395,8699,-5,-979,-4370,24,-175,-77,69
396,8694,-8,-973,-4370,24,-174,-78,69
397,8694,-6,-973,-4369,24,-173,-78,70
398,8698,-6,-974,-4370,24,-174,-78,70
399,8697,-7,-971,-4369,24,-175,-78,69
400,8699,-4,-972,-4371,24,-174,-77,69
401,8698,-3,-971,-4370,24,-173,-76,71
402,8701,-5,-975,-4371,24,-172,-77,71
403,8705,-3,-969,-4373,24,-172,-78,71
404,8705,0,-964,-4372,24,-173,-78,70
405,8702,2,-961,-4371,24,-173,-79,69
406,8705,2,-964,-4370,24,-172,-79,69
407,8705,0,-968,-4370,24,-172,-79,69
408,8701,0,-965,-4371,24,-172,-79,70
409,8701,-2,-963,-4371,24,-173,-79,70
410,8705,1,-962,-4371,24,-173,-79,69
411,8704,1,-953,-4370,24,-173,-79,70
412,8698,-2,-958,-4369,24,-172,-79,72
413,8697,-7,-962,-4370,24,-174,-79,71
414,8699,-11,-961,-4371,24,-174,-77,70
415,8701,-5,-964,-4370,24,-174,-77,68
416,8699,-2,-961,-4369,24,-174,-76,69
417,8702,-4,-967,-4368,24,-175,-77,68
418,8702,-5,-970,-4368,24,-175,-77,69
419,8701,-8,-969,-4369,24,-175,-77,69
420,8703,-2,-969,-4369,24,-175,-77,68
421,8702,-2,-968,-4368,24,-174,-77,69
422,8700,-1,-961,-4368,24,-173,-76,70
423,8702,-1,-962,-4370,24,-174,-77,70
424,8704,-5,-963,-4369,24,-175,-76,70
425,8704,-4,-966,-4369,24,-174,-77,70
426,8708,-1,-971,-4368,24,-174,-78,71
427,8706,-1,-969,-4368,24,-174,-77,70
428,8704,-1,-969,-4369,24,-176,-77,70
429,8704,-2,-966,-4368,24,-176,-79,70
430,8701,-4,-971,-4369,24,-175,-78,69
431,8706,-3,-973,-4370,24,-174,-78,70
432,8705,-5,-971,-4371,24,-174,-77,71
433,8706,1,-972,-4371,24,-174,-78,71
434,8705,1,-973,-4372,24,-173,-79,72
435,8702,1,-978,-4371,24,-174,-79,70
436,8702,1,-984,-4371,24,-174,-77,71
437,8702,0,-982,-4370,24,-174,-78,70
438,8700,2,-980,-4371,24,-173,-77,69
439,8704,1,-979,-4372,24,-173,-77,70
440,8702,-6,-972,-4370,24,-174,-77,70
441,8707,-6,-977,-4369,24,-174,-76,69
442,8704,-10,-978,-4368,24,-173,-75,69
443,8702,-9,-979,-4369,24,-172,-76,70
444,8699,-9,-972,-4368,24,-172,-78,70
445,8698,-12,-971,-4366,24,-173,-77,70
446,8697,-7,-969,-4366,24,-172,-77,70
447,8694,-5,-972,-4366,24,-173,-77,70
448,8695,-5,-976,-4366,24,-174,-77,70
449,8694,-2,-979,-4367,24,-174,-78,69
450,8696,-10,-979,-4367,24,-174,-79,69
451,8697,-10,-979,-4368,24,-174,-78,70
452,8700,-6,-979,-4368,24,-174,-78,70
453,8698,-7,-976,-4369,24,-173,-77,70
454,8698,-8,-976,-4369,24,-173,-78,71
455,8701,-2,-981,-4366,24,-174,-79,72
456,8704,-6,-983,-4367,24,-174,-78,71
457,8705,-10,-984,-4367,24,-174,-79,72
458,8705,-7,-976,-4367,24,-173,-78,72
459,8707,-12,-980,-4368,24,-173,-78,72
460,8704,-10,-978,-4366,24,-173,-78,72
461,8700,-13,-981,-4367,24,-173,-78,72
462,8701,-12,-981,-4368,24,-173,-77,71
463,8704,-8,-972,-4367,24,-172,-77,70
464,8701,-6,-977,-4368,24,-173,-77,70
465,8700,-6,-973,-4367,24,-173,-76,71
466,8706,-2,-975,-4368,24,-173,-76,71
467,8706,-1,-977,-4369,24,-173,-77,72
468,8708,0,-968,-4369,24,-173,-77,71
469,8706,6,-965,-4369,24,-172,-77,71
470,8703,6,-970,-4369,24,-172,-77,71
471,8702,2,-968,-4370,24,-172,-77,72
472,8699,5,-971,-4370,24,-173,-77,72
473,8702,4,-977,-4370,24,-174,-78,71
474,8700,1,-975,-4369,24,-175,-78,71
475,8699,-1,-973,-4367,24,-175,-79,70
476,8704,-3,-978,-4367,24,-174,-79,70
477,8705,3,-979,-4368,24,-175,-79,69
478,8704,0,-976,-4369,24,-175,-78,70
479,8702,-5,-979,-4367,24,-173,-79,70
480,8703,-4,-982,-4367,24,-173,-79,70
481,8698,-4,-975,-4368,24,-174,-77,70
482,8703,-3,-969,-4368,24,-173,-76,70
483,8706,1,-969,-4368,24,-172,-77,71
484,8704,3,-972,-4367,24,-172,-78,70
485,8704,-1,-968,-4367,24,-173,-77,70
486,8705,2,-967,-4367,24,-174,-77,71
487,8704,-3,-966,-4368,24,-174,-77,71
488,8706,-3,-970,-4367,24,-174,-77,72
489,8705,-3,-970,-4366,24,-174,-77,71
490,8711,-5,-975,-4367,24,-174,-76,71
491,8703,-1,-977,-4367,24,-174,-77,72
492,8702,1,-974,-4367,24,-175,-77,71
493,8703,3,-979,-4365,24,-175,-77,71
494,8706,2,-973,-4364,24,-174,-77,71
495,8708,2,-967,-4365,24,-175,-77,71
496,8708,3,-973,-4366,24,-175,-78,70
497,8707,1,-978,-4366,24,-175,-79,70
498,8701,6,-977,-4365,24,-175,-76,69
499,8701,7,-973,-4366,24,-174,-77,69
500,8701,3,-978,-4366,24,-174,-76,70
501,8703,-1,-977,-4367,24,-174,-78,70
502,8697,-4,-974,-4368,24,-174,-77,70
503,8700,-3,-965,-4366,24,-174,-76,69
504,8697,-5,-966,-4366,24,-173,-78,70
505,8701,-3,-965,-4368,24,-173,-77,70
506,8707,-5,-957,-4368,24,-174,-79,71
507,8703,1,-963,-4368,24,-174,-78,70
508,8702,-5,-967,-4368,24,-172,-78,70
509,8704,-3,-964,-4368,24,-173,-77,69
510,8704,-8,-970,-4368,24,-174,-78,69
511,8706,-8,-975,-4369,24,-173,-78,70
512,8704,-8,-965,-4367,24,-173,-78,69
513,8704,-7,-965,-4366,24,-173,-78,70
514,8705,-9,-970,-4366,24,-172,-78,70
515,8705,-10,-966,-4366,24,-173,-78,70
516,8703,-7,-973,-4367,24,-174,-77,71
517,8702,-7,-981,-4366,24,-173,-78,71
518,8699,-5,-977,-4366,24,-173,-77,70
519,8702,-4,-977,-4368,24,-173,-77,70
520,8705,-3,-973,-4368,24,-174,-78,69
521,8704,-2,-969,-4368,24,-174,-79,69
522,8703,-7,-968,-4369,24,-174,-79,69
523,8705,-5,-970,-4369,24,-173,-79,70
524,8707,-7,-967,-4369,24,-173,-78,71
525,8709,-9,-975,-4368,24,-173,-78,70
526,8708,-1,-976,-4368,24,-172,-78,70
527,8709,1,-977,-4369,24,-172,-79,71
528,8706,6,-971,-4370,24,-172,-78,70
529,8700,4,-969,-4371,24,-172,-78,70
530,8694,4,-967,-4371,24,-173,-78,70
531,8694,4,-967,-4371,24,-173,-79,71
532,8696,7,-968,-4370,24,-174,-77,71
533,8701,7,-963,-4367,24,-175,-77,71
534,8700,6,-960,-4367,24,-174,-77,71
535,8701,4,-957,-4367,24,-173,-77,72
536,8700,7,-962,-4369,24,-173,-77,72
537,8703,9,-961,-4370,24,-173,-77,71
538,8701,10,-962,-4370,24,-172,-76,71
539,8702,6,-971,-4368,24,-172,-76,70
540,8705,2,-971,-4367,24,-172,-76,71
541,8704,-1,-969,-4367,24,-173,-76,69
542,8703,-3,-967,-4368,24,-172,-77,69
543,8700,-4,-966,-4369,24,-172,-78,69
544,8699,-2,-966,-4368,24,-171,-78,70
545,8695,-1,-961,-4369,24,-171,-77,71
546,8696,-4,-965,-4369,24,-170,-77,70
547,8702,-2,-962,-4369,24,-170,-77,70
548,8700,-4,-957,-4368,24,-172,-77,71
549,8699,-5,-955,-4367,24,-171,-76,71
550,8701,-7,-963,-4368,24,-172,-77,71
551,8701,-2,-970,-4368,24,-172,-76,71
552,8703,-5,-969,-4369,24,-172,-76,70
553,8701,-6,-966,-4370,24,-173,-77,71
554,8700,-4,-974,-4368,24,-173,-78,70
555,8702,-6,-971,-4367,24,-173,-78,70
556,8701,-8,-977,-4366,24,-173,-79,70
557,8701,-8,-974,-4367,24,-174,-78,69
558,8701,-9,-975,-4369,24,-173,-78,68
559,8701,-8,-976,-4370,24,-174,-78,69
560,8700,-10,-970,-4368,24,-172,-77,69
561,8704,-6,-977,-4369,24,-170,-79,69
562,8700,-8,-977,-4368,24,-173,-78,69
563,8700,-7,-975,-4368,24,-173,-78,69
564,8702,-5,-976,-4369,24,-174,-78,70
565,8701,-5,-981,-4369,24,-174,-78,70
566,8698,-2,-976,-4368,24,-174,-78,71
567,8697,0,-976,-4370,24,-173,-78,71
568,8696,-1,-975,-4370,24,-173,-78,70
569,8704,1,-976,-4370,24,-175,-77,71
570,8704,1,-978,-4370,24,-175,-77,71
571,8703,-1,-981,-4371,24,-174,-77,71
572,8708,4,-980,-4371,24,-174,-77,70
573,8705,4,-977,-4370,24,-174,-77,70
574,8705,3,-976,-4370,24,-175,-77,70
575,8704,5,-973,-4369,24,-175,-78,71
576,8705,5,-973,-4370,24,-174,-78,71
577,8703,0,-974,-4370,24,-174,-78,71
578,8704,-6,-968,-4369,24,-175,-78,70
579,8705,-2,-968,-4371,24,-176,-79,70
580,8706,-7,-962,-4369,24,-175,-80,70
581,8708,-11,-959,-4368,24,-175,-78,70
582,8706,-7,-959,-4368,24,-175,-78,69
583,8705,-6,-963,-4370,24,-174,-78,69
584,8703,-5,-967,-4370,24,-175,-77,69
585,8701,-3,-972,-4373,24,-174,-78,69
586,8702,-2,-971,-4372,24,-175,-77,70
587,8701,0,-976,-4372,24,-173,-77,70
588,8702,1,-972,-4370,24,-174,-78,70
589,8698,0,-968,-4369,24,-174,-76,69
590,8701,0,-970,-4370,24,-173,-77,69
591,8703,-3,-977,-4370,24,-171,-77,69
592,8701,-1,-975,-4369,24,-172,-77,69
593,8701,-1,-975,-4369,24,-173,-77,69
594,8699,-6,-969,-4370,24,-172,-77,69
595,8697,-9,-970,-4371,24,-173,-76,69
596,8694,-6,-968,-4371,24,-173,-77,68
597,8699,-7,-973,-4370,24,-174,-77,69
598,8703,-6,-975,-4370,24,-174,-77,69
599,8702,-10,-976,-4369,24,-174,-76,69
600,8700,-7,-979,-4369,24,-172,-77,68
601,8701,-4,-981,-4368,24,-173,-77,69
602,8701,-5,-981,-4370,24,-173,-77,70
603,8703,1,-984,-4371,24,-173,-77,70
604,8703,0,-973,-4372,24,-172,-77,71
605,8706,-3,-969,-4373,24,-171,-77,70
606,8707,0,-968,-4371,24,-171,-78,70
607,8713,3,-962,-4370,24,-171,-77,70
608,8713,2,-965,-4369,24,-171,-78,70
609,8708,1,-970,-4368,24,-172,-77,70
610,8709,4,-970,-4368,24,-173,-76,69
611,8710,2,-968,-4368,24,-174,-76,68
612,8708,2,-968,-4369,24,-174,-75,69
613,8710,3,-958,-4369,24,-173,-75,69
614,8707,1,-957,-4370,24,-174,-74,69
615,8708,0,-964,-4372,24,-174,-74,69
616,8711,1,-966,-4373,24,-174,-74,69
617,8706,-5,-966,-4370,24,-174,-75,70
618,8708,-7,-963,-4370,24,-174,-77,71
619,8707,-9,-961,-4370,24,-173,-77,71
620,8706,-12,-963,-4371,24,-173,-77,72
621,8708,-10,-967,-4369,24,-173,-78,72
622,8707,-4,-961,-4368,24,-173,-77,71
623,8705,-3,-967,-4371,24,-174,-76,72
624,8706,5,-964,-4371,24,-174,-76,72
625,8706,-1,-964,-4371,24,-174,-76,72
626,8706,-4,-970,-4370,24,-174,-76,71
627,8707,-1,-967,-4369,24,-173,-76,72
628,8705,-2,-969,-4368,24,-174,-77,71
629,8700,-4,-968,-4368,24,-174,-77,72
630,8699,-5,-964,-4368,24,-174,-77,72
631,8698,-7,-967,-4368,24,-173,-77,72
632,8698,-11,-966,-4369,24,-173,-76,71
633,8699,-12,-963,-4369,24,-173,-75,71
634,8700,-10,-958,-4367,24,-174,-76,73
635,8703,-7,-963,-4368,24,-174,-77,73
636,8699,-2,-964,-4368,24,-175,-77,73
637,8704,-3,-967,-4369,24,-175,-77,72
638,8702,-5,-968,-4368,24,-174,-77,72
639,8701,-5,-967,-4367,24,-174,-76,72
640,8699,-3,-973,-4369,24,-173,-77,72
641,8702,-4,-973,-4368,24,-173,-77,71
642,8700,-8,-978,-4366,24,-173,-77,71
643,8695,-9,-974,-4366,24,-173,-78,72
644,8701,-5,-979,-4367,24,-173,-78,72
645,8701,-4,-974,-4366,24,-172,-79,72
646,8701,-4,-973,-4367,24,-172,-79,71
647,8703,-2,-969,-4367,24,-174,-78,72
648,8704,-2,-978,-4368,24,-174,-78,71
649,8707,-3,-975,-4369,24,-173,-77,72
650,8699,-4,-971,-4368,24,-173,-78,71
651,8695,-4,-976,-4368,24,-173,-78,71
652,8702,0,-975,-4367,24,-174,-77,72
653,8701,2,-970,-4369,24,-174,-78,72
654,8702,3,-973,-4367,24,-173,-78,71
655,8705,2,-973,-4367,24,-173,-77,71
656,8705,0,-970,-4368,24,-173,-77,71
657,8706,1,-974,-4369,24,-173,-78,69
658,8705,-4,-980,-4367,24,-173,-79,69
659,8705,0,-972,-4368,24,-173,-78,71
660,8708,3,-969,-4366,24,-174,-77,70
661,8703,2,-968,-4367,24,-174,-76,70
662,8699,4,-976,-4368,24,-174,-77,69
663,8697,2,-973,-4366,24,-174,-77,68
664,8697,5,-972,-4368,24,-173,-78,69
665,8692,8,-963,-4366,24,-172,-78,70
666,8693,4,-960,-4367,24,-172,-78,69
667,8696,4,-966,-4367,24,-173,-78,69
668,8697,3,-968,-4367,24,-172,-77,70
669,8699,2,-961,-4367,24,-172,-77,70
670,8700,-2,-968,-4367,24,-171,-76,71
671,8703,-3,-970,-4367,24,-172,-75,70
672,8700,2,-972,-4367,24,-172,-77,70
673,8700,4,-975,-4367,24,-173,-77,70
674,8702,3,-977,-4367,24,-172,-77,69
675,8705,0,-973,-4367,24,-172,-77,70
676,8707,-2,-971,-4366,24,-173,-77,70
677,8706,-2,-975,-4365,24,-173,-77,71
678,8708,-3,-969,-4366,24,-174,-78,71
679,8706,-5,-969,-4368,24,-173,-78,71
680,8704,-3,-975,-4367,24,-172,-78,71
681,8707,-4,-979,-4367,24,-172,-77,69
682,8702,-4,-980,-4367,24,-172,-76,70
683,8702,-5,-981,-4369,24,-171,-76,70
684,8701,-8,-971,-4370,24,-171,-77,69
685,8700,-6,-970,-4368,24,-172,-75,70
686,8696,-5,-970,-4369,24,-172,-76,70
687,8698,-5,-970,-4369,24,-172,-76,71
688,8703,-1,-979,-4367,24,-171,-77,70
689,8703,-3,-986,-4368,24,-173,-78,70
690,8702,0,-980,-4365,24,-173,-77,71
691,8700,-4,-975,-4367,24,-173,-77,71
692,8706,-10,-974,-4367,24,-174,-78,71
693,8704,-11,-972,-4368,24,-175,-78,71
694,8707,-4,-966,-4368,24,-174,-77,71
695,8704,-3,-965,-4368,24,-174,-77,71
696,8708,-3,-965,-4365,24,-173,-77,71
697,8711,-1,-958,-4368,24,-173,-78,72
698,8712,0,-961,-4369,24,-173,-79,72
699,8709,-2,-969,-4368,24,-172,-79,71
700,8706,-1,-969,-4368,24,-173,-79,72
701,8708,-1,-967,-4367,24,-174,-78,72
702,8707,-2,-967,-4366,24,-174,-77,71
703,8708,-4,-969,-4366,24,-173,-78,71
704,8711,-11,-974,-4365,24,-173,-79,70
705,8711,-9,-970,-4366,24,-173,-78,70
706,8711,-11,-971,-4367,24,-173,-78,70
707,8709,-12,-972,-4366,24,-173,-79,71
708,8703,-11,-972,-4366,24,-172,-78,70
709,8706,-12,-972,-4365,24,-173,-77,70
710,8704,-8,-970,-4366,24,-173,-76,70
711,8703,-4,-968,-4368,24,-174,-76,70
712,8705,-4,-971,-4368,24,-174,-76,70
713,8702,-4,-966,-4366,24,-175,-76,71
714,8699,0,-971,-4365,24,-174,-77,71
715,8703,-1,-971,-4366,24,-175,-77,71
716,8700,-6,-973,-4368,24,-175,-76,70
717,8696,-4,-966,-4367,24,-174,-77,70
718,8703,-3,-961,-4366,24,-174,-77,70
719,8702,-4,-963,-4367,24,-174,-77,71
720,8696,-3,-964,-4367,24,-172,-77,70
721,8701,-5,-962,-4367,24,-172,-76,70
722,8702,-6,-968,-4367,24,-173,-76,71
723,8698,-4,-965,-4368,24,-172,-77,71
724,8698,-4,-962,-4368,24,-172,-77,70
725,8703,-2,-966,-4368,24,-173,-77,71
726,8703,-4,-965,-4366,24,-173,-77,72
727,8704,-3,-966,-4367,24,-173,-77,71
728,8704,-6,-970,-4367,24,-173,-77,71
729,8705,-3,-967,-4367,24,-173,-78,71
730,8698,-3,-966,-4367,24,-173,-77,71
731,8699,-3,-970,-4366,24,-172,-77,70
732,8703,-4,-972,-4369,24,-171,-78,71
733,8703,-4,-972,-4367,24,-172,-77,71
734,8703,-2,-963,-4366,24,-173,-77,71
735,8706,1,-970,-4366,24,-172,-77,72
736,8705,-1,-977,-4367,24,-172,-76,71
737,8701,4,-978,-4367,24,-172,-76,71
738,8699,3,-972,-4367,24,-172,-77,72
739,8697,-4,-973,-4369,24,-174,-76,71
740,8698,-5,-970,-4368,24,-174,-76,72
741,8695,-6,-980,-4370,24,-174,-76,71
742,8699,-1,-977,-4370,24,-174,-75,71
743,8703,5,-977,-4369,24,-174,-76,72
744,8706,3,-974,-4368,24,-174,-75,71
745,8707,5,-971,-4366,24,-173,-78,71
746,8703,2,-971,-4366,24,-173,-77,71
747,8704,4,-972,-4364,24,-172,-77,70
748,8702,3,-967,-4365,24,-173,-76,70
749,8705,2,-970,-4365,24,-174,-77,68
750,8700,4,-974,-4366,24,-174,-76,68
751,8706,4,-967,-4368,24,-174,-76,69
752,8701,6,-966,-4365,24,-174,-76,70
753,8704,1,-963,-4363,24,-174,-78,70
754,8703,0,-963,-4363,24,-174,-77,70
755,8700,1,-955,-4364,24,-173,-77,71
756,8708,2,-962,-4364,24,-173,-77,70
757,8712,3,-971,-4363,24,-172,-77,69
758,8708,1,-976,-4363,24,-172,-78,69
759,8702,3,-969,-4364,24,-172,-77,69
760,8704,0,-978,-4364,24,-173,-78,69
761,8706,2,-974,-4364,24,-174,-79,70
762,8711,5,-975,-4365,24,-174,-77,70
763,8698,0,-970,-4365,24,-174,-76,70
764,8698,1,-975,-4366,24,-174,-77,70
765,8704,-6,-973,-4366,24,-174,-77,70
766,8706,-6,-967,-4367,24,-174,-78,70
767,8704,-6,-962,-4366,24,-173,-77,70
768,8700,0,-960,-4366,24,-172,-76,70
769,8701,3,-969,-4366,24,-172,-77,70
770,8702,2,-974,-4366,24,-171,-77,70
771,8704,3,-977,-4367,24,-172,-76,69
772,8705,3,-977,-4367,24,-173,-76,71
773,8704,1,-981,-4368,24,-172,-76,71
774,8704,1,-982,-4367,24,-173,-76,71
775,8707,0,-988,-4367,24,-173,-76,70
776,8705,2,-980,-4366,24,-173,-76,70
777,8704,-3,-978,-4364,24,-175,-77,71
778,8705,-3,-972,-4366,24,-175,-76,70
779,8704,0,-978,-4366,24,-175,-75,70
780,8700,-2,-977,-4369,24,-173,-75,70
781,8701,-6,-980,-4367,24,-173,-76,69
782,8701,-10,-980,-4367,24,-173,-76,69
783,8705,-10,-985,-4370,24,-173,-75,69
784,8704,-7,-982,-4370,24,-174,-75,70
785,8698,-9,-974,-4371,24,-174,-75,70
786,8704,-9,-971,-4370,24,-174,-75,70
787,8706,-8,-968,-4370,24,-173,-76,71
788,8705,-8,-969,-4369,24,-173,-77,71
789,8702,-8,-968,-4367,24,-173,-77,70
790,8696,-5,-973,-4366,24,-172,-78,69
791,8699,-5,-974,-4365,24,-172,-79,70
792,8698,-1,-977,-4364,24,-172,-77,69
793,8695,4,-970,-4366,24,-173,-77,70
794,8700,-3,-969,-4366,24,-172,-77,70
795,8703,1,-971,-4366,24,-173,-77,70
796,8702,-2,-968,-4366,24,-173,-78,70
797,8701,2,-969,-4367,24,-172,-76,71
798,8699,0,-972,-4367,24,-173,-76,71
799,8697,-6,-969,-4367,24,-173,-76,72
800,8703,-5,-973,-4367,24,-172,-76,71
801,8704,-5,-982,-4367,24,-172,-78,71
802,8707,-5,-979,-4369,24,-173,-79,70
803,8702,-4,-975,-4369,24,-172,-78,71
804,8703,-2,-968,-4368,24,-171,-78,70
805,8704,-2,-968,-4367,24,-172,-78,70
806,8700,2,-966,-4368,24,-171,-78,71
807,8700,4,-966,-4369,24,-172,-78,71
808,8701,5,-967,-4370,24,-172,-78,72
809,8703,3,-968,-4372,24,-172,-78,72
810,8701,2,-965,-4371,24,-172,-78,72
811,8698,-3,-963,-4372,24,-172,-79,73
812,8700,-6,-965,-4370,24,-172,-78,71
813,8697,-10,-970,-4369,24,-173,-77,72
814,8699,-6,-958,-4369,24,-173,-77,72
815,8699,-6,-961,-4370,24,-172,-77,71
816,8702,-7,-967,-4369,24,-173,-77,71
817,8698,-5,-964,-4369,24,-172,-77,72
818,8702,0,-963,-4370,24,-173,-77,72
819,8703,0,-962,-4371,24,-172,-76,72
820,8702,-2,-967,-4371,24,-172,-77,71
821,8699,-2,-968,-4371,24,-172,-76,71
822,8696,-1,-961,-4370,24,-172,-76,71
823,8695,0,-957,-4370,24,-173,-76,71
824,8696,2,-957,-4369,24,-174,-76,70
825,8692,3,-957,-4369,24,-173,-76,70
826,8697,-3,-965,-4367,24,-174,-77,70
827,8696,-5,-965,-4369,24,-174,-78,70
828,8696,-2,-967,-4368,24,-174,-78,70
829,8697,-9,-965,-4368,24,-175,-78,68
830,8698,-13,-964,-4368,24,-174,-77,69
831,8699,-12,-962,-4369,24,-175,-77,69
832,8696,-11,-964,-4369,24,-174,-76,69
833,8697,-11,-959,-4369,24,-174,-77,69
834,8696,-7,-962,-4368,24,-172,-78,70
835,8701,-12,-963,-4368,24,-172,-78,71
836,8706,-14,-961,-4368,24,-171,-79,71
837,8706,-14,-963,-4370,24,-171,-79,73
838,8702,-7,-959,-4370,24,-170,-78,72
839,8703,-4,-966,-4371,24,-171,-78,72
840,8704,0,-972,-4370,24,-171,-79,72
841,8701,2,-971,-4370,24,-171,-78,71
842,8701,4,-974,-4371,24,-172,-77,70
843,8701,0,-974,-4370,24,-172,-78,71
844,8700,-4,-975,-4368,24,-172,-78,71
845,8700,-5,-971,-4366,24,-173,-78,71
846,8701,-3,-973,-4368,24,-173,-79,72
847,8698,1,-969,-4368,24,-174,-78,71
848,8697,-4,-964,-4368,24,-174,-78,71
849,8697,-6,-962,-4370,24,-174,-78,71
850,8700,-6,-963,-4371,24,-174,-77,70
851,8695,-6,-960,-4371,24,-173,-77,71
852,8695,-6,-963,-4371,24,-173,-78,69
853,8695,-5,-964,-4371,24,-173,-76,70
854,8706,-2,-969,-4373,24,-173,-77,70
855,8704,0,-966,-4373,24,-173,-75,71
856,8701,-5,-974,-4373,24,-173,-77,70
857,8697,-7,-974,-4373,24,-173,-77,69
858,8699,-8,-972,-4372,24,-173,-78,70
859,8696,-4,-971,-4372,24,-173,-78,69
860,8699,-4,-970,-4369,24,-172,-78,69
861,8694,-5,-969,-4369,24,-173,-77,69
862,8697,-5,-968,-4368,24,-173,-78,69
863,8703,-5,-971,-4368,24,-171,-77,70
864,8704,-8,-975,-4371,24,-172,-77,70
865,8707,-9,-977,-4369,24,-173,-77,70
866,8709,-12,-979,-4370,24,-174,-77,69
867,8709,-10,-982,-4371,24,-173,-75,70
868,8711,-6,-975,-4371,24,-173,-75,69
869,8708,-6,-976,-4372,24,-174,-76,70
870,8702,-4,-975,-4372,24,-173,-76,70
871,8707,-6,-974,-4372,24,-173,-76,70
872,8712,-4,-978,-4372,24,-174,-77,70
873,8711,-5,-976,-4371,24,-173,-75,71
874,8709,-4,-968,-4369,24,-173,-76,71
875,8711,-8,-976,-4369,24,-172,-76,71
876,8708,-8,-977,-4369,24,-173,-77,72
877,8705,-8,-976,-4368,24,-173,-78,71
878,8697,-8,-982,-4369,24,-173,-78,70
879,8697,-8,-982,-4369,24,-172,-77,70
880,8706,-4,-980,-4368,24,-172,-77,72
881,8709,-3,-981,-4369,24,-172,-77,71
882,8707,0,-982,-4369,24,-172,-77,71
883,8705,3,-991,-4370,24,-172,-77,71
884,8701,2,-990,-4369,24,-173,-77,71
885,8700,-4,-988,-4372,24,-173,-78,70
886,8696,-2,-982,-4370,24,-172,-77,70
887,8695,-1,-977,-4369,24,-172,-78,69
888,8698,-5,-975,-4369,24,-173,-77,69
889,8700,-5,-972,-4369,24,-173,-78,70
890,8703,-4,-970,-4369,24,-174,-77,70
891,8706,-4,-965,-4371,24,-172,-78,69
892,8708,1,-970,-4371,24,-173,-77,70
893,8703,3,-975,-4371,24,-173,-77,69
894,8700,-2,-973,-4369,24,-173,-77,69
895,8702,-1,-968,-4371,24,-173,-76,69
896,8702,-2,-971,-4371,24,-174,-75,69
897,8701,-5,-974,-4372,24,-175,-75,70
898,8701,-8,-973,-4373,24,-175,-76,70
899,8700,-5,-970,-4371,24,-174,-75,70
900,8700,-2,-965,-4371,24,-173,-76,71
901,8698,-1,-967,-4371,24,-174,-76,72
902,8703,0,-961,-4370,24,-174,-75,70
903,8708,1,-967,-4370,24,-173,-75,70
904,8704,-5,-962,-4370,24,-173,-77,70
905,8707,-4,-964,-4368,24,-173,-78,70
906,8707,-2,-965,-4369,24,-173,-78,70
907,8709,2,-962,-4370,24,-172,-78,71
908,8707,1,-965,-4369,24,-172,-78,71
909,8705,0,-972,-4370,24,-171,-78,72
910,8708,1,-978,-4370,24,-171,-78,71
911,8705,-2,-978,-4373,24,-171,-77,71
912,8706,-3,-983,-4373,24,-171,-77,71
913,8703,-4,-977,-4372,24,-172,-77,71
914,8702,-5,-975,-4372,24,-172,-77,71
915,8702,-5,-976,-4370,24,-172,-77,70
916,8701,-7,-979,-4370,24,-173,-77,71
917,8701,-5,-984,-4368,24,-172,-76,70
918,8704,-4,-977,-4368,24,-173,-76,71
919,8707,1,-975,-4367,24,-173,-76,70
920,8708,-4,-968,-4369,24,-173,-77,71
921,8707,-4,-966,-4367,24,-173,-77,71
922,8704,-1,-965,-4367,24,-172,-78,71
923,8709,-4,-965,-4367,24,-172,-77,70
924,8710,-5,-963,-4367,24,-173,-76,71
925,8711,-4,-967,-4371,24,-174,-77,70
926,8706,2,-964,-4370,24,-174,-77,71
927,8705,3,-964,-4368,24,-174,-77,71
928,8700,1,-961,-4369,24,-174,-77,72
929,8700,4,-960,-4370,24,-175,-77,72
930,8699,4,-965,-4370,24,-175,-77,72
931,8699,3,-969,-4371,24,-176,-75,72
932,8702,1,-964,-4371,24,-174,-75,72
933,8706,1,-966,-4372,24,-175,-76,72
934,8702,-3,-964,-4370,24,-174,-76,72
935,8699,-3,-973,-4371,24,-173,-76,72
936,8700,3,-973,-4369,24,-173,-75,71
937,8703,1,-969,-4371,24,-173,-77,71
938,8703,2,-971,-4371,24,-173,-77,71
939,8699,4,-970,-4371,24,-172,-78,72
940,8696,4,-973,-4370,24,-171,-78,71
941,8702,4,-972,-4370,24,-171,-79,72
942,8702,3,-977,-4369,24,-171,-80,72
943,8701,9,-971,-4369,24,-171,-79,72
944,8703,5,-971,-4370,24,-172,-78,71
945,8705,2,-965,-4371,24,-171,-77,70
946,8705,-2,-975,-4373,24,-172,-77,70
947,8706,-9,-979,-4370,24,-172,-77,70
948,8701,-11,-982,-4369,24,-171,-77,70
949,8702,-5,-978,-4367,24,-172,-78,71
950,8701,-5,-976,-4370,24,-173,-78,71
951,8703,-4,-974,-4367,24,-174,-78,71
952,8702,-8,-972,-4367,24,-173,-77,71
953,8701,-2,-963,-4368,24,-172,-77,71
954,8699,-4,-960,-4369,24,-172,-78,71
955,8699,0,-960,-4368,24,-171,-78,70
956,8698,1,-966,-4369,24,-172,-77,70
957,8696,3,-967,-4369,24,-170,-77,70
958,8698,4,-963,-4369,24,-172,-77,71
959,8696,1,-961,-4369,24,-173,-77,71
960,8700,-3,-958,-4369,24,-172,-78,72
961,8696,-3,-955,-4368,24,-173,-78,72
962,8698,-2,-964,-4367,24,-173,-79,70
963,8700,3,-967,-4367,24,-172,-79,71
964,8700,3,-965,-4367,24,-174,-78,72
965,8704,5,-970,-4368,24,-173,-79,72
966,8701,5,-979,-4369,24,-174,-79,71
967,8701,3,-980,-4368,24,-174,-78,71
968,8702,1,-976,-4369,24,-174,-76,72
969,8701,0,-984,-4369,24,-174,-77,71
970,8695,-2,-985,-4368,24,-173,-76,71
971,8690,-6,-981,-4370,24,-172,-76,71
972,8698,-4,-982,-4368,24,-172,-76,71
973,8703,2,-980,-4369,24,-171,-76,71
974,8702,0,-977,-4368,24,-171,-75,71
975,8697,-1,-976,-4368,24,-171,-76,71
976,8698,-1,-966,-4367,24,-170,-76,71
977,8696,2,-965,-4370,24,-170,-77,71
978,8696,2,-974,-4370,24,-172,-77,70
979,8697,-1,-976,-4369,24,-171,-77,71
980,8700,4,-982,-4369,24,-172,-78,72
981,8703,2,-971,-4369,24,-173,-77,73
982,8707,2,-975,-4369,24,-173,-77,73
983,8705,3,-979,-4369,24,-173,-77,72
984,8707,5,-968,-4371,24,-172,-78,72
985,8705,6,-962,-4370,24,-173,-77,72
986,8704,6,-967,-4369,24,-173,-78,71
987,8708,5,-959,-4369,24,-172,-78,71
988,8707,4,-951,-4367,24,-174,-77,70
989,8707,-1,-956,-4369,24,-173,-77,70
990,8705,-3,-961,-4368,24,-174,-77,70
991,8704,1,-968,-4368,24,-174,-77,70
992,8699,-1,-967,-4369,24,-173,-77,71
993,8705,-3,-969,-4370,24,-174,-77,72
994,8702,-4,-981,-4370,24,-175,-76,72
995,8704,-2,-977,-4371,24,-176,-77,72
996,8705,0,-973,-4372,24,-175,-76,72
997,8708,-2,-971,-4372,24,-175,-77,71
998,8706,-5,-970,-4371,24,-174,-77,71
