,acc_X,acc_Y,acc_Z,temp,tempC,gyr_X,gyr_Y,gyr_Z
0,8712,-9,-985,-4378,24,-175,-76,72
1,8705,-7,-992,-4384,24,-175,-77,71
2,8698,2,-975,-4381,24,-176,-76,73
3,8714,-4,-973,-4382,24,-178,-75,75
4,8713,10,-973,-4385,24,-175,-75,74
5,8700,14,-966,-4385,24,-174,-76,72
6,8700,11,-973,-4388,24,-176,-78,74
7,8690,-3,-978,-4385,24,-173,-78,73
8,8684,-5,-969,-4381,24,-172,-77,70
9,8703,-6,-980,-4383,24,-174,-71,70
10,8687,-12,-962,-4383,24,-175,-74,72
11,8686,0,-949,-4380,24,-175,-78,70
12,8692,-8,-965,-4384,24,-176,-76,71
13,8698,5,-969,-4378,24,-174,-77,73
14,8694,-1,-976,-4376,24,-176,-78,74
15,8699,7,-984,-4376,24,-175,-75,70
16,8703,3,-980,-4379,24,-175,-77,71
17,8712,4,-975,-4376,24,-175,-79,71
18,8721,4,-989,-4378,24,-175,-79,73
19,8703,-14,-965,-4378,24,-173,-80,73
20,8686,-2,-985,-4381,24,-172,-74,73
21,8689,-4,-981,-4382,24,-173,-75,71
22,8705,-9,-966,-4386,24,-175,-75,72
23,8706,0,-942,-4383,24,-176,-74,72
24,8689,-17,-974,-4382,24,-176,-74,70
25,8706,-7,-978,-4386,24,-176,-75,73
26,8689,-17,-973,-4382,24,-174,-74,73
27,8680,-10,-968,-4379,24,-175,-75,71
28,8693,-2,-948,-4378,24,-175,-76,73
29,8707,1,-950,-4384,24,-175,-75,71
30,8702,-18,-973,-4385,24,-173,-76,72
31,8696,-2,-962,-4385,24,-174,-77,71
32,8707,9,-980,-4378,24,-175,-79,69
33,8691,1,-980,-4386,24,-174,-75,72
34,8698,4,-955,-4385,24,-176,-77,72
35,8691,-7,-953,-4389,24,-174,-76,71
36,8693,11,-951,-4382,24,-173,-79,69
37,8699,5,-978,-4383,24,-174,-79,70
38,8686,7,-968,-4389,24,-175,-74,70
39,8684,11,-969,-4384,24,-173,-78,70
40,8694,-6,-985,-4380,24,-174,-78,72
41,8701,-3,-977,-4385,24,-171,-76,70
42,8706,1,-964,-4387,24,-173,-75,70
43,8693,-6,-959,-4383,24,-174,-75,71
44,8699,-9,-970,-4380,24,-173,-76,73
45,8681,9,-980,-4384,24,-175,-76,72
46,8685,-1,-984,-4384,24,-174,-74,71
47,8697,9,-974,-4382,24,-174,-77,70
48,8691,1,-955,-4386,24,-177,-79,71
49,8693,-14,-964,-4382,24,-177,-77,70
50,8706,6,-968,-4378,24,-176,-75,74
51,8707,7,-971,-4376,24,-173,-77,72
52,8704,-11,-974,-4372,24,-172,-78,73
53,8701,11,-969,-4378,24,-175,-76,72
54,8713,4,-969,-4381,24,-174,-78,69
55,8696,0,-958,-4384,24,-173,-74,72
56,8698,0,-969,-4386,24,-172,-75,72
57,8689,-5,-955,-4378,24,-175,-78,73
58,8703,8,-971,-4379,24,-173,-78,71
59,8711,1,-965,-4380,24,-173,-78,70
60,8703,14,-959,-4384,24,-173,-79,72
61,8699,16,-971,-4382,24,-176,-77,73
62,8711,-1,-983,-4376,24,-175,-78,72
63,8700,13,-972,-4375,24,-175,-77,73
64,8704,27,-967,-4379,24,-174,-78,73
65,8700,13,-967,-4382,24,-175,-77,71
66,8692,7,-965,-4386,24,-175,-77,69
67,8693,15,-970,-4384,24,-175,-76,70
68,8702,3,-952,-4381,24,-172,-77,70
69,8697,8,-951,-4382,24,-174,-75,69
70,8707,-3,-989,-4379,24,-175,-78,71
71,8690,-12,-961,-4380,24,-178,-77,72
72,8701,-14,-979,-4380,24,-176,-76,72
73,8707,-12,-975,-4383,24,-174,-74,71
74,8704,-9,-974,-4381,24,-174,-76,71
75,8698,4,-957,-4377,24,-174,-77,71
76,8714,-5,-952,-4380,24,-176,-78,72
77,8714,-6,-962,-4383,24,-174,-77,72
78,8697,-13,-959,-4383,24,-174,-76,71
79,8693,2,-966,-4381,24,-173,-79,71
80,8694,-9,-958,-4380,24,-174,-77,72
81,8703,-20,-974,-4378,24,-172,-77,71
82,8704,-13,-945,-4381,24,-176,-76,72
83,8696,-15,-953,-4385,24,-181,-76,71
84,8699,-16,-978,-4378,24,-175,-77,70
85,8699,-5,-976,-4378,24,-172,-80,72
86,8709,-11,-969,-4375,24,-175,-78,74
87,8691,-9,-984,-4380,24,-174,-77,73
88,8717,-4,-969,-4384,24,-174,-79,71
89,8699,-3,-945,-4382,24,-175,-78,69
90,8689,-6,-957,-4379,24,-178,-74,70
91,8696,3,-963,-4380,24,-180,-75,70
92,8707,5,-947,-4378,24,-176,-76,69
93,8714,7,-936,-4377,24,-174,-78,72
94,8699,6,-949,-4381,24,-172,-76,71
95,8702,5,-962,-4377,24,-173,-73,70
96,8709,0,-967,-4380,24,-176,-75,74
97,8712,5,-985,-4380,24,-175,-75,69
98,8707,-6,-973,-4378,24,-175,-78,69
99,8693,0,-961,-4381,24,-175,-79,69
100,8689,-11,-958,-4381,24,-174,-77,72
101,8695,-10,-957,-4383,24,-174,-77,71
102,8684,-4,-920,-4380,24,-173,-78,71
103,8697,-1,-940,-4378,24,-176,-78,74
104,8713,-5,-969,-4378,24,-174,-76,72
105,8713,-8,-994,-4375,24,-174,-72,73
106,8714,-8,-976,-4376,24,-176,-73,74
107,8708,-8,-971,-4376,24,-175,-75,73
108,8704,-3,-979,-4377,24,-177,-77,71
109,8714,1,-976,-4382,24,-176,-76,70
110,8707,3,-964,-4380,24,-175,-76,71
111,8710,8,-956,-4380,24,-176,-73,69
112,8708,0,-961,-4381,24,-174,-75,70
113,8705,4,-947,-4377,24,-175,-75,72
114,8715,5,-957,-4383,24,-177,-77,70
115,8714,3,-962,-4379,24,-174,-79,71
116,8718,-12,-963,-4377,24,-175,-80,71
117,8704,-12,-963,-4379,24,-174,-80,70
118,8699,-2,-964,-4378,24,-174,-76,67
119,8690,12,-962,-4381,24,-173,-78,70
120,8701,14,-959,-4381,24,-173,-73,72
121,8702,12,-976,-4377,24,-173,-75,71
122,8699,11,-971,-4378,24,-175,-73,69
123,8694,-3,-972,-4382,24,-174,-74,72
124,8699,-9,-983,-4381,24,-175,-75,69
125,8699,2,-987,-4380,24,-174,-76,69
126,8700,2,-976,-4383,24,-175,-77,69
127,8697,10,-976,-4382,24,-175,-75,72
128,8694,13,-975,-4380,24,-174,-74,72
129,8709,8,-963,-4375,24,-173,-74,71
130,8703,10,-976,-4379,24,-174,-75,67
131,8709,-12,-963,-4377,24,-172,-74,69
132,8707,-10,-983,-4379,24,-174,-75,70
133,8709,-8,-975,-4380,24,-174,-76,70
134,8695,0,-974,-4381,24,-174,-76,67
135,8704,11,-968,-4379,24,-173,-74,73
136,8697,9,-967,-4380,24,-173,-76,74
137,8705,-6,-951,-4380,24,-173,-78,73
138,8705,-4,-972,-4380,24,-172,-78,72
139,8691,6,-983,-4383,24,-173,-76,69
140,8707,-12,-970,-4373,24,-174,-79,71
141,8696,-8,-978,-4380,24,-174,-76,71
142,8703,-17,-973,-4381,24,-173,-76,76
143,8688,-13,-964,-4382,24,-174,-76,71
144,8695,-13,-961,-4380,24,-173,-76,72
145,8694,-3,-967,-4383,24,-175,-78,71
146,8696,1,-955,-4378,24,-176,-75,74
147,8707,8,-977,-4386,24,-177,-73,72
148,8709,-9,-984,-4383,24,-175,-72,71
149,8709,-15,-952,-4383,24,-175,-75,71
150,8691,-2,-959,-4382,24,-175,-74,73
151,8715,9,-979,-4379,24,-174,-71,73
152,8720,0,-970,-4379,24,-174,-75,72
153,8714,0,-958,-4384,24,-174,-80,71
154,8700,-6,-962,-4379,24,-176,-78,72
155,8725,-14,-962,-4384,24,-173,-74,73
156,8705,0,-970,-4385,24,-173,-73,71
157,8704,-4,-977,-4381,24,-177,-71,71
158,8693,9,-1013,-4380,24,-178,-76,70
159,8692,2,-976,-4380,24,-177,-80,72
160,8689,-4,-978,-4379,24,-175,-78,71
161,8704,-17,-974,-4383,24,-178,-77,72
162,8708,-19,-988,-4381,24,-173,-78,73
163,8711,1,-961,-4377,24,-175,-79,71
164,8713,-3,-978,-4380,24,-174,-75,73
165,8702,-7,-971,-4381,24,-176,-76,76
166,8689,-1,-968,-4382,24,-179,-75,72
167,8693,0,-973,-4382,24,-177,-72,72
168,8709,3,-1002,-4382,24,-176,-75,68
169,8707,8,-973,-4377,24,-175,-78,71
170,8685,9,-963,-4376,24,-177,-76,73
171,8699,2,-964,-4378,24,-176,-75,73
172,8700,-9,-965,-4376,24,-177,-74,71
173,8696,-22,-982,-4378,24,-175,-76,70
174,8700,5,-949,-4377,24,-173,-76,72
175,8693,-7,-961,-4376,24,-176,-75,73
176,8687,2,-991,-4384,24,-176,-77,72
177,8683,-8,-986,-4377,24,-176,-76,70
178,8704,3,-948,-4377,24,-178,-77,69
179,8712,7,-937,-4380,24,-177,-77,70
180,8694,13,-958,-4378,24,-174,-78,74
181,8701,3,-961,-4378,24,-174,-78,74
182,8706,5,-948,-4372,24,-175,-77,70
183,8705,-5,-953,-4382,24,-176,-77,69
184,8709,0,-963,-4378,24,-176,-71,69
185,8700,7,-956,-4377,24,-175,-74,71
186,8704,1,-977,-4372,24,-173,-78,73
187,8715,9,-958,-4375,24,-176,-76,71
188,8704,9,-979,-4374,24,-174,-74,71
189,8705,-3,-980,-4375,24,-174,-76,70
190,8700,-10,-975,-4375,24,-176,-74,73
191,8717,0,-983,-4380,24,-173,-77,73
192,8709,-10,-998,-4382,24,-173,-79,70
193,8716,-3,-980,-4379,24,-174,-78,68
194,8708,-9,-966,-4378,24,-174,-75,69
195,8694,1,-972,-4369,24,-171,-76,70
196,8718,-6,-967,-4379,24,-172,-75,69
197,8710,-11,-972,-4378,24,-174,-74,69
198,8693,-5,-972,-4375,24,-175,-79,70
199,8695,-1,-984,-4373,24,-173,-82,72
200,8698,4,-974,-4376,24,-172,-77,72
201,8707,-7,-964,-4377,24,-176,-73,71
202,8703,-1,-953,-4376,24,-175,-75,72
203,8699,-7,-981,-4377,24,-174,-76,71
204,8691,-16,-987,-4375,24,-176,-77,70
205,8697,-12,-988,-4378,24,-177,-77,70
206,8696,-11,-991,-4375,24,-177,-76,71
207,8701,-17,-985,-4378,24,-176,-77,71
208,8690,-5,-979,-4375,24,-174,-77,71
209,8695,3,-958,-4376,24,-174,-76,70
210,8703,2,-983,-4376,24,-174,-78,71
211,8707,7,-978,-4379,24,-174,-75,71
212,8711,2,-995,-4373,24,-173,-75,72
213,8690,-7,-982,-4377,24,-173,-76,72
214,8700,-12,-962,-4379,24,-175,-80,71
215,8711,-20,-949,-4380,24,-174,-75,73
216,8714,-13,-960,-4380,24,-174,-75,72
217,8701,2,-946,-4375,24,-172,-76,71
218,8676,-12,-960,-4376,24,-173,-74,67
219,8685,6,-975,-4379,24,-176,-72,68
220,8694,-4,-940,-4379,24,-175,-74,70
221,8693,8,-961,-4376,24,-173,-75,70
222,8696,15,-953,-4379,24,-173,-80,73
223,8707,2,-969,-4374,24,-176,-80,72
224,8693,6,-962,-4376,24,-174,-76,74
225,8701,15,-966,-4378,24,-174,-76,70
226,8703,1,-970,-4375,24,-175,-76,72
227,8702,-4,-950,-4378,24,-174,-75,73
228,8710,0,-957,-4375,24,-176,-75,73
229,8702,14,-963,-4376,24,-176,-77,74
230,8697,18,-984,-4375,24,-175,-74,71
231,8706,-3,-993,-4383,24,-175,-74,73
232,8694,-1,-967,-4378,24,-175,-75,73
233,8696,10,-975,-4378,24,-173,-77,71
234,8687,-8,-990,-4377,24,-176,-78,70
235,8696,6,-967,-4378,24,-175,-78,70
236,8693,1,-947,-4376,24,-175,-77,71
237,8692,9,-966,-4383,24,-172,-76,70
238,8693,2,-964,-4378,24,-172,-77,70
239,8697,8,-973,-4382,24,-173,-74,71
240,8699,3,-1004,-4375,24,-173,-74,71
241,8701,6,-968,-4380,24,-174,-74,71
242,8707,20,-970,-4379,24,-175,-75,72
243,8697,14,-944,-4382,24,-173,-78,71
244,8689,14,-938,-4381,24,-175,-74,73
245,8699,4,-951,-4378,24,-174,-74,69
246,8703,7,-968,-4385,24,-178,-78,71
247,8699,5,-981,-4384,24,-178,-76,69
248,8693,1,-984,-4378,24,-176,-76,71
249,8693,-4,-979,-4381,24,-176,-76,71
250,8693,6,-997,-4384,24,-174,-77,71
251,8697,6,-964,-4376,24,-175,-77,71
252,8694,4,-984,-4377,24,-175,-76,71
253,8701,12,-994,-4377,24,-175,-76,71
254,8701,-9,-991,-4380,24,-173,-77,72
255,8713,-16,-972,-4382,24,-175,-78,70
256,8696,5,-976,-4379,24,-174,-77,71
257,8704,-4,-962,-4381,24,-175,-79,71
258,8709,-3,-991,-4382,24,-174,-76,69
259,8698,-9,-980,-4380,24,-173,-77,70
260,8689,-13,-985,-4382,24,-176,-74,70
261,8688,-11,-987,-4379,24,-179,-74,69
262,8698,1,-970,-4376,24,-177,-75,70
263,8697,1,-974,-4381,24,-176,-75,70
264,8711,-9,-972,-4376,24,-176,-79,68
265,8703,1,-971,-4373,24,-177,-78,68
266,8712,5,-956,-4375,24,-176,-75,69
267,8710,-2,-974,-4373,24,-174,-78,74
268,8716,10,-976,-4373,24,-177,-78,72
269,8698,5,-986,-4374,24,-174,-78,70
270,8698,5,-987,-4373,24,-173,-77,72
271,8697,19,-988,-4378,24,-173,-75,70
272,8702,9,-995,-4375,24,-174,-76,71
273,8696,11,-980,-4377,24,-176,-75,72
274,8682,22,-982,-4375,24,-178,-73,74
275,8711,17,-966,-4372,24,-176,-73,73
276,8709,4,-970,-4377,24,-176,-75,71
277,8702,14,-973,-4379,24,-176,-75,68
278,8710,1,-983,-4380,24,-176,-78,70
279,8707,10,-986,-4382,24,-176,-75,71
280,8705,-2,-967,-4376,24,-175,-73,72
281,8704,0,-962,-4375,24,-176,-75,72
282,8707,-9,-975,-4376,24,-175,-75,72
283,8698,-3,-958,-4373,24,-175,-81,72
284,8688,0,-972,-4373,24,-174,-79,68
285,8687,3,-963,-4377,24,-177,-77,69
286,8697,3,-964,-4376,24,-173,-79,70
287,8711,-5,-972,-4373,24,-173,-77,70
288,8707,10,-975,-4379,24,-173,-76,70
289,8707,12,-969,-4384,24,-174,-75,71
290,8708,-2,-961,-4379,24,-174,-75,72
291,8700,-9,-962,-4381,24,-176,-77,71
292,8705,-5,-974,-4380,24,-175,-77,70
293,8701,8,-976,-4378,24,-176,-75,71
294,8698,-1,-965,-4375,24,-179,-73,71
295,8689,5,-956,-4373,24,-174,-78,70
296,8695,2,-948,-4375,24,-172,-77,70
297,8694,-5,-975,-4381,24,-173,-74,66
298,8693,-10,-981,-4373,24,-172,-74,70
299,8692,-12,-992,-4374,24,-174,-74,71
300,8704,-14,-970,-4380,24,-173,-73,70
301,8695,-4,-968,-4384,24,-176,-74,69
302,8697,-8,-966,-4385,24,-175,-79,72
303,8692,-3,-952,-4382,24,-177,-74,71
304,8702,5,-972,-4382,24,-177,-77,72
305,8702,15,-977,-4384,24,-176,-80,70
306,8703,15,-995,-4379,24,-178,-79,72
307,8699,1,-958,-4380,24,-175,-79,73
308,8700,5,-971,-4378,24,-174,-73,73
309,8721,1,-963,-4382,24,-175,-75,72
310,8700,6,-964,-4380,24,-176,-74,70
311,8682,-12,-974,-4381,24,-175,-76,72
312,8699,-4,-976,-4378,24,-174,-77,74
313,8711,-5,-980,-4387,24,-175,-78,72
314,8715,14,-975,-4386,24,-174,-79,72
315,8702,-6,-960,-4384,24,-174,-80,73
316,8708,8,-964,-4384,24,-175,-82,71
317,8713,6,-958,-4382,24,-176,-78,67
318,8701,-6,-941,-4382,24,-177,-77,70
319,8713,-7,-979,-4377,24,-179,-80,72
320,8711,4,-975,-4385,24,-177,-79,73
321,8699,-2,-975,-4381,24,-177,-77,71
322,8683,5,-984,-4380,24,-175,-78,70
323,8699,-13,-958,-4381,24,-177,-77,69
324,8693,0,-985,-4378,24,-176,-78,70
325,8700,-18,-987,-4383,24,-176,-77,71
326,8713,-9,-970,-4385,24,-179,-75,72
327,8713,-5,-975,-4386,24,-177,-77,69
328,8704,3,-972,-4383,24,-176,-75,73
329,8710,-27,-972,-4383,24,-175,-77,74
330,8707,-19,-966,-4376,24,-171,-78,68
331,8708,-17,-962,-4381,24,-175,-75,68
332,8688,-9,-961,-4381,24,-175,-78,68
333,8680,-2,-969,-4381,24,-174,-76,71
334,8692,-9,-978,-4381,24,-173,-75,72
335,8702,-10,-964,-4382,24,-173,-77,69
336,8716,-2,-958,-4381,24,-176,-75,71
337,8700,16,-950,-4381,24,-175,-74,69
338,8703,6,-958,-4378,24,-174,-76,74
339,8717,9,-983,-4377,24,-174,-77,72
340,8700,-7,-993,-4374,24,-175,-75,71
341,8695,-4,-958,-4382,24,-176,-75,70
342,8698,11,-968,-4380,24,-175,-75,70
343,8698,3,-955,-4377,24,-174,-76,73
344,8710,-3,-977,-4374,24,-173,-75,72
345,8708,-1,-976,-4380,24,-172,-76,75
346,8704,-5,-994,-4381,24,-175,-74,75
347,8708,-20,-965,-4378,24,-174,-73,72
348,8700,-9,-964,-4381,24,-177,-75,71
349,8692,-25,-959,-4377,24,-176,-79,72
350,8697,-8,-976,-4376,24,-176,-80,73
351,8709,-25,-973,-4379,24,-177,-77,71
352,8715,-9,-962,-4380,24,-175,-79,72
353,8703,7,-989,-4375,24,-175,-74,72
354,8701,-7,-988,-4374,24,-174,-76,69
355,8686,-14,-970,-4374,24,-176,-76,72
356,8706,-4,-966,-4381,24,-176,-77,72
357,8694,-3,-977,-4382,24,-175,-78,74
358,8693,-4,-994,-4379,24,-176,-72,69
359,8692,-2,-991,-4379,24,-175,-76,72
360,8678,4,-993,-4385,24,-175,-74,72
361,8690,13,-968,-4382,24,-175,-77,70
362,8702,-3,-988,-4379,24,-173,-78,70
363,8702,-11,-979,-4379,24,-175,-75,76
364,8704,-6,-969,-4379,24,-174,-74,74
365,8704,-17,-988,-4375,24,-170,-75,72
366,8701,-9,-972,-4381,24,-173,-75,73
367,8707,-10,-980,-4380,24,-173,-71,70
368,8710,-12,-964,-4376,24,-175,-72,68
369,8701,-13,-966,-4378,24,-173,-74,72
370,8700,-18,-975,-4379,24,-174,-75,72
371,8702,-13,-968,-4388,24,-174,-73,70
372,8705,-6,-950,-4383,24,-173,-75,71
373,8701,-10,-964,-4382,24,-173,-75,70
374,8696,-4,-970,-4386,24,-175,-75,70
375,8702,-7,-975,-4386,24,-173,-78,71
376,8692,-14,-979,-4380,24,-175,-77,71
377,8697,-3,-967,-4380,24,-173,-75,70
378,8702,4,-986,-4379,24,-176,-77,71
379,8709,1,-967,-4380,24,-175,-75,69
380,8713,8,-957,-4376,24,-175,-75,68
381,8718,15,-964,-4382,24,-173,-75,70
382,8703,16,-975,-4380,24,-173,-76,73
383,8719,3,-1000,-4381,24,-173,-75,68
384,8697,1,-977,-4383,24,-176,-77,69
385,8708,2,-971,-4380,24,-175,-78,70
386,8721,-6,-969,-4381,24,-176,-74,71
387,8709,-18,-987,-4383,24,-175,-76,69
388,8703,-14,-971,-4384,24,-172,-74,69
389,8697,5,-979,-4381,24,-174,-79,70
390,8702,-6,-991,-4387,24,-173,-80,71
391,8695,-20,-950,-4385,24,-176,-78,71
392,8712,-14,-947,-4383,24,-176,-78,71
393,8707,2,-979,-4379,24,-176,-73,70
394,8703,0,-998,-4380,24,-175,-73,72
395,8712,4,-965,-4383,24,-172,-73,73
396,8701,1,-968,-4380,24,-173,-77,72
397,8697,-7,-976,-4376,24,-176,-71,72
398,8695,-17,-959,-4384,24,-175,-74,75
399,8694,-5,-984,-4385,24,-175,-74,75
400,8698,2,-977,-4382,24,-174,-75,74
401,8708,1,-958,-4379,24,-173,-75,75
402,8700,-7,-969,-4381,24,-174,-77,72
403,8702,-10,-965,-4377,24,-174,-75,75
404,8685,-3,-950,-4373,24,-178,-74,71
405,8692,-9,-968,-4378,24,-174,-75,69
406,8692,5,-978,-4381,24,-176,-76,70
407,8683,1,-966,-4378,24,-177,-78,71
408,8704,-6,-965,-4381,24,-179,-77,73
409,8693,-2,-977,-4383,24,-175,-78,74
410,8692,1,-968,-4377,24,-175,-80,71
411,8698,7,-965,-4377,24,-174,-79,72
412,8703,-2,-958,-4375,24,-175,-78,71
413,8687,-7,-953,-4382,24,-176,-78,70
414,8704,10,-977,-4380,24,-176,-76,72
415,8700,10,-962,-4376,24,-174,-76,69
416,8699,4,-961,-4377,24,-178,-75,68
417,8707,-11,-950,-4383,24,-177,-77,69
418,8710,-5,-957,-4378,24,-178,-74,73
419,8691,-5,-957,-4387,24,-177,-77,72
420,8691,-5,-995,-4382,24,-177,-74,71
421,8692,4,-965,-4386,24,-178,-74,71
422,8697,4,-974,-4386,24,-176,-75,70
423,8699,0,-950,-4382,24,-173,-80,72
424,8699,4,-968,-4378,24,-174,-78,69
425,8700,11,-966,-4382,24,-174,-76,69
426,8714,0,-952,-4381,24,-172,-76,72
427,8712,6,-970,-4381,24,-171,-77,74
428,8704,1,-989,-4383,24,-174,-75,71
429,8705,-2,-985,-4382,24,-173,-75,71
430,8714,13,-981,-4384,24,-173,-75,70
431,8713,0,-974,-4381,24,-176,-73,71
432,8706,-5,-980,-4380,24,-176,-76,71
433,8710,7,-960,-4379,24,-174,-74,70
434,8715,3,-949,-4383,24,-176,-76,70
435,8702,17,-983,-4385,24,-174,-82,73
436,8708,5,-985,-4383,24,-174,-77,70
437,8693,13,-961,-4379,24,-175,-80,72
438,8707,-9,-991,-4376,24,-173,-79,69
439,8696,-4,-988,-4379,24,-173,-78,66
440,8706,17,-972,-4381,24,-177,-79,67
441,8708,8,-956,-4381,24,-177,-80,70
442,8710,1,-969,-4377,24,-172,-79,72
443,8701,-9,-989,-4381,24,-172,-78,71
444,8703,2,-986,-4380,24,-174,-79,72
445,8704,3,-981,-4381,24,-177,-77,72
446,8696,14,-974,-4384,24,-174,-72,71
447,8686,3,-992,-4385,24,-177,-74,71
448,8688,-9,-980,-4385,24,-175,-75,70
449,8700,1,-971,-4379,24,-175,-76,71
450,8697,7,-975,-4383,24,-176,-74,71
451,8703,1,-962,-4381,24,-175,-73,72
452,8706,-6,-964,-4377,24,-175,-73,70
453,8717,1,-953,-4379,24,-176,-75,73
454,8717,-10,-941,-4387,24,-175,-74,71
455,8718,3,-962,-4378,24,-174,-75,71
456,8702,4,-968,-4379,24,-175,-76,70
457,8708,8,-964,-4384,24,-174,-74,72
458,8704,16,-971,-4381,24,-176,-77,70
459,8700,-5,-957,-4382,24,-175,-75,72
460,8702,-3,-975,-4383,24,-176,-75,70
461,8692,-11,-974,-4384,24,-179,-77,71
462,8700,-14,-962,-4381,24,-176,-77,72
463,8709,5,-954,-4381,24,-175,-81,72
464,8696,5,-974,-4387,24,-176,-78,71
465,8692,3,-989,-4381,24,-177,-74,69
466,8692,6,-969,-4377,24,-175,-76,67
467,8719,-4,-975,-4379,24,-173,-77,71
468,8717,9,-979,-4382,24,-173,-76,70
469,8711,8,-974,-4381,24,-175,-76,72
470,8707,-1,-962,-4374,24,-175,-77,73
471,8702,-1,-989,-4379,24,-174,-77,70
472,8689,15,-980,-4372,24,-174,-78,72
473,8697,13,-969,-4376,24,-177,-78,70
474,8689,-4,-971,-4376,24,-176,-73,72
475,8704,1,-988,-4378,24,-175,-75,74
476,8709,-4,-994,-4380,24,-174,-76,72
477,8707,-8,-987,-4380,24,-174,-78,70
478,8707,0,-969,-4377,24,-174,-77,69
479,8713,2,-978,-4380,24,-174,-76,71
480,8708,0,-956,-4376,24,-177,-78,71
481,8706,0,-969,-4378,24,-175,-76,72
482,8710,7,-980,-4382,24,-175,-76,71
483,8708,5,-969,-4388,24,-177,-78,73
484,8706,4,-975,-4380,24,-176,-76,71
485,8715,13,-974,-4370,24,-176,-77,70
486,8707,2,-962,-4374,24,-177,-77,72
487,8700,-5,-982,-4375,24,-173,-73,70
488,8703,-7,-968,-4376,24,-172,-75,71
489,8689,6,-956,-4375,24,-176,-76,72
490,8700,-9,-940,-4374,24,-175,-78,73
491,8703,-9,-970,-4378,24,-175,-77,71
492,8703,4,-989,-4379,24,-173,-76,69
493,8700,-13,-1003,-4374,24,-173,-75,72
494,8703,-12,-972,-4380,24,-174,-77,72
495,8699,-2,-961,-4385,24,-176,-79,69
496,8715,13,-963,-4383,24,-175,-78,70
497,8715,1,-972,-4384,24,-173,-77,70
498,8696,-5,-975,-4380,24,-173,-78,70
499,8693,7,-953,-4382,24,-174,-75,69
500,8700,5,-954,-4384,24,-172,-78,71
501,8690,10,-981,-4380,24,-175,-76,73
502,8700,-8,-975,-4375,24,-173,-75,72
503,8702,-1,-961,-4380,24,-176,-77,71
504,8691,-3,-964,-4380,24,-175,-79,70
505,8702,6,-970,-4376,24,-174,-74,70
506,8713,0,-979,-4380,24,-174,-76,70
507,8688,-4,-992,-4379,24,-176,-75,72
508,8705,-8,-980,-4377,24,-171,-78,72
509,8714,-13,-968,-4378,24,-174,-77,75
510,8701,4,-974,-4381,24,-175,-78,71
511,8699,14,-977,-4380,24,-172,-78,70
512,8689,3,-987,-4380,24,-174,-74,69
513,8683,-8,-979,-4384,24,-177,-77,69
514,8694,-18,-968,-4376,24,-176,-74,70
515,8720,0,-970,-4376,24,-175,-75,73
516,8698,2,-960,-4376,24,-176,-76,71
517,8712,4,-981,-4376,24,-175,-77,70
518,8706,2,-987,-4376,24,-175,-76,72
519,8705,3,-1004,-4377,24,-176,-74,73
520,8706,-13,-985,-4380,24,-175,-75,72
521,8713,-2,-986,-4376,24,-175,-76,70
522,8711,-8,-963,-4379,24,-174,-76,68
523,8713,-18,-954,-4382,24,-176,-74,72
524,8699,-7,-944,-4378,24,-174,-75,70
525,8697,-3,-960,-4378,24,-175,-75,69
526,8701,-6,-965,-4375,24,-176,-75,69
527,8686,-11,-948,-4376,24,-177,-78,72
528,8680,15,-981,-4374,24,-177,-75,72
529,8690,13,-983,-4374,24,-173,-74,74
530,8709,2,-996,-4372,24,-173,-76,75
531,8692,9,-977,-4378,24,-174,-73,72
532,8696,0,-960,-4383,24,-176,-75,70
533,8695,-2,-955,-4384,24,-176,-75,71
534,8710,-2,-961,-4384,24,-173,-76,70
535,8709,17,-951,-4386,24,-173,-76,73
536,8704,0,-984,-4380,24,-175,-75,71
537,8704,-6,-977,-4377,24,-175,-74,71
538,8702,3,-970,-4379,24,-176,-77,73
539,8687,-5,-1001,-4380,24,-173,-77,74
540,8695,-1,-965,-4378,24,-173,-76,75
541,8704,-9,-974,-4376,24,-175,-77,72
542,8711,3,-974,-4387,24,-178,-76,72
543,8709,1,-964,-4377,24,-175,-75,71
544,8701,-20,-966,-4379,24,-175,-74,71
545,8701,15,-968,-4382,24,-175,-75,71
546,8703,1,-984,-4380,24,-174,-77,70
547,8687,-8,-983,-4378,24,-175,-78,72
548,8705,-2,-987,-4378,24,-177,-75,75
549,8699,-14,-978,-4380,24,-173,-76,76
550,8716,-12,-966,-4379,24,-173,-77,70
551,8704,-7,-963,-4380,24,-170,-78,70
552,8716,5,-983,-4380,24,-176,-79,69
553,8717,8,-985,-4379,24,-176,-76,70
554,8699,0,-988,-4378,24,-173,-76,71
555,8703,4,-954,-4373,24,-173,-77,69
556,8693,-2,-937,-4378,24,-175,-76,68
557,8704,4,-953,-4376,24,-172,-73,71
558,8691,5,-958,-4378,24,-175,-73,70
559,8707,7,-972,-4375,24,-177,-75,70
560,8700,3,-972,-4378,24,-175,-78,72
561,8703,-5,-988,-4381,24,-175,-76,71
562,8700,-9,-956,-4380,24,-178,-78,70
563,8708,11,-989,-4380,24,-178,-79,71
564,8701,6,-961,-4379,24,-175,-78,71
565,8708,-6,-963,-4374,24,-172,-77,70
566,8701,3,-967,-4378,24,-173,-78,70
567,8707,6,-945,-4383,24,-171,-78,72
568,8708,-2,-950,-4384,24,-173,-77,69
569,8701,-6,-955,-4382,24,-172,-77,70
570,8691,9,-958,-4380,24,-171,-81,72
571,8688,-1,-963,-4389,24,-173,-79,68
572,8693,3,-950,-4383,24,-176,-77,70
573,8694,-3,-968,-4380,24,-176,-74,70
574,8708,0,-967,-4373,24,-175,-74,68
575,8706,-3,-966,-4380,24,-177,-76,68
576,8711,16,-966,-4384,24,-175,-77,70
577,8717,10,-960,-4383,24,-179,-78,70
578,8709,7,-968,-4377,24,-180,-78,71
579,8704,3,-965,-4379,24,-175,-79,70
580,8683,2,-991,-4385,24,-178,-79,69
581,8695,0,-968,-4381,24,-175,-81,69
582,8700,-15,-973,-4388,24,-174,-78,71
583,8707,-7,-984,-4386,24,-174,-78,70
584,8699,-19,-982,-4381,24,-171,-80,73
585,8692,-9,-973,-4388,24,-173,-79,71
586,8707,-3,-975,-4383,24,-174,-77,70
587,8700,-11,-980,-4384,24,-174,-78,72
588,8697,1,-985,-4379,24,-172,-79,72
589,8715,-12,-958,-4378,24,-173,-80,69
590,8719,-14,-963,-4377,24,-174,-78,69
591,8713,-2,-992,-4381,24,-177,-75,72
592,8695,12,-974,-4384,24,-171,-76,74
593,8690,7,-955,-4382,24,-175,-74,72
594,8686,9,-962,-4378,24,-173,-76,71
595,8685,0,-948,-4378,24,-176,-76,71
596,8695,-1,-977,-4381,24,-175,-74,69
597,8697,9,-977,-4379,24,-174,-76,70
598,8698,14,-952,-4381,24,-175,-74,68
599,8684,1,-985,-4381,24,-174,-77,72
600,8697,1,-979,-4383,24,-177,-76,72
601,8699,-12,-995,-4383,24,-176,-74,72
602,8705,-9,-998,-4378,24,-174,-76,72
603,8699,-9,-980,-4384,24,-173,-76,69
604,8704,-16,-965,-4374,24,-176,-75,71
605,8691,4,-959,-4378,24,-174,-77,71
606,8688,-1,-972,-4375,24,-175,-77,71
607,8707,-4,-960,-4377,24,-176,-77,72
608,8712,-11,-962,-4378,24,-174,-77,71
609,8714,-3,-963,-4379,24,-176,-78,73
610,8696,1,-974,-4378,24,-173,-74,71
611,8706,4,-972,-4377,24,-174,-76,72
612,8701,5,-983,-4376,24,-173,-74,71
613,8712,0,-976,-4380,24,-175,-75,73
614,8693,17,-964,-4381,24,-174,-75,73
615,8692,-1,-960,-4384,24,-173,-75,69
616,8690,-9,-981,-4375,24,-174,-76,70
617,8686,18,-993,-4378,24,-175,-75,71
618,8702,13,-978,-4384,24,-175,-76,71
619,8689,9,-959,-4376,24,-174,-76,70
620,8712,-2,-989,-4378,24,-173,-80,73
621,8721,-6,-1003,-4380,24,-173,-76,74
622,8713,-7,-1015,-4374,24,-173,-76,71
623,8707,-5,-986,-4378,24,-173,-76,71
624,8703,15,-982,-4373,24,-176,-77,68
625,8695,7,-968,-4381,24,-176,-79,73
626,8699,1,-972,-4378,24,-175,-73,71
627,8715,-1,-982,-4380,24,-175,-73,69
628,8711,-10,-985,-4381,24,-175,-77,72
629,8716,-3,-976,-4383,24,-175,-79,73
630,8714,9,-974,-4388,24,-175,-79,71
631,8720,-1,-965,-4381,24,-172,-75,73
632,8698,-19,-971,-4377,24,-175,-74,74
633,8704,-8,-978,-4380,24,-174,-77,71
634,8704,12,-982,-4380,24,-175,-76,73
635,8699,8,-986,-4380,24,-174,-77,71
636,8704,9,-968,-4377,24,-173,-77,72
637,8697,5,-966,-4377,24,-174,-78,71
638,8697,9,-969,-4380,24,-175,-76,70
639,8695,10,-958,-4382,24,-178,-76,72
640,8702,11,-959,-4381,24,-175,-76,73
641,8681,25,-973,-4381,24,-176,-74,70
642,8694,6,-964,-4382,24,-174,-75,70
643,8704,5,-960,-4376,24,-176,-78,70
644,8708,2,-952,-4375,24,-177,-79,70
645,8707,0,-962,-4376,24,-176,-78,71
646,8704,0,-985,-4377,24,-173,-76,72
647,8682,-1,-982,-4375,24,-175,-79,72
648,8694,-19,-985,-4374,24,-174,-78,73
649,8691,-9,-995,-4380,24,-172,-78,75
650,8693,5,-993,-4376,24,-174,-76,72
651,8685,5,-989,-4380,24,-175,-77,72
652,8702,-9,-953,-4378,24,-173,-74,72
653,8691,3,-967,-4379,24,-175,-76,70
654,8701,2,-975,-4382,24,-175,-73,71
655,8704,8,-964,-4377,24,-177,-72,71
656,8716,-3,-968,-4376,24,-176,-75,73
657,8705,8,-982,-4377,24,-177,-76,69
658,8709,10,-969,-4377,24,-180,-79,72
659,8699,-2,-961,-4375,24,-177,-75,70
660,8700,-6,-956,-4380,24,-175,-78,70
661,8720,-11,-980,-4384,24,-174,-78,71
662,8694,-21,-981,-4382,24,-178,-80,73
663,8692,-16,-983,-4381,24,-174,-79,75
664,8688,-11,-971,-4384,24,-176,-78,71
665,8702,-10,-985,-4377,24,-173,-77,71
666,8696,-7,-981,-4375,24,-174,-76,73
667,8698,-3,-977,-4379,24,-176,-76,73
668,8700,-10,-988,-4375,24,-176,-75,71
669,8703,-10,-998,-4381,24,-174,-77,69
670,8709,-6,-979,-4376,24,-173,-77,70
671,8701,-8,-970,-4375,24,-176,-78,69
672,8705,-15,-970,-4380,24,-176,-78,69
673,8716,-20,-965,-4377,24,-174,-80,73
674,8694,-8,-977,-4380,24,-175,-74,71
675,8703,-2,-986,-4374,24,-174,-77,71
676,8704,-10,-981,-4377,24,-176,-76,72
677,8708,8,-988,-4376,24,-173,-78,71
678,8720,-2,-1000,-4378,24,-175,-75,71
679,8715,-8,-988,-4377,24,-176,-77,71
680,8719,3,-991,-4387,24,-174,-78,69
681,8698,-8,-933,-4383,24,-177,-77,71
682,8696,-17,-968,-4376,24,-173,-76,72
683,8712,-10,-965,-4379,24,-175,-76,72
684,8714,-4,-966,-4381,24,-178,-75,70
685,8713,-11,-982,-4374,24,-174,-77,71
686,8706,-9,-971,-4377,24,-175,-77,73
687,8732,-9,-963,-4375,24,-173,-76,72
688,8714,-8,-958,-4375,24,-173,-75,70
689,8699,-10,-975,-4377,24,-176,-73,70
690,8701,-3,-979,-4372,24,-176,-75,68
691,8701,1,-980,-4374,24,-174,-77,71
692,8689,-19,-972,-4378,24,-172,-77,73
693,8699,8,-979,-4372,24,-172,-78,72
694,8711,1,-996,-4371,24,-171,-76,71
695,8711,-6,-974,-4378,24,-176,-76,68
696,8699,-6,-976,-4378,24,-173,-75,68
697,8696,-18,-960,-4382,24,-172,-75,70
698,8718,-16,-959,-4381,24,-172,-80,74
699,8705,-18,-969,-4376,24,-174,-79,74
700,8690,-8,-978,-4372,24,-177,-75,71
701,8707,-1,-952,-4376,24,-174,-72,71
702,8701,4,-982,-4372,24,-177,-76,68
703,8695,0,-962,-4377,24,-178,-76,71
704,8713,-11,-985,-4376,24,-174,-78,72
705,8704,-5,-962,-4378,24,-173,-76,73
706,8696,-18,-961,-4382,24,-175,-78,71
707,8690,2,-966,-4386,24,-174,-76,71
708,8689,1,-959,-4385,24,-172,-80,71
709,8701,2,-969,-4385,24,-173,-79,71
710,8708,-2,-968,-4385,24,-176,-78,67
711,8715,-7,-976,-4380,24,-173,-80,70
712,8701,4,-977,-4378,24,-169,-76,72
713,8689,14,-969,-4377,24,-173,-75,73
714,8697,3,-973,-4377,24,-174,-76,74
715,8690,7,-979,-4373,24,-174,-75,72
716,8706,7,-976,-4376,24,-174,-76,72
717,8702,0,-971,-4377,24,-177,-74,72
718,8701,-11,-958,-4380,24,-178,-73,72
719,8699,-6,-979,-4379,24,-175,-76,70
720,8696,2,-951,-4382,24,-175,-78,72
721,8687,-8,-957,-4381,24,-174,-78,74
722,8692,-18,-977,-4375,24,-174,-79,73
723,8693,-4,-944,-4379,24,-175,-76,71
724,8696,-3,-959,-4377,24,-177,-78,72
725,8687,-1,-973,-4375,24,-172,-80,68
726,8699,10,-970,-4381,24,-172,-80,70
727,8695,-1,-969,-4378,24,-175,-77,72
728,8707,-9,-969,-4376,24,-172,-76,69
729,8709,-5,-962,-4381,24,-174,-77,68
730,8709,12,-971,-4385,24,-175,-77,70
731,8718,-10,-968,-4383,24,-174,-78,71
732,8713,-5,-960,-4379,24,-176,-75,72
733,8707,-9,-971,-4377,24,-174,-78,72
734,8701,5,-976,-4376,24,-173,-79,71
735,8701,-8,-966,-4376,24,-172,-77,67
736,8683,-14,-977,-4377,24,-175,-80,70
737,8700,-4,-978,-4376,24,-176,-75,71
738,8711,-12,-979,-4383,24,-174,-74,72
739,8698,-8,-971,-4382,24,-176,-74,72
740,8702,-7,-970,-4381,24,-174,-76,72
741,8714,-6,-964,-4378,24,-174,-76,69
742,8715,-6,-961,-4381,24,-175,-75,69
743,8695,-13,-970,-4384,24,-175,-75,69
744,8708,-11,-998,-4382,24,-171,-75,69
745,8706,-2,-980,-4383,24,-172,-76,70
746,8689,-3,-981,-4378,24,-173,-74,72
747,8701,0,-978,-4376,24,-174,-76,73
748,8696,0,-970,-4378,24,-175,-74,71
749,8705,-7,-968,-4380,24,-176,-74,72
750,8692,-16,-964,-4373,24,-174,-75,72
751,8689,-12,-965,-4379,24,-175,-76,70
752,8695,-5,-967,-4380,24,-174,-79,72
753,8692,-15,-950,-4383,24,-174,-78,72
754,8718,-8,-951,-4383,24,-173,-74,71
755,8704,-12,-968,-4380,24,-178,-76,70
756,8708,12,-961,-4380,24,-176,-77,70
757,8700,7,-950,-4382,24,-175,-77,68
758,8706,4,-960,-4384,24,-177,-76,73
759,8698,-11,-963,-4383,24,-173,-76,74
760,8712,-1,-961,-4386,24,-174,-80,70
761,8680,-12,-959,-4377,24,-175,-78,70
762,8686,2,-965,-4376,24,-172,-81,70
763,8695,4,-975,-4378,24,-176,-77,69
764,8712,-4,-981,-4375,24,-176,-77,72
765,8711,-10,-985,-4378,24,-175,-78,72
766,8704,-19,-978,-4380,24,-176,-78,72
767,8714,-1,-981,-4379,24,-176,-75,72
768,8713,-4,-977,-4375,24,-176,-75,73
769,8704,11,-981,-4376,24,-176,-75,73
770,8703,-16,-942,-4385,24,-174,-79,72
771,8702,-8,-967,-4382,24,-175,-79,72
772,8702,-2,-976,-4381,24,-173,-79,72
773,8706,7,-982,-4380,24,-174,-78,70
774,8688,6,-979,-4385,24,-175,-77,68
775,8695,4,-989,-4380,24,-173,-77,72
776,8706,5,-982,-4378,24,-174,-77,70
777,8708,9,-979,-4386,24,-177,-77,72
778,8711,4,-983,-4376,24,-176,-77,69
779,8707,9,-962,-4382,24,-177,-75,72
780,8698,6,-967,-4378,24,-179,-77,72
781,8697,-5,-989,-4383,24,-176,-75,70
782,8696,3,-991,-4387,24,-178,-74,70
783,8681,-12,-977,-4384,24,-176,-75,69
784,8701,-11,-968,-4380,24,-175,-78,69
785,8703,-2,-973,-4383,24,-174,-80,68
786,8698,0,-969,-4381,24,-175,-76,69
787,8698,12,-989,-4383,24,-177,-79,71
788,8705,0,-981,-4380,24,-175,-75,74
789,8704,0,-980,-4382,24,-175,-77,73
790,8705,-3,-978,-4384,24,-176,-78,71
791,8700,-5,-973,-4380,24,-175,-79,72
792,8689,-11,-955,-4380,24,-176,-79,71
793,8696,-10,-971,-4382,24,-174,-78,69
794,8711,-4,-965,-4383,24,-176,-79,69
795,8709,1,-949,-4382,24,-176,-78,70
796,8694,10,-982,-4381,24,-176,-76,70
797,8713,-4,-961,-4382,24,-175,-75,67
798,8710,-3,-963,-4385,24,-174,-76,71
799,8702,5,-958,-4383,24,-174,-78,71
800,8700,9,-953,-4382,24,-175,-79,74
801,8686,11,-967,-4383,24,-176,-80,72
802,8711,-11,-971,-4380,24,-172,-77,72
803,8708,-8,-985,-4384,24,-174,-75,70
804,8707,-10,-971,-4387,24,-175,-77,71
805,8691,-16,-983,-4390,24,-176,-79,69
806,8684,3,-981,-4382,24,-175,-78,72
807,8705,4,-956,-4382,24,-174,-77,70
808,8711,12,-950,-4379,24,-175,-77,71
809,8703,-11,-977,-4376,24,-173,-76,72
810,8714,-9,-952,-4374,24,-173,-76,71
811,8698,3,-972,-4376,24,-171,-75,68
812,8706,-8,-961,-4378,24,-174,-76,70
813,8700,-4,-961,-4383,24,-174,-73,70
814,8696,-14,-952,-4379,24,-174,-72,71
815,8704,-4,-970,-4377,24,-174,-78,73
816,8710,9,-958,-4383,24,-176,-79,71
817,8705,-1,-964,-4378,24,-177,-79,72
818,8708,-1,-975,-4375,24,-175,-79,72
819,8695,6,-997,-4377,24,-176,-77,72
820,8700,10,-980,-4376,24,-176,-77,71
821,8699,-6,-970,-4379,24,-177,-76,69
822,8704,-10,-950,-4380,24,-177,-73,68
823,8704,-3,-965,-4381,24,-177,-75,70
824,8695,-13,-953,-4384,24,-175,-77,71
825,8707,-1,-959,-4381,24,-174,-77,68
826,8697,-14,-993,-4383,24,-175,-73,68
827,8701,-15,-977,-4387,24,-174,-75,69
828,8706,1,-955,-4382,24,-175,-75,71
829,8707,7,-967,-4383,24,-176,-77,70
830,8715,4,-985,-4381,24,-176,-71,73
831,8708,-1,-990,-4384,24,-174,-76,71
832,8693,-12,-975,-4384,24,-174,-75,73
833,8711,-7,-960,-4390,24,-173,-74,70
834,8704,7,-977,-4384,24,-174,-75,71
835,8686,-6,-976,-4377,24,-173,-75,71
836,8707,-7,-971,-4380,24,-175,-77,69
837,8702,-10,-959,-4381,24,-174,-76,71
838,8695,-10,-953,-4382,24,-174,-76,73
839,8701,-12,-966,-4380,24,-176,-77,75
840,8700,-12,-956,-4383,24,-178,-75,71
841,8697,-9,-987,-4384,24,-175,-76,70
842,8710,1,-984,-4380,24,-176,-81,71
843,8707,-5,-971,-4380,24,-174,-77,73
844,8699,1,-975,-4382,24,-175,-76,72
845,8700,-10,-975,-4381,24,-177,-75,70
846,8693,9,-957,-4385,24,-174,-75,72
847,8700,6,-963,-4387,24,-173,-74,73
848,8698,8,-975,-4383,24,-175,-77,72
849,8691,-6,-957,-4384,24,-173,-74,70
850,8704,4,-960,-4384,24,-174,-79,71
851,8706,1,-973,-4384,24,-176,-77,70
852,8710,1,-968,-4382,24,-175,-76,71
853,8701,-2,-971,-4376,24,-169,-78,70
854,8693,-9,-968,-4373,24,-171,-78,71
855,8705,-15,-988,-4380,24,-173,-75,73
856,8694,-13,-987,-4372,24,-174,-76,72
857,8704,-8,-984,-4378,24,-175,-77,71
858,8700,7,-977,-4380,24,-174,-76,70
859,8700,6,-966,-4380,24,-175,-74,70
860,8706,-11,-951,-4381,24,-176,-78,69
861,8715,-13,-960,-4379,24,-175,-80,69
862,8699,-4,-973,-4380,24,-176,-77,70
863,8703,3,-986,-4385,24,-174,-77,71
864,8715,8,-969,-4382,24,-176,-76,69
865,8711,1,-962,-4384,24,-173,-77,70
866,8714,1,-989,-4378,24,-176,-80,69
867,8705,-11,-975,-4377,24,-176,-77,71
868,8701,-4,-979,-4387,24,-176,-77,70
869,8708,-5,-958,-4383,24,-176,-77,70
870,8722,2,-964,-4378,24,-175,-79,73
871,8717,-1,-951,-4382,24,-176,-76,70
872,8697,-3,-963,-4383,24,-174,-77,73
873,8701,-26,-957,-4386,24,-173,-78,74
874,8705,-15,-974,-4382,24,-176,-78,72
875,8700,4,-961,-4378,24,-176,-78,72
876,8697,5,-942,-4383,24,-173,-76,73
877,8702,3,-941,-4380,24,-173,-76,71
878,8707,-17,-958,-4383,24,-176,-77,74
879,8693,-5,-971,-4383,24,-174,-75,74
880,8700,-5,-972,-4382,24,-175,-79,71
881,8690,-4,-970,-4379,24,-175,-79,72
882,8686,-4,-985,-4377,24,-174,-77,71
883,8689,3,-982,-4378,24,-175,-74,68
884,8700,19,-986,-4380,24,-176,-77,69
885,8692,22,-965,-4384,24,-176,-76,71
886,8686,14,-956,-4384,24,-174,-78,73
887,8696,2,-955,-4381,24,-175,-81,70
888,8708,11,-976,-4383,24,-172,-77,71
889,8686,-3,-961,-4380,24,-174,-76,71
890,8698,-1,-976,-4381,24,-174,-77,69
891,8698,3,-965,-4379,24,-171,-75,71
892,8719,-9,-969,-4378,24,-175,-80,70
893,8712,-1,-963,-4380,24,-175,-73,73
894,8711,-1,-962,-4380,24,-177,-73,71
895,8702,-8,-950,-4384,24,-175,-75,73
896,8707,8,-941,-4382,24,-175,-75,69
897,8698,-8,-962,-4379,24,-176,-78,69
898,8694,-4,-962,-4377,24,-176,-77,71
899,8707,-7,-964,-4380,24,-173,-76,72
900,8697,-15,-979,-4381,24,-176,-78,75
901,8700,-9,-987,-4383,24,-175,-75,70
902,8695,-2,-992,-4379,24,-174,-76,72
903,8690,4,-992,-4379,24,-176,-79,69
904,8690,-23,-971,-4380,24,-177,-76,71
905,8709,-8,-948,-4376,24,-176,-73,71
906,8708,-17,-966,-4383,24,-173,-78,71
907,8697,7,-953,-4381,24,-172,-79,71
908,8708,-10,-972,-4384,24,-172,-77,69
909,8709,-3,-971,-4382,24,-174,-78,72
910,8695,-13,-958,-4376,24,-173,-76,71
911,8693,-12,-981,-4378,24,-176,-75,71
912,8707,-12,-967,-4376,24,-175,-75,70
913,8695,-7,-955,-4375,24,-174,-77,69
914,8691,-4,-953,-4377,24,-175,-78,72
915,8696,0,-956,-4376,24,-176,-74,73
916,8695,-6,-954,-4373,24,-176,-77,72
917,8712,-4,-968,-4378,24,-176,-79,72
918,8706,2,-970,-4377,24,-175,-78,72
919,8711,2,-976,-4379,24,-174,-78,72
920,8703,-11,-978,-4381,24,-176,-77,71
921,8704,-6,-956,-4382,24,-177,-72,74
922,8714,3,-979,-4383,24,-178,-76,74
923,8713,7,-975,-4378,24,-177,-76,73
924,8710,9,-961,-4383,24,-176,-77,72
925,8708,11,-951,-4381,24,-174,-78,71
926,8707,4,-966,-4388,24,-175,-78,72
927,8700,1,-965,-4385,24,-174,-77,70
928,8705,-11,-965,-4380,24,-173,-75,72
929,8716,-12,-970,-4382,24,-175,-77,73
930,8714,-23,-981,-4384,24,-173,-77,72
931,8709,-14,-963,-4387,24,-176,-77,71
932,8704,-13,-968,-4377,24,-174,-78,71
933,8703,-17,-959,-4378,24,-176,-76,72
934,8698,-15,-952,-4376,24,-176,-77,72
935,8710,-4,-958,-4377,24,-173,-76,69
936,8707,1,-974,-4377,24,-175,-77,69
937,8693,0,-975,-4375,24,-176,-78,73
938,8695,2,-982,-4380,24,-178,-74,75
939,8700,10,-985,-4378,24,-175,-73,73
940,8701,14,-944,-4378,24,-174,-74,73
941,8687,-9,-956,-4376,24,-173,-78,72
942,8690,-8,-966,-4380,24,-176,-73,73
943,8698,-3,-972,-4379,24,-173,-74,71
944,8696,-11,-964,-4371,24,-170,-74,70
945,8695,6,-957,-4371,24,-170,-74,70
946,8706,-3,-965,-4378,24,-173,-73,73
947,8707,2,-981,-4375,24,-174,-77,73
948,8694,-17,-969,-4378,24,-173,-78,73
949,8703,-12,-970,-4377,24,-174,-76,72
950,8705,-7,-958,-4377,24,-174,-79,71
951,8712,-3,-952,-4377,24,-171,-76,71
952,8703,-13,-970,-4376,24,-176,-76,70
953,8710,-1,-987,-4382,24,-177,-76,72
954,8719,-12,-958,-4381,24,-176,-79,72
955,8700,-5,-958,-4378,24,-176,-77,72
956,8690,-11,-977,-4378,24,-175,-76,72
957,8708,7,-989,-4375,24,-175,-80,72
958,8698,13,-975,-4374,24,-174,-77,70
959,8702,3,-995,-4374,24,-176,-78,71
960,8699,-15,-969,-4376,24,-176,-77,70
961,8706,4,-976,-4373,24,-175,-75,72
962,8714,5,-992,-4377,24,-176,-78,72
963,8704,2,-994,-4376,24,-175,-75,69
964,8710,2,-975,-4374,24,-174,-73,71
965,8695,-4,-947,-4382,24,-178,-75,73
966,8708,-14,-954,-4383,24,-176,-78,71
967,8698,-19,-971,-4383,24,-178,-76,70
968,8703,-18,-956,-4383,24,-176,-77,73
969,8712,-8,-968,-4378,24,-173,-77,73
970,8718,0,-970,-4376,24,-174,-74,71
971,8705,5,-973,-4379,24,-173,-73,72
972,8711,1,-966,-4378,24,-176,-71,71
973,8707,-11,-980,-4380,24,-175,-77,71
974,8691,-8,-997,-4380,24,-175,-79,75
975,8693,0,-963,-4380,24,-177,-77,74
976,8705,-16,-983,-4372,24,-176,-76,73
977,8713,-3,-973,-4379,24,-176,-75,70
978,8707,3,-970,-4377,24,-176,-74,70
979,8701,1,-987,-4376,24,-173,-73,71
980,8715,-18,-969,-4374,24,-174,-80,71
981,8701,0,-964,-4373,24,-173,-74,71
982,8690,7,-955,-4374,24,-173,-76,72
983,8697,16,-981,-4377,24,-179,-76,70
984,8695,11,-967,-4381,24,-178,-77,70
985,8695,0,-968,-4385,24,-175,-79,71
986,8706,-5,-952,-4384,24,-175,-77,72
987,8703,-15,-963,-4376,24,-176,-76,74
988,8699,-3,-960,-4376,24,-174,-76,70
989,8700,3,-975,-4378,24,-172,-76,72
990,8692,-10,-985,-4380,24,-173,-74,72
991,8701,-2,-966,-4383,24,-175,-77,72
992,8704,7,-963,-4378,24,-173,-77,73
993,8690,-6,-961,-4374,24,-173,-76,71
994,8689,-10,-968,-4374,24,-174,-78,71
995,8700,-11,-965,-4373,24,-175,-74,70
996,8697,12,-995,-4376,24,-175,-73,69
997,8715,-10,-991,-4379,24,-172,-71,71
998,8709,-7,-976,-4376,24,-173,-73,73
