,acc_X,acc_Y,acc_Z,temp,tempC,gyr_X,gyr_Y,gyr_Z
0,8593,3,-1674,-4627,23,-343,-152,144
1,8649,0,-1705,-4618,23,-347,-161,156
2,8616,14,-1673,-4621,23,-346,-143,131
3,8599,19,-1669,-4632,23,-357,-150,140
4,8629,-12,-1728,-4625,23,-344,-155,152
5,8629,17,-1644,-4627,23,-368,-157,143
6,8635,-5,-1703,-4619,23,-347,-163,139
7,8624,-2,-1696,-4631,23,-340,-152,138
8,8641,-2,-1701,-4635,23,-354,-146,130
9,8588,-10,-1617,-4622,23,-342,-153,148
10,8603,-33,-1677,-4626,23,-332,-142,135
11,8635,11,-1677,-4636,23,-337,-143,134
12,8661,-44,-1601,-4621,23,-342,-148,140
13,8649,-13,-1637,-4610,23,-364,-151,142
14,8658,6,-1755,-4634,23,-359,-147,140
15,8629,6,-1749,-4633,23,-334,-157,124
16,8641,-30,-1736,-4622,23,-348,-157,134
17,8607,7,-1723,-4625,23,-337,-147,139
18,8629,-1,-1679,-4612,23,-353,-148,138
19,8676,12,-1684,-4629,23,-347,-130,138
20,8650,3,-1674,-4638,23,-337,-161,149
21,8604,-26,-1721,-4620,23,-356,-154,146
22,8661,16,-1751,-4621,23,-349,-148,127
23,8684,-13,-1669,-4619,23,-338,-162,147
24,8679,22,-1722,-4620,23,-341,-149,128
25,8621,19,-1679,-4635,23,-347,-161,142
26,8675,-4,-1697,-4630,23,-358,-157,134
27,8672,23,-1730,-4624,23,-327,-152,144
28,8657,12,-1733,-4623,23,-339,-159,142
29,8640,42,-1660,-4624,23,-356,-171,146
30,8683,0,-1674,-4631,23,-348,-171,148
31,8621,20,-1692,-4619,23,-356,-166,126
32,8669,71,-1688,-4614,23,-338,-157,137
33,8605,11,-1711,-4623,23,-348,-158,144
34,8605,-17,-1702,-4627,23,-355,-134,135
35,8682,35,-1682,-4627,23,-367,-150,114
36,8613,15,-1704,-4625,23,-338,-142,148
37,8612,-23,-1723,-4608,23,-338,-149,139
38,8688,-6,-1724,-4641,23,-339,-146,138
39,8669,36,-1728,-4632,23,-354,-133,142
40,8673,21,-1700,-4630,23,-352,-146,134
41,8620,18,-1722,-4626,23,-339,-159,129
42,8705,-6,-1669,-4631,23,-362,-160,124
43,8631,6,-1701,-4625,23,-334,-146,150
44,8663,56,-1733,-4623,23,-355,-141,152
45,8647,31,-1765,-4618,23,-344,-155,134
46,8617,-10,-1689,-4627,23,-336,-135,143
47,8632,15,-1686,-4625,23,-372,-157,143
48,8623,23,-1707,-4636,23,-335,-152,124
49,8636,2,-1648,-4622,23,-352,-180,153
50,8680,15,-1660,-4611,23,-320,-124,146
51,8640,-5,-1727,-4634,23,-353,-117,156
52,8619,-23,-1726,-4620,23,-324,-140,159
53,8674,-2,-1692,-4632,23,-340,-154,126
54,8662,-22,-1668,-4623,23,-365,-167,143
55,8617,26,-1687,-4629,23,-363,-137,148
56,8641,19,-1729,-4621,23,-342,-163,132
57,8608,17,-1676,-4623,23,-342,-146,147
58,8637,38,-1720,-4628,23,-352,-168,132
59,8663,7,-1744,-4616,23,-345,-143,137
60,8632,-7,-1681,-4622,23,-353,-157,142
61,8689,10,-1697,-4621,23,-362,-153,136
62,8626,28,-1693,-4617,23,-334,-151,136
63,8627,16,-1724,-4619,23,-342,-161,155
64,8624,-7,-1737,-4613,23,-345,-144,135
65,8635,30,-1648,-4619,23,-353,-158,142
66,8627,21,-1719,-4625,23,-351,-158,114
67,8610,32,-1727,-4634,23,-351,-147,146
68,8694,-17,-1709,-4638,23,-350,-131,152
69,8623,44,-1625,-4634,23,-345,-154,127
70,8651,14,-1700,-4624,23,-340,-145,139
71,8647,59,-1655,-4635,23,-339,-149,151
72,8653,-12,-1747,-4627,23,-334,-159,125
73,8631,-29,-1711,-4613,23,-343,-162,137
74,8642,26,-1658,-4627,23,-346,-169,138
75,8651,-7,-1684,-4622,23,-341,-176,128
76,8630,48,-1644,-4623,23,-346,-143,149
77,8620,-4,-1723,-4635,23,-359,-151,146
78,8666,-8,-1715,-4627,23,-347,-155,129
79,8629,9,-1609,-4617,23,-348,-154,142
80,8635,-3,-1655,-4620,23,-346,-153,138
81,8651,22,-1735,-4629,23,-357,-137,140
82,8629,36,-1744,-4634,23,-354,-151,130
83,8645,-4,-1705,-4620,23,-347,-154,147
84,8609,3,-1724,-4624,23,-335,-157,141
85,8639,9,-1697,-4621,23,-344,-154,128
86,8611,16,-1672,-4629,23,-344,-170,125
87,8666,8,-1730,-4628,23,-349,-164,136
88,8654,31,-1691,-4601,23,-345,-148,141
89,8625,13,-1700,-4627,23,-344,-159,138
90,8656,20,-1691,-4612,23,-347,-168,138
91,8648,14,-1705,-4621,23,-366,-149,145
92,8603,78,-1693,-4626,23,-364,-149,151
93,8641,-26,-1725,-4631,23,-339,-162,134
94,8640,-11,-1676,-4626,23,-341,-158,123
95,8608,-4,-1691,-4623,23,-344,-158,138
96,8646,-36,-1655,-4621,23,-348,-141,140
97,8651,17,-1655,-4643,23,-337,-148,129
98,8649,27,-1712,-4623,23,-356,-145,131
99,8649,8,-1652,-4635,23,-352,-153,130
100,8638,40,-1693,-4615,23,-332,-149,134
101,8617,25,-1715,-4630,23,-338,-158,138
102,8648,42,-1730,-4624,23,-338,-160,151
103,8637,15,-1762,-4627,23,-339,-128,136
104,8608,-3,-1661,-4632,23,-353,-151,131
105,8631,8,-1660,-4632,23,-342,-160,131
106,8657,24,-1649,-4632,23,-346,-137,139
107,8647,-18,-1693,-4624,23,-343,-147,147
108,8624,15,-1725,-4632,23,-361,-164,148
109,8607,-28,-1652,-4626,23,-367,-176,137
110,8643,2,-1689,-4617,23,-336,-156,133
111,8648,23,-1719,-4635,23,-365,-154,136
112,8674,-8,-1650,-4617,23,-357,-148,138
113,8608,27,-1727,-4627,23,-339,-141,135
114,8657,1,-1632,-4634,23,-354,-171,128
115,8663,-8,-1736,-4619,23,-340,-168,136
116,8635,-27,-1726,-4627,23,-346,-143,138
117,8620,4,-1660,-4638,23,-353,-150,135
118,8609,-19,-1712,-4628,23,-341,-149,150
119,8630,19,-1682,-4627,23,-339,-151,132
120,8629,-8,-1642,-4620,23,-355,-156,144
121,8635,-6,-1680,-4620,23,-356,-146,146
122,8629,24,-1740,-4624,23,-346,-144,136
123,8643,-4,-1677,-4616,23,-350,-133,156
124,8635,-16,-1716,-4616,23,-339,-158,159
125,8593,17,-1739,-4625,23,-349,-145,143
126,8610,6,-1707,-4626,23,-337,-156,128
127,8626,36,-1663,-4624,23,-355,-164,131
128,8645,17,-1663,-4619,23,-337,-163,167
129,8598,20,-1714,-4629,23,-335,-141,155
130,8683,-4,-1683,-4626,23,-350,-153,124
131,8639,-8,-1710,-4632,23,-353,-144,147
132,8668,37,-1701,-4622,23,-338,-157,126
133,8662,11,-1703,-4624,23,-343,-163,145
134,8640,15,-1772,-4632,23,-339,-121,144
135,8620,7,-1714,-4643,23,-346,-166,145
136,8623,-30,-1714,-4634,23,-356,-162,139
137,8631,41,-1675,-4632,23,-340,-150,154
138,8644,9,-1696,-4621,23,-347,-161,121
139,8620,-13,-1707,-4619,23,-345,-132,130
140,8596,-25,-1694,-4632,23,-345,-139,146
141,8647,25,-1675,-4625,23,-349,-146,153
142,8637,25,-1726,-4632,23,-367,-152,133
143,8640,9,-1761,-4624,23,-330,-137,142
144,8656,4,-1689,-4619,23,-351,-156,149
145,8621,-21,-1760,-4618,23,-361,-147,149
146,8611,17,-1688,-4621,23,-333,-146,146
147,8674,13,-1723,-4629,23,-353,-141,141
148,8684,23,-1683,-4626,23,-360,-165,150
149,8634,-50,-1644,-4623,23,-347,-158,149
150,8615,-1,-1683,-4617,23,-354,-128,158
151,8616,25,-1692,-4608,23,-342,-142,146
152,8655,33,-1729,-4617,23,-358,-147,155
153,8624,8,-1747,-4621,23,-356,-139,146
154,8628,5,-1668,-4617,23,-351,-139,130
155,8653,34,-1661,-4611,23,-350,-142,148
156,8671,-37,-1712,-4620,23,-352,-142,146
157,8654,23,-1732,-4618,23,-333,-162,125
158,8613,27,-1748,-4624,23,-344,-147,153
159,8628,3,-1743,-4620,23,-340,-165,133
160,8653,12,-1730,-4635,23,-343,-134,150
161,8613,-36,-1705,-4628,23,-339,-157,139
162,8653,11,-1652,-4624,23,-375,-138,124
163,8622,28,-1714,-4619,23,-355,-153,148
164,8623,25,-1643,-4626,23,-341,-162,130
165,8640,16,-1691,-4612,23,-346,-157,152
166,8660,-5,-1657,-4619,23,-347,-147,140
167,8635,22,-1762,-4616,23,-351,-130,142
168,8665,20,-1697,-4621,23,-345,-151,137
169,8623,-9,-1615,-4614,23,-341,-153,146
170,8638,-26,-1720,-4601,23,-346,-163,148
171,8613,16,-1756,-4628,23,-348,-148,134
172,8622,21,-1690,-4634,23,-352,-150,128
173,8611,15,-1741,-4614,23,-363,-147,147
174,8670,3,-1714,-4631,23,-345,-139,144
175,8603,3,-1754,-4621,23,-346,-150,155
176,8626,-25,-1660,-4614,23,-356,-166,127
177,8676,49,-1733,-4627,23,-342,-153,147
178,8664,-1,-1755,-4617,23,-358,-149,137
179,8606,26,-1687,-4625,23,-344,-144,150
180,8632,-21,-1707,-4613,23,-356,-157,134
181,8613,-7,-1686,-4614,23,-346,-169,148
182,8612,22,-1706,-4618,23,-338,-144,155
183,8628,4,-1684,-4621,23,-363,-146,151
184,8656,-14,-1727,-4621,23,-325,-166,150
185,8645,16,-1707,-4616,23,-364,-137,140
186,8614,32,-1693,-4619,23,-333,-148,146
187,8609,9,-1648,-4628,23,-341,-149,149
188,8629,30,-1690,-4618,23,-353,-153,116
189,8616,-2,-1689,-4617,23,-355,-154,139
190,8631,39,-1690,-4623,23,-353,-159,147
191,8605,3,-1713,-4620,23,-355,-142,141
192,8589,0,-1727,-4625,23,-352,-163,139
193,8647,11,-1738,-4624,23,-360,-158,140
194,8628,-14,-1691,-4630,23,-327,-168,143
195,8614,-8,-1684,-4619,23,-343,-150,130
196,8654,8,-1735,-4616,23,-350,-167,149
197,8642,50,-1713,-4617,23,-338,-158,129
198,8631,21,-1705,-4619,23,-352,-146,117
199,8634,13,-1727,-4615,23,-348,-157,152
200,8627,-3,-1753,-4613,23,-363,-157,142
201,8640,5,-1681,-4619,23,-349,-150,133
202,8655,-22,-1689,-4614,23,-341,-143,133
203,8634,-18,-1651,-4628,23,-348,-140,127
204,8670,14,-1661,-4632,23,-340,-161,136
205,8640,2,-1706,-4626,23,-342,-145,134
206,8602,22,-1739,-4627,23,-346,-164,149
207,8642,-5,-1663,-4598,23,-346,-163,123
208,8644,26,-1716,-4617,23,-364,-148,137
209,8657,17,-1684,-4626,23,-340,-151,131
210,8656,9,-1725,-4625,23,-345,-141,135
211,8627,9,-1719,-4621,23,-363,-152,144
212,8610,16,-1754,-4628,23,-347,-159,127
213,8642,36,-1657,-4615,23,-345,-130,145
214,8640,-6,-1622,-4623,23,-347,-165,150
215,8633,-1,-1685,-4638,23,-348,-132,142
216,8656,-16,-1664,-4625,23,-353,-168,146
217,8625,0,-1714,-4618,23,-343,-160,145
218,8671,-7,-1706,-4617,23,-342,-153,123
219,8633,-7,-1697,-4618,23,-336,-140,130
220,8676,25,-1756,-4623,23,-353,-153,152
221,8610,-35,-1678,-4618,23,-341,-160,141
222,8636,41,-1707,-4609,23,-345,-147,150
223,8638,-5,-1706,-4602,23,-321,-150,144
224,8669,9,-1726,-4619,23,-328,-138,147
225,8622,4,-1729,-4608,23,-355,-143,130
226,8657,11,-1725,-4604,23,-341,-153,139
227,8647,-57,-1738,-4623,23,-351,-154,133
228,8666,-2,-1700,-4625,23,-349,-139,145
229,8702,-12,-1749,-4617,23,-335,-164,144
230,8638,-15,-1704,-4614,23,-354,-156,140
231,8640,26,-1695,-4618,23,-336,-149,149
232,8634,-38,-1710,-4617,23,-348,-154,136
233,8647,-13,-1734,-4600,23,-351,-153,141
234,8646,-30,-1680,-4623,23,-356,-162,136
235,8611,-20,-1702,-4626,23,-345,-166,150
236,8621,6,-1720,-4629,23,-361,-153,153
237,8631,45,-1720,-4615,23,-345,-145,155
238,8620,-25,-1676,-4624,23,-346,-151,160
239,8633,-2,-1725,-4617,23,-347,-139,153
240,8602,8,-1637,-4611,23,-354,-150,147
241,8661,3,-1660,-4607,23,-355,-154,136
242,8643,-4,-1754,-4620,23,-344,-138,132
243,8637,-9,-1702,-4617,23,-345,-144,113
244,8618,41,-1674,-4611,23,-351,-157,149
245,8641,5,-1698,-4611,23,-357,-148,130
246,8628,7,-1761,-4610,23,-356,-150,148
247,8633,-14,-1733,-4618,23,-344,-152,135
248,8628,12,-1696,-4610,23,-336,-152,158
249,8656,-16,-1676,-4612,23,-352,-143,139
250,8637,21,-1712,-4619,23,-339,-145,144
251,8616,-27,-1735,-4613,23,-359,-159,127
252,8654,1,-1696,-4632,23,-335,-153,146
253,8636,8,-1682,-4619,23,-357,-143,139
254,8628,23,-1699,-4633,23,-362,-157,143
255,8608,-8,-1705,-4622,23,-339,-156,126
256,8668,1,-1698,-4618,23,-350,-148,152
257,8616,-8,-1695,-4617,23,-352,-151,115
258,8664,18,-1704,-4624,23,-347,-153,148
259,8645,39,-1721,-4626,23,-346,-139,152
260,8643,40,-1721,-4619,23,-349,-159,151
261,8657,-36,-1689,-4624,23,-355,-150,137
262,8677,21,-1673,-4619,23,-332,-159,135
263,8635,30,-1700,-4634,23,-346,-137,139
264,8592,-7,-1722,-4628,23,-331,-142,136
265,8623,7,-1673,-4628,23,-355,-142,147
266,8636,37,-1668,-4609,23,-351,-165,126
267,8669,-33,-1742,-4622,23,-350,-153,137
268,8630,19,-1711,-4609,23,-348,-157,146
269,8632,-12,-1688,-4625,23,-353,-164,132
270,8605,-8,-1725,-4610,23,-349,-171,136
271,8627,35,-1739,-4612,23,-342,-142,128
272,8663,-14,-1659,-4618,23,-352,-157,145
273,8630,5,-1713,-4613,23,-353,-158,145
274,8636,-13,-1690,-4620,23,-352,-154,131
275,8639,42,-1708,-4618,23,-331,-164,137
276,8631,-6,-1714,-4614,23,-344,-139,141
277,8614,0,-1693,-4629,23,-364,-133,145
278,8628,7,-1741,-4617,23,-344,-134,155
279,8626,-13,-1688,-4628,23,-340,-147,139
280,8661,23,-1729,-4618,23,-329,-124,155
281,8669,4,-1693,-4627,23,-343,-151,150
282,8569,-17,-1726,-4616,23,-353,-131,143
283,8601,-4,-1723,-4628,23,-365,-163,143
284,8624,-41,-1704,-4631,23,-356,-168,125
285,8632,40,-1713,-4624,23,-361,-162,140
286,8635,-13,-1719,-4620,23,-326,-154,142
287,8645,41,-1722,-4614,23,-348,-141,128
288,8655,-13,-1663,-4624,23,-354,-145,146
289,8615,-21,-1674,-4610,23,-354,-143,142
290,8607,36,-1733,-4609,23,-335,-148,125
291,8603,-9,-1674,-4624,23,-346,-156,132
292,8643,-11,-1696,-4633,23,-336,-147,162
293,8630,-14,-1700,-4611,23,-339,-137,142
294,8642,-20,-1696,-4620,23,-367,-157,123
295,8610,11,-1715,-4615,23,-344,-138,131
296,8620,-21,-1688,-4623,23,-346,-146,141
297,8579,21,-1675,-4619,23,-358,-159,142
298,8610,3,-1748,-4618,23,-342,-153,126
299,8627,5,-1655,-4614,23,-347,-136,136
300,8623,31,-1676,-4623,23,-352,-153,130
301,8639,-3,-1637,-4626,23,-345,-149,154
302,8647,-15,-1714,-4624,23,-338,-152,139
303,8643,16,-1766,-4625,23,-334,-143,138
304,8642,6,-1713,-4611,23,-345,-166,125
305,8636,2,-1703,-4628,23,-352,-152,133
306,8596,36,-1698,-4615,23,-324,-162,134
307,8649,14,-1663,-4618,23,-359,-150,130
308,8630,-23,-1701,-4616,23,-350,-134,140
309,8619,16,-1740,-4642,23,-362,-139,130
310,8602,30,-1695,-4618,23,-345,-155,144
311,8626,11,-1720,-4635,23,-330,-148,136
312,8631,30,-1710,-4620,23,-359,-145,140
313,8598,8,-1740,-4622,23,-345,-153,151
314,8614,-16,-1671,-4612,23,-354,-181,155
315,8617,15,-1655,-4627,23,-349,-156,152
316,8621,-2,-1749,-4607,23,-348,-156,131
317,8651,-21,-1718,-4621,23,-345,-159,143
318,8609,-29,-1678,-4623,23,-334,-145,140
319,8635,8,-1713,-4612,23,-358,-137,145
320,8618,17,-1679,-4612,23,-347,-166,143
321,8654,0,-1703,-4612,23,-330,-156,135
322,8631,18,-1688,-4613,23,-364,-145,143
323,8632,15,-1701,-4632,23,-351,-142,136
324,8700,22,-1703,-4617,23,-347,-154,139
325,8655,37,-1730,-4603,23,-339,-140,140
326,8594,-33,-1690,-4614,23,-360,-156,142
327,8616,7,-1710,-4627,23,-346,-148,132
328,8632,6,-1706,-4615,23,-364,-160,154
329,8647,8,-1694,-4629,23,-337,-166,140
330,8590,-3,-1707,-4611,23,-360,-152,147
331,8643,12,-1665,-4613,23,-344,-140,136
332,8597,17,-1664,-4627,23,-340,-136,145
333,8630,-14,-1676,-4621,23,-350,-144,117
334,8662,16,-1658,-4613,23,-337,-166,124
335,8653,-51,-1705,-4611,23,-346,-133,121
336,8645,18,-1729,-4628,23,-347,-152,126
337,8616,-3,-1741,-4621,23,-342,-139,150
338,8671,32,-1712,-4610,23,-366,-137,144
339,8669,47,-1686,-4624,23,-342,-141,127
340,8674,-17,-1702,-4627,23,-361,-144,129
341,8652,1,-1723,-4614,23,-335,-138,138
342,8644,2,-1710,-4627,23,-340,-173,126
343,8599,-34,-1644,-4609,23,-355,-149,128
344,8619,-27,-1690,-4611,23,-343,-156,148
345,8620,22,-1624,-4627,23,-336,-151,152
346,8645,20,-1641,-4622,23,-330,-139,145
347,8657,15,-1676,-4628,23,-346,-170,133
348,8643,36,-1708,-4625,23,-343,-145,145
349,8658,-32,-1738,-4619,23,-357,-160,144
350,8627,-35,-1709,-4610,23,-349,-150,142
351,8628,11,-1735,-4634,23,-350,-166,143
352,8671,-16,-1678,-4620,23,-340,-155,146
353,8646,-7,-1725,-4618,23,-338,-166,154
354,8595,20,-1701,-4624,23,-343,-154,128
355,8647,-9,-1684,-4628,23,-340,-156,139
356,8647,21,-1694,-4625,23,-365,-146,132
357,8621,1,-1684,-4625,23,-365,-154,157
358,8651,-20,-1715,-4625,23,-342,-149,136
359,8622,49,-1746,-4625,23,-352,-158,151
360,8627,9,-1688,-4626,23,-337,-133,156
361,8601,-51,-1637,-4620,23,-351,-156,136
362,8602,3,-1719,-4620,23,-347,-148,149
363,8628,21,-1693,-4637,23,-351,-148,143
364,8635,8,-1692,-4626,23,-342,-159,128
365,8657,-29,-1697,-4615,23,-335,-138,131
366,8631,30,-1711,-4618,23,-340,-143,148
367,8644,-6,-1661,-4615,23,-346,-141,152
368,8626,46,-1689,-4605,23,-338,-160,137
369,8658,18,-1693,-4613,23,-345,-147,121
370,8648,54,-1702,-4610,23,-362,-152,157
371,8596,-15,-1686,-4628,23,-351,-160,123
372,8647,30,-1707,-4609,23,-339,-156,131
373,8620,-30,-1714,-4616,23,-345,-129,146
374,8627,-24,-1662,-4621,23,-330,-147,145
375,8669,21,-1733,-4639,23,-337,-154,142
376,8635,38,-1748,-4619,23,-337,-161,147
377,8648,1,-1665,-4613,23,-355,-144,130
378,8652,11,-1704,-4623,23,-345,-153,138
379,8672,12,-1670,-4638,23,-334,-162,130
380,8642,-3,-1691,-4632,23,-362,-153,154
381,8643,2,-1659,-4619,23,-341,-143,130
382,8625,10,-1654,-4633,23,-353,-152,143
383,8666,-15,-1643,-4621,23,-347,-156,137
384,8626,-23,-1704,-4626,23,-351,-167,142
385,8602,-6,-1721,-4636,23,-338,-139,139
386,8606,34,-1645,-4619,23,-341,-126,142
387,8613,37,-1670,-4609,23,-336,-165,120
388,8617,28,-1675,-4601,23,-360,-142,152
389,8621,-8,-1704,-4631,23,-346,-163,145
390,8620,18,-1745,-4620,23,-356,-174,136
391,8606,32,-1724,-4635,23,-345,-157,155
392,8646,-8,-1753,-4627,23,-354,-152,136
393,8604,33,-1755,-4620,23,-361,-137,154
394,8618,-25,-1670,-4629,23,-365,-144,123
395,8638,2,-1760,-4625,23,-356,-143,140
396,8620,-21,-1717,-4626,23,-354,-137,146
397,8620,-4,-1681,-4618,23,-350,-156,134
398,8637,26,-1669,-4625,23,-359,-155,135
399,8649,-9,-1744,-4631,23,-340,-160,129
400,8608,-7,-1688,-4610,23,-347,-163,139
401,8641,34,-1676,-4625,23,-350,-140,145
402,8629,-35,-1757,-4620,23,-349,-143,143
403,8648,18,-1703,-4614,23,-344,-158,138
404,8666,-5,-1661,-4613,23,-358,-148,156
405,8677,15,-1730,-4624,23,-320,-169,139
406,8625,14,-1705,-4631,23,-336,-164,136
407,8636,-6,-1684,-4619,23,-349,-144,127
408,8668,12,-1653,-4608,23,-342,-182,132
409,8624,53,-1670,-4625,23,-345,-164,141
410,8612,-11,-1665,-4619,23,-353,-145,157
411,8643,-40,-1676,-4614,23,-329,-140,115
412,8619,2,-1743,-4617,23,-365,-137,148
413,8629,16,-1688,-4623,23,-342,-149,137
414,8629,-4,-1681,-4620,23,-357,-163,157
415,8598,1,-1675,-4616,23,-337,-149,140
416,8622,-20,-1733,-4627,23,-352,-152,156
417,8625,5,-1684,-4620,23,-353,-160,150
418,8671,-53,-1750,-4619,23,-348,-142,138
419,8617,-2,-1691,-4616,23,-355,-156,145
420,8617,15,-1740,-4618,23,-354,-166,144
421,8632,3,-1703,-4625,23,-338,-155,152
422,8611,16,-1698,-4605,23,-342,-144,135
423,8673,39,-1753,-4617,23,-354,-161,149
424,8644,11,-1750,-4625,23,-342,-158,136
425,8679,22,-1681,-4622,23,-345,-163,146
426,8656,-7,-1723,-4615,23,-335,-163,151
427,8642,-7,-1727,-4615,23,-346,-159,142
428,8639,-17,-1721,-4631,23,-328,-151,134
429,8639,-42,-1723,-4623,23,-347,-162,134
430,8685,10,-1736,-4631,23,-339,-155,145
431,8621,-13,-1725,-4611,23,-357,-154,144
432,8634,33,-1694,-4608,23,-338,-149,134
433,8663,25,-1725,-4613,23,-328,-154,142
434,8674,49,-1709,-4626,23,-353,-154,148
435,8625,17,-1676,-4617,23,-326,-124,143
436,8626,-13,-1736,-4610,23,-346,-125,117
437,8662,18,-1787,-4623,23,-348,-159,131
438,8631,1,-1722,-4616,23,-338,-155,134
439,8609,13,-1636,-4615,23,-360,-142,155
440,8626,18,-1696,-4622,23,-358,-157,138
441,8624,30,-1738,-4620,23,-353,-150,131
442,8600,-30,-1666,-4624,23,-349,-136,121
443,8605,-9,-1686,-4632,23,-350,-151,147
444,8644,22,-1645,-4614,23,-349,-155,148
445,8680,11,-1705,-4606,23,-343,-152,125
446,8653,13,-1699,-4609,23,-357,-127,125
447,8629,-38,-1674,-4611,23,-328,-144,143
448,8621,2,-1648,-4616,23,-361,-153,123
449,8612,35,-1668,-4620,23,-345,-156,149
450,8631,-39,-1732,-4618,23,-339,-154,130
451,8659,-30,-1644,-4630,23,-359,-146,160
452,8631,-16,-1702,-4619,23,-345,-153,139
453,8606,-5,-1723,-4619,23,-342,-160,149
454,8610,-2,-1648,-4616,23,-322,-146,133
455,8662,37,-1716,-4622,23,-351,-142,135
456,8646,15,-1692,-4628,23,-335,-150,135
457,8628,-32,-1710,-4615,23,-341,-144,134
458,8627,2,-1683,-4615,23,-334,-151,122
459,8612,33,-1678,-4634,23,-344,-156,134
460,8630,9,-1676,-4618,23,-344,-152,140
461,8612,-3,-1770,-4629,23,-350,-134,135
462,8618,28,-1702,-4622,23,-349,-163,152
463,8683,-2,-1662,-4624,23,-329,-168,143
464,8637,-60,-1668,-4625,23,-344,-160,127
465,8659,-1,-1677,-4623,23,-338,-157,115
466,8649,2,-1715,-4610,23,-338,-131,143
467,8627,-16,-1678,-4617,23,-343,-146,143
468,8606,-30,-1660,-4631,23,-347,-134,138
469,8645,-4,-1727,-4630,23,-343,-153,147
470,8645,34,-1695,-4618,23,-341,-162,131
471,8641,45,-1695,-4610,23,-356,-137,140
472,8635,-23,-1707,-4621,23,-335,-154,148
473,8649,62,-1728,-4621,23,-366,-163,141
474,8633,-35,-1715,-4631,23,-351,-140,141
475,8640,-3,-1689,-4620,23,-340,-164,144
476,8648,-5,-1677,-4622,23,-353,-163,144
477,8601,2,-1694,-4609,23,-357,-164,136
478,8660,21,-1635,-4626,23,-341,-142,130
479,8679,8,-1699,-4639,23,-352,-156,141
480,8672,17,-1727,-4625,23,-370,-147,141
481,8648,53,-1644,-4626,23,-351,-148,136
482,8637,2,-1726,-4622,23,-352,-173,137
483,8626,11,-1686,-4622,23,-360,-168,150
484,8620,4,-1791,-4619,23,-360,-159,124
485,8618,-17,-1692,-4622,23,-339,-160,140
486,8624,43,-1691,-4610,23,-358,-137,144
487,8669,6,-1677,-4622,23,-335,-158,148
488,8635,-22,-1729,-4620,23,-346,-157,138
489,8621,64,-1692,-4623,23,-360,-161,136
490,8641,31,-1685,-4613,23,-358,-155,143
491,8650,47,-1767,-4625,23,-349,-142,143
492,8628,-4,-1682,-4621,23,-346,-159,151
493,8625,-5,-1681,-4617,23,-351,-165,141
494,8632,-55,-1698,-4625,23,-338,-148,130
495,8597,15,-1658,-4639,23,-350,-154,163
496,8660,14,-1748,-4630,23,-339,-158,137
497,8616,-19,-1694,-4619,23,-339,-150,151
498,8640,-7,-1748,-4617,23,-364,-140,149
499,8645,22,-1639,-4617,23,-359,-150,150
500,8594,8,-1725,-4627,23,-353,-147,133
501,8645,-14,-1689,-4611,23,-355,-145,138
502,8626,-26,-1711,-4637,23,-336,-141,127
503,8654,-5,-1712,-4617,23,-334,-161,146
504,8645,-12,-1706,-4621,23,-351,-152,135
505,8667,8,-1637,-4619,23,-363,-164,132
506,8644,0,-1664,-4628,23,-347,-166,133
507,8616,30,-1680,-4616,23,-354,-136,141
508,8653,35,-1660,-4618,23,-351,-151,149
509,8661,26,-1687,-4625,23,-354,-168,141
510,8653,31,-1662,-4613,23,-361,-143,133
511,8637,-20,-1754,-4616,23,-354,-144,120
512,8627,5,-1712,-4626,23,-338,-180,147
513,8651,-6,-1668,-4628,23,-351,-142,135
514,8697,35,-1660,-4623,23,-338,-160,137
515,8596,24,-1647,-4625,23,-339,-151,154
516,8619,0,-1729,-4615,23,-355,-144,151
517,8630,42,-1700,-4613,23,-350,-143,142
518,8624,1,-1695,-4623,23,-352,-156,146
519,8653,-42,-1726,-4634,23,-358,-140,146
520,8636,-20,-1684,-4619,23,-352,-159,162
521,8657,2,-1742,-4622,23,-354,-161,126
522,8632,21,-1657,-4624,23,-335,-178,136
523,8630,17,-1714,-4622,23,-337,-135,135
524,8664,32,-1692,-4624,23,-359,-183,133
525,8654,-12,-1692,-4632,23,-338,-164,116
526,8665,-6,-1672,-4623,23,-348,-154,143
527,8643,-6,-1682,-4602,23,-331,-137,136
528,8623,15,-1708,-4625,23,-351,-157,145
529,8636,-8,-1706,-4616,23,-347,-138,142
530,8673,-32,-1686,-4615,23,-338,-152,148
531,8659,7,-1690,-4620,23,-350,-133,132
532,8633,25,-1690,-4626,23,-348,-148,123
533,8653,8,-1746,-4617,23,-359,-166,138
534,8663,12,-1707,-4634,23,-331,-160,137
535,8639,28,-1675,-4632,23,-366,-151,133
536,8646,21,-1690,-4612,23,-351,-145,143
537,8697,38,-1682,-4618,23,-354,-150,135
538,8609,0,-1777,-4607,23,-343,-152,143
539,8664,-17,-1685,-4619,23,-322,-153,118
540,8665,-32,-1646,-4628,23,-364,-146,133
541,8672,23,-1704,-4627,23,-345,-159,130
542,8645,8,-1706,-4622,23,-335,-147,138
543,8669,9,-1669,-4619,23,-352,-171,163
544,8631,-28,-1729,-4606,23,-351,-132,126
545,8652,28,-1678,-4627,23,-346,-138,144
546,8690,65,-1689,-4625,23,-357,-164,141
547,8613,60,-1725,-4613,23,-344,-165,134
548,8600,-25,-1685,-4630,23,-347,-146,133
549,8636,-6,-1681,-4619,23,-354,-153,135
550,8626,4,-1720,-4624,23,-355,-163,144
551,8664,-3,-1679,-4622,23,-349,-159,130
552,8658,21,-1711,-4632,23,-361,-144,116
553,8642,-20,-1721,-4614,23,-360,-163,156
554,8646,4,-1678,-4631,23,-337,-139,150
555,8642,-11,-1685,-4623,23,-352,-154,136
556,8666,-6,-1699,-4625,23,-340,-141,145
557,8657,-21,-1650,-4615,23,-339,-148,138
558,8628,5,-1660,-4612,23,-357,-171,145
559,8647,38,-1677,-4618,23,-336,-128,146
560,8637,11,-1673,-4616,23,-338,-152,133
561,8613,1,-1745,-4621,23,-341,-143,146
562,8644,-32,-1739,-4604,23,-346,-135,140
563,8647,23,-1690,-4622,23,-343,-140,139
564,8598,48,-1692,-4611,23,-365,-138,138
565,8647,-20,-1673,-4640,23,-322,-148,143
566,8648,-13,-1730,-4629,23,-363,-148,150
567,8665,3,-1719,-4611,23,-349,-134,130
568,8631,-18,-1692,-4617,23,-336,-139,135
569,8634,-40,-1686,-4633,23,-351,-147,158
570,8637,-4,-1718,-4644,23,-355,-151,139
571,8602,26,-1710,-4611,23,-367,-150,134
572,8605,-2,-1664,-4622,23,-347,-154,147
573,8621,-16,-1644,-4615,23,-345,-142,130
574,8642,-4,-1729,-4632,23,-348,-146,143
575,8584,1,-1708,-4629,23,-367,-137,139
576,8650,2,-1718,-4616,23,-355,-153,162
577,8648,-2,-1714,-4630,23,-360,-137,114
578,8610,-26,-1764,-4631,23,-360,-140,135
579,8660,25,-1703,-4636,23,-337,-150,144
580,8628,29,-1668,-4623,23,-363,-162,148
581,8621,-24,-1700,-4620,23,-357,-163,135
582,8635,35,-1692,-4624,23,-353,-143,154
583,8646,-18,-1748,-4621,23,-335,-170,137
584,8642,44,-1637,-4632,23,-330,-154,138
585,8627,-6,-1684,-4630,23,-359,-151,143
586,8658,-26,-1670,-4631,23,-349,-140,131
587,8647,20,-1743,-4626,23,-342,-162,136
588,8630,2,-1696,-4624,23,-339,-141,139
589,8632,-41,-1730,-4617,23,-362,-149,150
590,8622,6,-1702,-4633,23,-339,-142,144
591,8598,2,-1684,-4618,23,-356,-152,160
592,8668,23,-1696,-4623,23,-345,-136,144
593,8628,21,-1689,-4627,23,-348,-164,134
594,8582,-22,-1656,-4623,23,-353,-156,156
595,8667,-2,-1735,-4622,23,-326,-132,148
596,8615,-23,-1688,-4623,23,-348,-160,137
597,8685,0,-1678,-4620,23,-340,-151,131
598,8625,15,-1680,-4615,23,-346,-146,136
599,8621,-27,-1762,-4612,23,-341,-155,141
600,8669,-29,-1715,-4630,23,-331,-153,135
601,8631,-21,-1672,-4620,23,-350,-166,143
602,8631,5,-1702,-4626,23,-337,-141,162
603,8657,23,-1729,-4622,23,-347,-154,140
604,8625,19,-1698,-4619,23,-351,-138,137
605,8642,6,-1751,-4627,23,-357,-168,132
606,8601,3,-1709,-4618,23,-349,-163,137
607,8647,-31,-1713,-4625,23,-342,-133,133
608,8658,-9,-1708,-4630,23,-356,-141,146
609,8621,-50,-1709,-4619,23,-336,-165,138
610,8602,-18,-1698,-4626,23,-343,-165,135
611,8669,35,-1725,-4617,23,-361,-160,140
612,8616,4,-1683,-4623,23,-355,-148,149
613,8661,29,-1711,-4624,23,-360,-163,140
614,8635,8,-1740,-4625,23,-336,-142,144
615,8657,-13,-1704,-4621,23,-347,-155,150
616,8647,-2,-1734,-4622,23,-344,-149,125
617,8652,-2,-1668,-4639,23,-354,-153,151
618,8656,4,-1713,-4631,23,-337,-160,150
619,8642,19,-1659,-4615,23,-344,-140,156
620,8642,30,-1673,-4617,23,-337,-157,142
621,8644,4,-1644,-4616,23,-344,-136,139
622,8615,2,-1669,-4612,23,-341,-162,142
623,8626,-25,-1713,-4612,23,-355,-149,130
624,8621,25,-1639,-4609,23,-358,-140,124
625,8652,21,-1687,-4625,23,-349,-157,136
626,8676,-43,-1716,-4620,23,-350,-145,147
627,8622,21,-1690,-4621,23,-341,-153,133
628,8642,-18,-1630,-4619,23,-337,-164,134
629,8612,13,-1706,-4621,23,-367,-156,144
630,8644,13,-1713,-4605,23,-327,-177,129
631,8628,25,-1669,-4626,23,-358,-156,138
632,8635,-37,-1626,-4629,23,-338,-147,148
633,8627,-29,-1689,-4619,23,-317,-147,136
634,8613,2,-1683,-4627,23,-347,-152,137
635,8589,1,-1749,-4626,23,-344,-155,114
636,8637,17,-1653,-4618,23,-352,-142,150
637,8599,6,-1704,-4607,23,-335,-172,156
638,8597,-5,-1672,-4615,23,-330,-151,127
639,8576,-6,-1654,-4605,23,-342,-147,145
640,8634,-9,-1722,-4624,23,-353,-162,133
641,8658,17,-1700,-4621,23,-356,-154,142
642,8650,8,-1707,-4619,23,-351,-138,126
643,8651,48,-1656,-4620,23,-354,-137,141
644,8699,45,-1731,-4618,23,-347,-163,132
645,8600,28,-1710,-4618,23,-335,-150,147
646,8648,-8,-1714,-4631,23,-354,-167,136
647,8620,18,-1655,-4621,23,-343,-153,142
648,8625,24,-1728,-4627,23,-343,-153,139
649,8637,-5,-1710,-4633,23,-344,-146,162
650,8579,-11,-1680,-4631,23,-341,-138,151
651,8623,33,-1681,-4620,23,-358,-154,148
652,8636,-19,-1683,-4629,23,-354,-146,135
653,8639,3,-1716,-4622,23,-334,-133,135
654,8635,37,-1716,-4626,23,-370,-174,140
655,8623,-6,-1772,-4625,23,-346,-148,129
656,8621,24,-1700,-4608,23,-339,-158,144
657,8612,9,-1708,-4623,23,-350,-150,151
658,8675,12,-1666,-4628,23,-340,-150,140
659,8629,-1,-1742,-4621,23,-346,-143,126
660,8629,-22,-1617,-4611,23,-350,-150,145
661,8573,-31,-1711,-4628,23,-332,-143,139
662,8633,4,-1671,-4617,23,-333,-158,127
663,8652,11,-1717,-4629,23,-347,-153,152
664,8679,5,-1715,-4619,23,-334,-162,129
665,8657,45,-1690,-4620,23,-338,-172,128
666,8625,-7,-1706,-4613,23,-352,-164,154
667,8665,35,-1688,-4610,23,-347,-160,139
668,8639,-2,-1727,-4616,23,-363,-181,128
669,8599,57,-1676,-4626,23,-345,-151,135
670,8654,16,-1697,-4613,23,-363,-145,129
671,8632,-14,-1654,-4630,23,-348,-123,130
672,8651,-19,-1717,-4617,23,-359,-148,126
673,8635,-7,-1713,-4606,23,-343,-140,142
674,8641,26,-1653,-4625,23,-350,-136,133
675,8650,2,-1693,-4628,23,-348,-148,135
676,8676,-20,-1733,-4613,23,-339,-150,135
677,8655,-24,-1732,-4631,23,-349,-159,131
678,8612,-6,-1672,-4612,23,-353,-149,129
679,8613,36,-1662,-4626,23,-342,-156,140
680,8602,-28,-1684,-4608,23,-359,-157,144
681,8682,-29,-1753,-4607,23,-359,-155,125
682,8649,-40,-1707,-4636,23,-351,-146,143
683,8649,-36,-1629,-4619,23,-364,-151,135
684,8637,29,-1705,-4615,23,-328,-169,150
685,8648,-26,-1643,-4625,23,-351,-156,134
686,8623,5,-1751,-4611,23,-332,-167,129
687,8631,-13,-1660,-4620,23,-346,-152,131
688,8658,30,-1718,-4627,23,-359,-144,118
689,8625,54,-1652,-4619,23,-373,-124,127
690,8631,56,-1699,-4629,23,-334,-151,154
691,8619,-34,-1704,-4636,23,-346,-139,148
692,8615,-21,-1674,-4626,23,-333,-143,131
693,8670,3,-1681,-4624,23,-358,-143,143
694,8648,65,-1701,-4618,23,-346,-145,137
695,8629,5,-1685,-4617,23,-344,-135,147
696,8655,-43,-1754,-4619,23,-335,-153,130
697,8605,8,-1671,-4618,23,-367,-153,133
698,8697,-7,-1746,-4628,23,-370,-156,136
699,8665,5,-1663,-4614,23,-336,-139,145
700,8631,10,-1716,-4606,23,-355,-148,124
701,8644,9,-1664,-4614,23,-347,-146,146
702,8686,13,-1666,-4613,23,-358,-131,156
703,8616,22,-1698,-4625,23,-351,-150,152
704,8629,-17,-1683,-4618,23,-343,-157,155
705,8646,-6,-1688,-4613,23,-339,-150,142
706,8616,-9,-1650,-4620,23,-339,-148,143
707,8653,-8,-1704,-4634,23,-345,-142,128
708,8635,10,-1741,-4610,23,-366,-161,138
709,8645,-29,-1684,-4612,23,-345,-149,139
710,8651,-19,-1630,-4626,23,-341,-135,132
711,8617,19,-1728,-4618,23,-326,-159,151
712,8651,23,-1659,-4634,23,-339,-147,127
713,8645,27,-1658,-4615,23,-351,-152,129
714,8639,36,-1718,-4615,23,-352,-153,146
715,8605,4,-1700,-4612,23,-317,-156,123
716,8630,-5,-1722,-4609,23,-350,-153,139
717,8634,12,-1633,-4625,23,-340,-141,150
718,8651,25,-1675,-4623,23,-370,-149,125
719,8623,27,-1665,-4618,23,-350,-147,136
720,8611,38,-1712,-4617,23,-354,-161,127
721,8662,12,-1752,-4612,23,-346,-139,137
722,8686,-18,-1664,-4606,23,-344,-147,140
723,8609,-2,-1655,-4606,23,-353,-148,126
724,8643,16,-1727,-4603,23,-328,-144,130
725,8618,-1,-1669,-4602,23,-353,-159,142
726,8616,15,-1715,-4626,23,-351,-128,139
727,8642,-21,-1649,-4617,23,-355,-150,148
728,8655,-49,-1696,-4612,23,-360,-146,159
729,8600,32,-1688,-4629,23,-335,-138,133
730,8651,1,-1678,-4622,23,-343,-146,126
731,8644,13,-1695,-4612,23,-347,-163,146
732,8611,-12,-1675,-4619,23,-350,-156,148
733,8654,-3,-1732,-4623,23,-341,-163,143
734,8650,-8,-1685,-4610,23,-334,-162,131
735,8633,42,-1649,-4619,23,-349,-149,134
736,8643,24,-1647,-4620,23,-350,-155,132
737,8674,27,-1740,-4622,23,-338,-156,132
738,8643,22,-1685,-4612,23,-346,-172,142
739,8664,-10,-1681,-4625,23,-351,-144,150
740,8649,22,-1711,-4614,23,-346,-152,145
741,8640,16,-1691,-4614,23,-343,-151,145
742,8650,-8,-1615,-4604,23,-342,-158,127
743,8645,-4,-1681,-4616,23,-345,-143,128
744,8675,11,-1682,-4616,23,-347,-145,141
745,8639,37,-1711,-4626,23,-347,-143,139
746,8592,6,-1682,-4620,23,-349,-168,136
747,8662,1,-1685,-4613,23,-339,-133,140
748,8614,0,-1704,-4612,23,-369,-166,136
749,8629,5,-1683,-4621,23,-358,-136,150
750,8637,49,-1700,-4620,23,-341,-171,146
751,8648,24,-1650,-4619,23,-354,-152,140
752,8624,-2,-1687,-4618,23,-332,-150,135
753,8604,-5,-1690,-4630,23,-341,-180,152
754,8647,35,-1627,-4610,23,-349,-155,147
755,8656,-23,-1640,-4623,23,-331,-156,130
756,8639,24,-1719,-4616,23,-345,-143,138
757,8638,16,-1729,-4610,23,-349,-169,131
758,8595,10,-1714,-4621,23,-356,-169,157
759,8639,2,-1723,-4603,23,-355,-157,128
760,8634,-27,-1673,-4617,23,-346,-164,131
761,8632,4,-1669,-4619,23,-352,-150,140
762,8642,-26,-1678,-4621,23,-357,-159,141
763,8664,1,-1711,-4614,23,-344,-149,136
764,8639,17,-1694,-4622,23,-327,-161,137
765,8688,25,-1673,-4607,23,-333,-150,139
766,8638,-1,-1708,-4622,23,-341,-154,142
767,8646,9,-1698,-4625,23,-347,-146,135
768,8678,6,-1681,-4620,23,-359,-162,141
769,8640,3,-1747,-4618,23,-341,-152,154
770,8648,36,-1698,-4612,23,-346,-158,153
771,8618,-13,-1713,-4607,23,-334,-157,128
772,8649,-1,-1687,-4620,23,-343,-140,141
773,8636,11,-1688,-4608,23,-350,-162,142
774,8610,17,-1677,-4611,23,-350,-144,146
775,8631,-9,-1707,-4619,23,-340,-160,134
776,8644,-17,-1655,-4619,23,-339,-159,143
777,8652,13,-1682,-4610,23,-349,-138,154
778,8620,-30,-1696,-4619,23,-345,-150,149
779,8605,11,-1718,-4612,23,-353,-148,147
780,8669,-4,-1648,-4615,23,-336,-159,118
781,8648,29,-1701,-4597,23,-352,-150,145
782,8629,48,-1744,-4615,23,-347,-137,145
783,8648,6,-1706,-4619,23,-346,-134,144
784,8653,2,-1660,-4612,23,-345,-139,159
785,8616,-28,-1672,-4630,23,-335,-140,144
786,8643,45,-1729,-4614,23,-346,-171,140
787,8622,2,-1754,-4610,23,-342,-161,150
788,8623,1,-1704,-4622,23,-354,-150,129
789,8630,2,-1741,-4610,23,-346,-163,131
790,8626,6,-1719,-4615,23,-348,-155,127
791,8664,10,-1664,-4632,23,-341,-166,125
792,8636,8,-1671,-4600,23,-340,-149,144
793,8646,-4,-1736,-4609,23,-346,-154,130
794,8646,26,-1679,-4595,23,-344,-139,155
795,8641,18,-1656,-4620,23,-351,-156,149
796,8634,-3,-1662,-4633,23,-361,-147,139
797,8595,2,-1659,-4622,23,-315,-146,138
798,8594,-22,-1681,-4614,23,-344,-134,146
799,8646,-13,-1735,-4623,23,-342,-155,138
800,8654,-13,-1720,-4614,23,-358,-148,160
801,8636,-9,-1677,-4612,23,-342,-140,140
802,8636,4,-1659,-4614,23,-337,-145,140
803,8623,-11,-1715,-4607,23,-342,-135,139
804,8671,28,-1707,-4614,23,-355,-171,138
805,8643,-11,-1713,-4625,23,-353,-164,161
806,8665,7,-1701,-4605,23,-329,-151,132
807,8644,30,-1729,-4603,23,-342,-148,149
808,8628,-8,-1699,-4614,23,-355,-153,123
809,8603,24,-1737,-4614,23,-355,-167,124
810,8630,-13,-1679,-4620,23,-354,-129,148
811,8614,-24,-1667,-4630,23,-341,-162,141
812,8626,7,-1684,-4625,23,-354,-150,150
813,8590,41,-1689,-4597,23,-339,-143,138
814,8666,-11,-1723,-4613,23,-353,-154,133
815,8651,25,-1638,-4612,23,-345,-142,144
816,8617,36,-1693,-4603,23,-363,-159,152
817,8641,25,-1682,-4621,23,-337,-152,147
818,8645,-1,-1712,-4607,23,-346,-153,144
819,8615,-13,-1690,-4616,23,-332,-145,143
820,8645,5,-1662,-4613,23,-345,-150,152
821,8637,17,-1709,-4613,23,-355,-148,145
822,8637,-18,-1736,-4605,23,-355,-151,142
823,8627,-16,-1749,-4614,23,-339,-152,143
824,8604,35,-1710,-4612,23,-359,-146,139
825,8649,14,-1687,-4617,23,-358,-149,145
826,8645,-15,-1722,-4621,23,-341,-162,130
827,8587,8,-1752,-4614,23,-348,-151,139
828,8633,29,-1704,-4612,23,-358,-148,132
829,8666,13,-1688,-4622,23,-366,-139,138
830,8625,-23,-1639,-4606,23,-349,-160,138
831,8653,-8,-1676,-4625,23,-359,-137,138
832,8655,0,-1696,-4613,23,-366,-146,154
833,8665,44,-1731,-4606,23,-339,-140,136
834,8644,-9,-1672,-4609,23,-365,-148,145
835,8625,19,-1696,-4615,23,-352,-164,125
836,8625,19,-1653,-4629,23,-347,-148,148
837,8648,3,-1755,-4619,23,-351,-143,152
838,8628,9,-1743,-4613,23,-333,-137,143
839,8622,-8,-1717,-4594,23,-347,-160,143
840,8668,2,-1666,-4603,23,-356,-163,137
841,8621,26,-1739,-4610,23,-348,-145,142
842,8668,-4,-1747,-4612,23,-342,-152,135
843,8628,21,-1675,-4620,23,-352,-175,133
844,8653,-43,-1685,-4617,23,-353,-131,150
845,8656,-2,-1702,-4625,23,-350,-170,144
846,8644,-23,-1717,-4614,23,-349,-141,151
847,8655,-7,-1704,-4619,23,-341,-141,126
848,8650,-47,-1663,-4617,23,-339,-153,146
849,8631,-18,-1642,-4615,23,-331,-146,151
850,8621,9,-1676,-4620,23,-363,-159,148
851,8629,0,-1717,-4605,23,-353,-163,153
852,8617,45,-1719,-4605,23,-356,-153,130
853,8668,16,-1700,-4612,23,-341,-143,132
854,8604,17,-1679,-4621,23,-342,-151,133
855,8658,-9,-1719,-4615,23,-361,-151,144
856,8629,27,-1749,-4612,23,-333,-139,140
857,8635,64,-1710,-4613,23,-345,-153,146
858,8654,-35,-1717,-4610,23,-347,-146,160
859,8645,13,-1696,-4606,23,-346,-151,136
860,8643,30,-1711,-4605,23,-335,-167,134
861,8661,-16,-1631,-4626,23,-357,-163,166
862,8671,4,-1647,-4616,23,-351,-164,129
863,8608,17,-1711,-4621,23,-331,-145,138
864,8679,24,-1654,-4620,23,-346,-164,129
865,8637,4,-1713,-4621,23,-330,-146,150
866,8679,-17,-1709,-4629,23,-357,-141,140
867,8655,32,-1773,-4625,23,-355,-154,134
868,8634,44,-1683,-4612,23,-342,-167,150
869,8641,-44,-1684,-4624,23,-331,-157,132
870,8624,-19,-1718,-4623,23,-365,-126,139
871,8660,-11,-1737,-4622,23,-341,-153,123
872,8623,50,-1737,-4614,23,-334,-143,126
873,8650,51,-1710,-4611,23,-345,-150,145
874,8637,23,-1714,-4619,23,-352,-161,126
875,8639,-28,-1692,-4611,23,-344,-145,157
876,8655,1,-1666,-4620,23,-329,-166,149
877,8625,21,-1708,-4619,23,-337,-155,139
878,8632,-21,-1681,-4611,23,-346,-152,136
879,8624,18,-1703,-4611,23,-316,-142,139
880,8663,2,-1686,-4609,23,-354,-163,126
881,8595,34,-1730,-4604,23,-339,-142,143
882,8609,-23,-1689,-4605,23,-360,-133,156
883,8608,-5,-1688,-4611,23,-354,-148,138
884,8632,13,-1652,-4615,23,-347,-142,140
885,8655,8,-1706,-4601,23,-333,-166,132
886,8639,-23,-1680,-4606,23,-340,-177,137
887,8640,15,-1679,-4622,23,-333,-146,131
888,8653,-20,-1708,-4610,23,-353,-141,142
889,8622,-19,-1723,-4615,23,-356,-167,152
890,8651,3,-1686,-4621,23,-328,-142,141
891,8690,-41,-1671,-4607,23,-347,-155,142
892,8599,-31,-1723,-4622,23,-338,-146,134
893,8635,19,-1752,-4613,23,-352,-146,141
894,8628,13,-1712,-4627,23,-353,-154,130
895,8633,-2,-1722,-4621,23,-337,-156,144
896,8655,55,-1708,-4613,23,-362,-156,138
897,8629,-16,-1703,-4622,23,-346,-146,140
898,8668,22,-1651,-4624,23,-343,-158,133
899,8624,-3,-1661,-4621,23,-355,-147,146
900,8649,-15,-1685,-4623,23,-330,-159,131
901,8638,36,-1680,-4626,23,-362,-152,154
902,8627,-11,-1694,-4608,23,-345,-152,153
903,8643,6,-1697,-4616,23,-366,-166,122
904,8590,-16,-1702,-4608,23,-334,-154,152
905,8636,-8,-1680,-4612,23,-352,-150,138
906,8651,24,-1739,-4612,23,-333,-161,150
907,8674,15,-1668,-4624,23,-341,-165,140
908,8653,26,-1682,-4612,23,-349,-153,136
909,8609,6,-1664,-4606,23,-321,-159,129
910,8627,9,-1697,-4615,23,-370,-145,149
911,8603,15,-1746,-4616,23,-347,-156,142
912,8638,41,-1708,-4608,23,-350,-141,159
913,8660,-6,-1646,-4612,23,-333,-156,148
914,8635,-32,-1737,-4611,23,-344,-156,133
915,8601,-21,-1746,-4601,23,-355,-149,128
916,8627,4,-1732,-4633,23,-366,-154,140
917,8645,-12,-1671,-4591,23,-365,-163,123
918,8642,-12,-1678,-4605,23,-356,-148,142
919,8641,40,-1628,-4613,23,-339,-147,143
920,8648,-16,-1749,-4602,23,-353,-143,133
921,8639,-5,-1758,-4616,23,-343,-166,139
922,8633,-34,-1683,-4616,23,-369,-160,147
923,8639,-11,-1663,-4623,23,-350,-141,150
924,8640,23,-1684,-4615,23,-354,-122,148
925,8660,-5,-1677,-4620,23,-344,-135,137
926,8622,42,-1688,-4617,23,-345,-149,125
927,8650,22,-1737,-4616,23,-352,-151,138
928,8631,45,-1692,-4624,23,-351,-145,146
929,8603,-5,-1630,-4620,23,-358,-148,142
930,8609,-7,-1686,-4619,23,-346,-146,145
931,8621,52,-1691,-4603,23,-357,-151,129
932,8625,34,-1696,-4628,23,-338,-146,137
933,8680,14,-1710,-4622,23,-350,-166,136
934,8650,-36,-1699,-4614,23,-350,-145,150
935,8658,15,-1660,-4619,23,-360,-153,127
936,8661,-24,-1637,-4620,23,-353,-149,142
937,8671,19,-1747,-4611,23,-353,-155,134
938,8633,-19,-1659,-4620,23,-347,-141,128
939,8652,26,-1695,-4602,23,-320,-149,136
940,8635,-22,-1665,-4608,23,-354,-155,154
941,8637,38,-1695,-4620,23,-342,-138,134
942,8654,15,-1693,-4608,23,-322,-163,145
943,8642,-26,-1678,-4606,23,-353,-155,137
944,8635,12,-1712,-4619,23,-358,-161,155
945,8609,2,-1659,-4609,23,-362,-151,157
946,8639,29,-1691,-4625,23,-342,-153,143
947,8657,-10,-1711,-4620,23,-343,-138,138
948,8615,-4,-1751,-4611,23,-351,-157,124
949,8647,-17,-1708,-4604,23,-346,-160,120
950,8653,7,-1700,-4613,23,-361,-169,138
951,8613,-37,-1694,-4598,23,-352,-149,144
952,8642,-5,-1655,-4614,23,-326,-161,130
953,8678,-14,-1725,-4616,23,-346,-153,148
954,8607,22,-1695,-4620,23,-335,-134,150
955,8632,36,-1707,-4608,23,-351,-127,121
956,8622,-18,-1749,-4612,23,-342,-151,137
957,8719,-27,-1739,-4607,23,-344,-152,150
958,8662,13,-1701,-4604,23,-341,-154,135
959,8652,-19,-1675,-4611,23,-346,-146,142
960,8636,26,-1705,-4617,23,-367,-151,143
961,8659,18,-1697,-4617,23,-354,-140,139
962,8668,-21,-1639,-4606,23,-338,-154,139
963,8668,16,-1735,-4611,23,-342,-160,157
964,8614,0,-1707,-4614,23,-358,-145,128
965,8629,7,-1631,-4622,23,-348,-151,141
966,8663,21,-1680,-4621,23,-337,-154,153
967,8648,-2,-1696,-4605,23,-345,-175,136
968,8685,2,-1668,-4603,23,-350,-160,145
969,8671,1,-1725,-4609,23,-365,-152,143
970,8599,-12,-1669,-4607,23,-357,-154,133
971,8676,0,-1701,-4621,23,-344,-169,142
972,8620,-34,-1686,-4612,23,-319,-144,136
973,8635,-18,-1692,-4633,23,-349,-148,138
974,8641,-11,-1680,-4605,23,-344,-159,121
975,8645,-37,-1730,-4607,23,-338,-168,136
976,8682,29,-1689,-4605,23,-362,-151,127
977,8598,-5,-1740,-4628,23,-363,-144,139
978,8598,28,-1691,-4612,23,-332,-132,137
979,8594,-31,-1696,-4624,23,-336,-158,135
980,8608,24,-1724,-4616,23,-351,-143,142
981,8667,47,-1736,-4604,23,-346,-162,150
982,8611,6,-1645,-4617,23,-343,-154,142
983,8645,40,-1646,-4619,23,-348,-155,134
984,8615,-1,-1650,-4614,23,-326,-150,143
985,8653,-5,-1727,-4619,23,-337,-152,140
986,8639,-12,-1734,-4617,23,-360,-174,139
987,8632,8,-1641,-4619,23,-333,-146,132
988,8598,54,-1647,-4612,23,-351,-140,138
989,8639,8,-1683,-4630,23,-333,-146,147
990,8644,14,-1724,-4627,23,-361,-136,143
991,8621,34,-1658,-4622,23,-341,-148,151
992,8635,2,-1730,-4618,23,-347,-135,135
993,8643,-26,-1645,-4613,23,-356,-153,126
994,8630,-8,-1669,-4608,23,-338,-136,127
995,8617,15,-1736,-4626,23,-349,-163,144
996,8602,24,-1714,-4618,23,-352,-146,141
997,8613,-18,-1670,-4619,23,-357,-141,146
998,8628,-3,-1631,-4620,23,-359,-145,144
