,acc_X,acc_Y,acc_Z,temp,tempC,gyr_X,gyr_Y,gyr_Z
0,2158,3,-427,-4719,23,-339,-150,137
1,2157,3,-428,-4718,23,-342,-147,137
2,2157,1,-429,-4719,23,-341,-151,136
3,2159,-1,-429,-4719,23,-344,-150,137
4,2159,-1,-428,-4718,23,-343,-146,138
5,2159,-1,-428,-4717,23,-343,-146,136
6,2158,3,-427,-4716,23,-344,-145,139
7,2161,2,-431,-4718,23,-340,-149,137
8,2161,2,-429,-4720,23,-341,-154,137
9,2160,-1,-433,-4719,23,-341,-151,140
10,2162,-3,-432,-4720,23,-338,-146,141
11,2160,-2,-432,-4717,23,-344,-150,143
12,2160,-1,-431,-4721,23,-345,-152,143
13,2159,0,-428,-4721,23,-350,-152,144
14,2160,0,-427,-4723,23,-350,-152,141
15,2162,1,-430,-4724,23,-347,-149,144
16,2160,0,-431,-4719,23,-343,-152,141
17,2161,3,-431,-4720,23,-340,-149,141
18,2160,3,-428,-4719,23,-342,-150,144
19,2159,3,-428,-4719,23,-343,-152,142
20,2156,0,-431,-4717,23,-345,-149,139
21,2156,2,-427,-4717,23,-344,-150,135
22,2158,2,-426,-4714,23,-342,-149,138
23,2156,3,-429,-4717,23,-342,-149,136
24,2158,3,-427,-4716,23,-341,-153,138
25,2159,1,-427,-4720,23,-342,-152,138
26,2160,0,-425,-4720,23,-343,-152,140
27,2160,0,-428,-4718,23,-349,-153,137
28,2160,-1,-426,-4719,23,-348,-153,139
29,2159,0,-425,-4720,23,-345,-152,141
30,2159,2,-426,-4720,23,-344,-152,135
31,2159,4,-426,-4720,23,-345,-149,139
32,2158,4,-428,-4719,23,-340,-151,137
33,2158,4,-428,-4721,23,-343,-150,140
34,2157,2,-429,-4721,23,-342,-151,139
35,2158,3,-427,-4720,23,-341,-157,138
36,2158,2,-425,-4721,23,-341,-157,139
37,2158,0,-426,-4722,23,-343,-157,136
38,2158,0,-427,-4721,23,-342,-157,135
39,2159,1,-431,-4721,23,-343,-153,138
40,2158,1,-428,-4722,23,-341,-148,142
41,2159,0,-427,-4727,23,-344,-151,141
42,2156,0,-428,-4725,23,-342,-150,139
43,2156,0,-427,-4724,23,-341,-148,141
44,2158,1,-427,-4721,23,-343,-146,138
45,2160,-1,-428,-4723,23,-342,-151,138
46,2159,0,-428,-4724,23,-340,-151,139
47,2158,1,-425,-4719,23,-341,-149,139
48,2158,1,-422,-4721,23,-346,-145,137
49,2159,-1,-427,-4723,23,-345,-149,139
50,2160,0,-427,-4721,23,-343,-152,140
51,2158,-1,-430,-4720,23,-336,-150,137
52,2159,-1,-426,-4722,23,-339,-150,136
53,2158,-2,-426,-4721,23,-341,-151,139
54,2158,1,-427,-4722,23,-345,-148,139
55,2159,2,-430,-4722,23,-341,-149,140
56,2159,2,-432,-4721,23,-342,-154,141
57,2158,1,-427,-4722,23,-337,-147,139
58,2158,1,-428,-4722,23,-342,-145,138
59,2158,1,-426,-4721,23,-345,-147,142
60,2160,0,-426,-4719,23,-346,-149,141
61,2158,0,-429,-4722,23,-346,-148,137
62,2157,-1,-431,-4721,23,-345,-154,139
63,2156,1,-428,-4718,23,-345,-152,139
64,2157,2,-428,-4719,23,-346,-154,139
65,2158,3,-427,-4721,23,-343,-151,141
66,2158,2,-427,-4721,23,-342,-153,139
67,2158,3,-431,-4719,23,-346,-154,140
68,2160,2,-430,-4716,23,-344,-150,136
69,2160,0,-431,-4720,23,-340,-151,136
70,2159,1,-429,-4722,23,-342,-151,141
71,2159,2,-426,-4723,23,-349,-151,141
72,2158,2,-428,-4720,23,-346,-155,140
73,2158,1,-430,-4721,23,-343,-155,144
74,2157,2,-431,-4720,23,-340,-153,139
75,2158,2,-433,-4723,23,-339,-154,141
76,2160,0,-436,-4721,23,-338,-149,139
77,2158,-2,-433,-4721,23,-340,-150,135
78,2158,1,-432,-4720,23,-341,-157,136
79,2159,2,-433,-4719,23,-338,-153,137
80,2159,1,-432,-4720,23,-340,-152,137
81,2159,1,-430,-4721,23,-343,-151,138
82,2160,1,-428,-4718,23,-340,-150,138
83,2158,1,-427,-4719,23,-342,-147,135
84,2159,3,-428,-4719,23,-342,-148,135
85,2158,2,-431,-4722,23,-344,-150,140
86,2159,1,-430,-4726,23,-343,-149,144
87,2160,0,-430,-4724,23,-337,-148,144
88,2160,0,-427,-4721,23,-338,-149,143
89,2159,1,-426,-4720,23,-341,-148,138
90,2160,3,-429,-4716,23,-346,-149,141
91,2160,3,-427,-4716,23,-345,-153,139
92,2159,2,-427,-4717,23,-341,-149,142
93,2159,1,-428,-4715,23,-340,-152,141
94,2159,2,-427,-4714,23,-341,-153,136
95,2157,1,-426,-4718,23,-338,-152,134
96,2159,1,-424,-4719,23,-342,-155,133
97,2161,0,-426,-4721,23,-347,-158,135
98,2160,0,-430,-4721,23,-342,-156,136
99,2159,1,-431,-4720,23,-340,-153,135
100,2158,1,-435,-4720,23,-342,-156,138
101,2157,0,-433,-4717,23,-342,-147,140
102,2156,-2,-433,-4716,23,-342,-145,145
103,2154,-1,-430,-4724,23,-340,-151,144
104,2155,2,-429,-4722,23,-344,-150,140
105,2156,2,-428,-4720,23,-345,-149,137
106,2156,1,-429,-4720,23,-340,-146,134
107,2156,2,-431,-4718,23,-342,-147,137
108,2157,2,-431,-4717,23,-338,-147,139
109,2158,4,-432,-4721,23,-338,-148,136
110,2158,2,-431,-4720,23,-339,-149,141
111,2160,4,-431,-4718,23,-338,-151,139
112,2159,2,-429,-4720,23,-344,-148,137
113,2158,1,-428,-4722,23,-347,-148,138
114,2157,5,-428,-4721,23,-343,-154,142
115,2159,2,-429,-4722,23,-342,-153,141
116,2158,1,-427,-4719,23,-347,-155,139
117,2158,0,-427,-4721,23,-345,-155,141
118,2158,0,-426,-4723,23,-345,-151,140
119,2158,0,-426,-4721,23,-346,-150,141
120,2156,0,-426,-4720,23,-345,-149,143
121,2159,0,-429,-4721,23,-347,-149,142
122,2160,2,-432,-4718,23,-343,-151,138
123,2159,1,-432,-4718,23,-346,-148,137
124,2158,5,-431,-4719,23,-344,-150,140
125,2157,3,-431,-4720,23,-340,-152,139
126,2158,4,-429,-4716,23,-342,-151,138
127,2156,4,-433,-4719,23,-341,-149,136
128,2159,3,-429,-4717,23,-344,-149,139
129,2158,1,-432,-4714,23,-346,-151,137
130,2159,2,-429,-4714,23,-346,-152,139
131,2158,1,-431,-4716,23,-348,-153,138
132,2157,-1,-431,-4717,23,-345,-154,141
133,2155,-2,-431,-4721,23,-346,-154,139
134,2157,0,-432,-4722,23,-341,-153,140
135,2155,0,-433,-4723,23,-342,-156,137
136,2155,4,-433,-4719,23,-339,-151,140
137,2156,3,-429,-4720,23,-339,-150,137
138,2159,2,-430,-4720,23,-341,-150,137
139,2159,1,-428,-4721,23,-342,-150,137
140,2158,1,-428,-4718,23,-344,-152,139
141,2159,1,-431,-4719,23,-341,-156,138
142,2158,0,-427,-4721,23,-341,-156,139
143,2158,4,-424,-4722,23,-340,-152,139
144,2158,6,-424,-4722,23,-340,-153,141
145,2158,4,-426,-4722,23,-343,-150,139
146,2157,2,-425,-4722,23,-343,-144,137
147,2160,2,-426,-4721,23,-345,-145,135
148,2159,2,-426,-4721,23,-342,-153,135
149,2160,1,-426,-4717,23,-342,-152,137
150,2158,1,-429,-4720,23,-340,-148,135
151,2159,1,-431,-4719,23,-344,-148,139
152,2158,-1,-428,-4721,23,-343,-150,137
153,2160,1,-425,-4720,23,-344,-152,139
154,2157,2,-427,-4721,23,-345,-149,138
155,2156,-1,-429,-4722,23,-342,-147,136
156,2159,1,-428,-4719,23,-341,-144,140
157,2160,0,-431,-4718,23,-341,-150,145
158,2157,2,-427,-4720,23,-343,-152,143
159,2158,1,-428,-4719,23,-341,-153,144
160,2159,-1,-429,-4718,23,-341,-150,143
161,2158,-2,-429,-4719,23,-345,-150,141
162,2159,-3,-429,-4718,23,-335,-150,142
163,2159,-2,-427,-4717,23,-343,-153,140
164,2159,-1,-427,-4717,23,-346,-155,144
165,2159,-2,-425,-4718,23,-346,-156,144
166,2159,2,-426,-4720,23,-347,-157,143
167,2157,0,-429,-4719,23,-346,-157,140
168,2157,-1,-427,-4717,23,-349,-153,138
169,2156,0,-427,-4719,23,-344,-152,139
170,2156,-2,-430,-4719,23,-342,-150,142
171,2159,-1,-431,-4720,23,-341,-151,136
172,2160,-3,-430,-4721,23,-341,-151,134
173,2157,1,-426,-4721,23,-339,-152,137
174,2157,1,-428,-4719,23,-341,-150,137
175,2159,1,-428,-4718,23,-337,-152,136
176,2159,2,-426,-4720,23,-342,-152,134
177,2160,0,-428,-4717,23,-341,-151,137
178,2159,2,-429,-4714,23,-341,-153,134
179,2159,2,-428,-4716,23,-343,-149,133
180,2159,-1,-430,-4716,23,-341,-150,138
181,2159,0,-427,-4715,23,-341,-153,142
182,2161,0,-427,-4716,23,-343,-149,137
183,2161,0,-426,-4718,23,-341,-149,138
184,2158,1,-427,-4720,23,-345,-147,137
185,2159,1,-424,-4720,23,-342,-148,140
186,2159,1,-427,-4720,23,-343,-155,139
187,2157,1,-428,-4717,23,-341,-151,138
188,2156,1,-427,-4716,23,-342,-152,138
189,2160,1,-425,-4716,23,-343,-152,139
190,2159,1,-427,-4717,23,-344,-149,139
191,2158,1,-429,-4713,23,-344,-149,136
192,2159,2,-426,-4715,23,-348,-152,136
193,2157,1,-429,-4716,23,-342,-150,136
194,2158,1,-426,-4717,23,-342,-150,136
195,2156,1,-427,-4718,23,-343,-150,134
196,2158,-2,-429,-4716,23,-342,-149,137
197,2158,-2,-431,-4716,23,-343,-151,134
198,2158,-2,-429,-4718,23,-345,-154,136
199,2158,1,-430,-4718,23,-346,-154,136
200,2158,2,-427,-4718,23,-346,-150,139
201,2158,2,-430,-4716,23,-341,-151,139
202,2156,1,-432,-4715,23,-342,-149,138
203,2157,1,-429,-4716,23,-344,-149,140
204,2157,0,-428,-4718,23,-348,-145,144
205,2159,-1,-427,-4720,23,-348,-153,143
206,2160,-2,-430,-4718,23,-346,-149,140
207,2161,2,-432,-4719,23,-349,-152,140
208,2160,1,-431,-4718,23,-346,-155,142
209,2159,2,-432,-4718,23,-344,-153,139
210,2159,3,-430,-4716,23,-344,-151,137
211,2159,3,-431,-4716,23,-344,-154,139
212,2160,5,-432,-4721,23,-345,-151,139
213,2158,5,-431,-4719,23,-346,-152,140
214,2156,5,-429,-4717,23,-345,-156,140
215,2158,3,-431,-4717,23,-343,-154,138
216,2158,3,-430,-4717,23,-342,-154,138
217,2157,2,-432,-4723,23,-339,-155,139
218,2158,2,-432,-4722,23,-342,-156,137
219,2158,1,-430,-4720,23,-345,-152,140
220,2158,2,-427,-4721,23,-342,-151,139
221,2156,0,-426,-4722,23,-347,-154,140
222,2159,0,-426,-4720,23,-342,-151,139
223,2158,1,-427,-4721,23,-344,-151,141
224,2157,2,-429,-4722,23,-337,-154,142
225,2158,2,-427,-4721,23,-338,-156,143
226,2157,1,-429,-4724,23,-343,-158,142
227,2158,1,-428,-4720,23,-343,-157,137
228,2157,1,-426,-4722,23,-345,-157,139
229,2156,-1,-426,-4723,23,-339,-152,143
230,2158,0,-424,-4720,23,-346,-150,137
231,2157,1,-428,-4719,23,-343,-151,136
232,2156,1,-429,-4720,23,-346,-153,136
233,2155,3,-428,-4720,23,-342,-151,141
234,2156,1,-425,-4721,23,-347,-148,142
235,2159,-1,-428,-4719,23,-349,-151,138
236,2159,0,-427,-4719,23,-341,-149,137
237,2159,1,-427,-4718,23,-339,-145,140
238,2161,1,-430,-4718,23,-337,-149,138
239,2161,4,-430,-4720,23,-339,-150,138
240,2158,4,-430,-4719,23,-338,-149,139
241,2158,2,-429,-4718,23,-341,-150,141
242,2157,-1,-430,-4719,23,-343,-153,141
243,2155,-2,-428,-4719,23,-339,-153,139
244,2157,0,-428,-4722,23,-340,-149,140
245,2158,0,-428,-4718,23,-340,-147,137
246,2159,-1,-426,-4719,23,-348,-148,136
247,2160,3,-427,-4716,23,-344,-150,139
248,2157,2,-428,-4716,23,-346,-157,142
249,2158,1,-427,-4718,23,-346,-154,140
250,2157,-1,-429,-4718,23,-346,-153,139
251,2157,-1,-428,-4717,23,-344,-152,136
252,2158,0,-432,-4716,23,-344,-150,140
253,2158,0,-432,-4719,23,-345,-153,141
254,2159,2,-430,-4720,23,-344,-153,143
255,2159,1,-430,-4717,23,-342,-155,140
256,2159,1,-427,-4715,23,-342,-154,138
257,2158,2,-428,-4718,23,-344,-151,137
258,2161,2,-426,-4720,23,-346,-149,135
259,2162,2,-430,-4720,23,-341,-147,135
260,2160,3,-428,-4717,23,-340,-149,135
261,2159,3,-428,-4717,23,-342,-150,139
262,2159,3,-428,-4715,23,-344,-151,138
263,2158,2,-426,-4713,23,-344,-149,138
264,2159,0,-426,-4717,23,-342,-146,136
265,2160,0,-426,-4718,23,-347,-149,134
266,2159,1,-430,-4717,23,-344,-149,137
267,2160,3,-430,-4715,23,-347,-152,139
268,2159,3,-431,-4715,23,-347,-152,137
269,2160,4,-429,-4715,23,-346,-153,137
270,2158,4,-427,-4719,23,-342,-153,138
271,2158,4,-428,-4716,23,-347,-150,139
272,2158,4,-429,-4714,23,-344,-152,139
273,2160,2,-430,-4714,23,-342,-157,139
274,2159,2,-431,-4711,23,-342,-153,140
275,2159,3,-429,-4716,23,-348,-152,143
276,2159,3,-429,-4717,23,-343,-151,140
277,2160,3,-430,-4716,23,-339,-153,133
278,2159,0,-428,-4715,23,-339,-154,136
279,2161,-1,-428,-4715,23,-340,-156,137
280,2161,2,-432,-4713,23,-334,-155,136
281,2159,1,-429,-4716,23,-338,-157,135
282,2157,2,-425,-4716,23,-335,-156,130
283,2158,2,-427,-4714,23,-337,-153,135
284,2158,0,-425,-4717,23,-340,-157,139
285,2159,1,-423,-4718,23,-343,-155,133
286,2157,2,-425,-4720,23,-345,-154,138
287,2156,1,-426,-4717,23,-347,-149,136
288,2157,0,-430,-4716,23,-346,-150,135
289,2157,0,-430,-4717,23,-347,-151,138
290,2158,0,-426,-4716,23,-341,-151,137
291,2158,1,-427,-4719,23,-341,-153,139
292,2159,1,-430,-4713,23,-342,-154,143
293,2157,4,-429,-4711,23,-345,-156,142
294,2157,2,-432,-4712,23,-344,-152,140
295,2157,-1,-430,-4712,23,-346,-156,139
296,2157,2,-432,-4712,23,-346,-157,138
297,2158,0,-435,-4716,23,-349,-155,143
298,2156,1,-433,-4715,23,-346,-152,141
299,2157,4,-435,-4719,23,-344,-153,140
300,2158,3,-434,-4718,23,-347,-153,141
301,2158,1,-434,-4719,23,-347,-152,139
302,2160,1,-434,-4718,23,-347,-151,143
303,2161,2,-433,-4720,23,-345,-150,138
304,2160,2,-429,-4717,23,-345,-151,142
305,2161,4,-426,-4717,23,-347,-153,143
306,2160,5,-429,-4718,23,-347,-151,144
307,2159,5,-430,-4717,23,-347,-155,146
308,2157,1,-430,-4718,23,-347,-154,146
309,2159,1,-430,-4718,23,-346,-147,144
310,2157,-2,-427,-4718,23,-345,-147,142
311,2157,-2,-428,-4718,23,-347,-153,141
312,2159,0,-429,-4719,23,-352,-150,139
313,2160,2,-431,-4720,23,-351,-153,145
314,2160,0,-431,-4718,23,-350,-152,140
315,2158,2,-428,-4717,23,-348,-149,136
316,2158,2,-432,-4718,23,-349,-156,137
317,2158,0,-429,-4715,23,-346,-148,135
318,2157,0,-431,-4716,23,-343,-148,134
319,2159,0,-431,-4719,23,-340,-152,133
320,2159,2,-434,-4717,23,-344,-149,133
321,2158,0,-434,-4720,23,-346,-149,133
322,2159,0,-432,-4719,23,-346,-154,137
323,2159,0,-432,-4720,23,-345,-149,133
324,2158,0,-432,-4718,23,-341,-151,133
325,2159,-1,-433,-4718,23,-341,-153,134
326,2160,0,-434,-4718,23,-341,-157,132
327,2160,0,-429,-4720,23,-339,-153,130
328,2158,0,-431,-4719,23,-339,-152,137
329,2161,1,-430,-4718,23,-340,-153,135
330,2159,1,-427,-4720,23,-338,-155,133
331,2159,0,-430,-4717,23,-341,-156,133
332,2160,-1,-426,-4716,23,-341,-156,137
333,2160,0,-425,-4715,23,-344,-155,138
334,2159,1,-427,-4716,23,-343,-155,141
335,2157,2,-430,-4714,23,-345,-156,142
336,2158,0,-435,-4716,23,-346,-153,137
337,2159,0,-435,-4717,23,-345,-153,134
338,2159,3,-434,-4721,23,-344,-154,137
339,2161,2,-433,-4722,23,-343,-155,134
340,2160,1,-428,-4720,23,-345,-154,134
341,2157,3,-428,-4717,23,-346,-150,130
342,2155,0,-428,-4718,23,-344,-152,130
343,2156,-1,-428,-4716,23,-345,-155,133
344,2157,2,-428,-4716,23,-345,-153,138
345,2158,2,-429,-4719,23,-344,-152,136
346,2158,2,-429,-4719,23,-343,-152,140
347,2159,0,-430,-4719,23,-345,-150,139
348,2156,1,-432,-4715,23,-345,-149,136
349,2155,1,-435,-4714,23,-346,-152,135
350,2160,-1,-432,-4714,23,-348,-152,134
351,2159,-1,-428,-4713,23,-343,-146,137
352,2160,-2,-428,-4716,23,-343,-147,137
353,2159,-1,-425,-4721,23,-349,-149,140
354,2160,-3,-426,-4718,23,-347,-152,137
355,2159,-1,-427,-4719,23,-347,-154,137
356,2159,1,-429,-4718,23,-345,-154,140
357,2158,2,-426,-4716,23,-340,-151,141
358,2158,-1,-427,-4719,23,-341,-147,144
359,2158,1,-427,-4718,23,-340,-152,138
360,2158,-1,-426,-4718,23,-340,-157,135
361,2159,2,-428,-4714,23,-344,-151,130
362,2159,1,-428,-4720,23,-345,-152,135
363,2160,0,-428,-4721,23,-344,-151,135
364,2159,-1,-430,-4721,23,-345,-154,138
365,2159,0,-428,-4724,23,-344,-150,141
366,2160,1,-428,-4723,23,-339,-157,137
367,2159,0,-429,-4724,23,-344,-149,137
368,2158,2,-431,-4720,23,-343,-154,138
369,2159,2,-429,-4719,23,-341,-157,137
370,2160,0,-432,-4720,23,-339,-153,137
371,2159,0,-433,-4719,23,-339,-152,137
372,2160,-1,-431,-4720,23,-344,-151,144
373,2160,0,-431,-4717,23,-344,-149,147
374,2157,-1,-431,-4719,23,-345,-148,145
375,2158,1,-428,-4717,23,-343,-147,144
376,2156,2,-427,-4718,23,-345,-152,141
377,2159,1,-425,-4715,23,-341,-155,139
378,2160,1,-424,-4713,23,-340,-149,142
379,2158,1,-428,-4715,23,-340,-150,141
380,2155,0,-429,-4715,23,-344,-147,140
381,2158,-1,-429,-4715,23,-347,-149,140
382,2158,1,-427,-4717,23,-345,-151,141
383,2159,3,-432,-4717,23,-343,-151,137
384,2161,0,-431,-4715,23,-346,-148,137
385,2161,0,-428,-4714,23,-347,-148,137
386,2160,-1,-429,-4717,23,-343,-149,137
387,2160,2,-428,-4715,23,-345,-152,136
388,2161,1,-427,-4716,23,-341,-152,136
389,2160,1,-429,-4715,23,-344,-155,136
390,2158,0,-426,-4719,23,-339,-157,138
391,2159,0,-430,-4716,23,-342,-154,139
392,2160,-1,-432,-4716,23,-345,-150,140
393,2159,1,-431,-4718,23,-343,-154,139
394,2158,1,-434,-4717,23,-342,-151,136
395,2159,3,-430,-4716,23,-345,-152,140
396,2159,4,-432,-4719,23,-345,-151,140
397,2160,1,-428,-4717,23,-345,-151,143
398,2160,0,-428,-4717,23,-338,-155,138
399,2159,0,-429,-4721,23,-344,-156,143
400,2159,3,-430,-4721,23,-346,-150,142
401,2157,2,-434,-4719,23,-347,-145,141
402,2157,3,-432,-4720,23,-343,-148,139
403,2158,4,-430,-4719,23,-351,-151,140
404,2156,2,-429,-4717,23,-354,-146,141
405,2159,3,-432,-4718,23,-351,-150,140
406,2160,1,-432,-4716,23,-352,-153,144
407,2160,1,-434,-4717,23,-349,-151,147
408,2161,-1,-432,-4718,23,-345,-149,142
409,2159,2,-434,-4716,23,-345,-149,141
410,2160,1,-432,-4715,23,-343,-151,140
411,2157,2,-428,-4714,23,-341,-152,139
412,2157,3,-427,-4716,23,-339,-149,136
413,2159,3,-430,-4715,23,-343,-150,137
414,2158,4,-434,-4717,23,-344,-151,140
415,2158,2,-429,-4715,23,-345,-154,141
416,2158,2,-428,-4716,23,-344,-150,138
417,2157,2,-430,-4714,23,-348,-149,138
418,2158,2,-429,-4714,23,-347,-144,141
419,2156,1,-431,-4714,23,-345,-149,141
420,2157,1,-432,-4714,23,-338,-150,141
421,2158,0,-428,-4712,23,-339,-151,138
422,2160,2,-430,-4715,23,-340,-150,136
423,2158,3,-428,-4715,23,-340,-149,133
424,2157,1,-428,-4715,23,-339,-145,135
425,2160,1,-426,-4716,23,-346,-144,138
426,2161,0,-424,-4715,23,-343,-144,135
427,2162,1,-424,-4715,23,-341,-148,133
428,2161,-1,-423,-4714,23,-346,-148,137
429,2160,0,-425,-4714,23,-345,-147,138
430,2160,2,-429,-4714,23,-345,-149,137
431,2160,1,-430,-4715,23,-341,-151,135
432,2159,-2,-429,-4715,23,-345,-149,140
433,2160,-1,-429,-4718,23,-341,-149,139
434,2159,0,-428,-4714,23,-341,-147,138
435,2160,-1,-428,-4711,23,-340,-150,140
436,2160,1,-428,-4710,23,-338,-153,139
437,2160,3,-430,-4709,23,-341,-152,142
438,2159,1,-432,-4714,23,-341,-153,143
439,2159,-1,-434,-4716,23,-344,-153,145
440,2157,1,-433,-4716,23,-344,-155,146
441,2158,1,-435,-4716,23,-341,-153,139
442,2158,1,-433,-4714,23,-341,-155,141
443,2158,1,-429,-4714,23,-341,-155,140
444,2158,0,-427,-4716,23,-339,-152,144
445,2160,1,-431,-4717,23,-339,-150,144
446,2157,0,-431,-4713,23,-340,-146,145
447,2156,0,-431,-4713,23,-338,-150,143
448,2158,-1,-429,-4712,23,-337,-146,142
449,2158,1,-429,-4713,23,-336,-152,143
450,2161,1,-428,-4713,23,-334,-152,139
451,2159,0,-425,-4713,23,-339,-146,138
452,2156,3,-425,-4714,23,-348,-145,135
453,2154,4,-428,-4712,23,-350,-147,139
454,2157,1,-425,-4717,23,-348,-149,142
455,2157,1,-425,-4717,23,-346,-151,142
456,2155,3,-428,-4714,23,-346,-149,139
457,2155,1,-429,-4716,23,-344,-155,137
458,2157,2,-432,-4716,23,-345,-158,134
459,2160,-1,-431,-4712,23,-341,-155,135
460,2157,-2,-432,-4715,23,-343,-151,134
461,2157,-3,-433,-4715,23,-343,-154,139
462,2157,-3,-431,-4713,23,-346,-157,139
463,2159,-2,-431,-4713,23,-342,-154,139
464,2157,-2,-429,-4718,23,-344,-156,139
465,2155,-3,-430,-4714,23,-344,-151,138
466,2155,1,-431,-4716,23,-348,-149,140
467,2158,0,-428,-4718,23,-347,-151,136
468,2159,0,-431,-4719,23,-342,-152,134
469,2159,0,-426,-4717,23,-340,-148,137
470,2159,2,-428,-4717,23,-343,-150,134
471,2157,2,-429,-4714,23,-342,-147,137
472,2157,2,-430,-4715,23,-343,-155,138
473,2155,1,-428,-4713,23,-340,-155,140
474,2157,2,-430,-4710,23,-342,-154,139
475,2157,3,-430,-4712,23,-344,-153,137
476,2157,1,-428,-4708,23,-344,-148,140
477,2159,2,-428,-4710,23,-341,-147,138
478,2158,3,-431,-4712,23,-341,-143,139
479,2159,2,-430,-4714,23,-341,-149,145
480,2160,1,-430,-4713,23,-341,-151,142
481,2159,1,-431,-4714,23,-343,-145,142
482,2160,0,-432,-4712,23,-342,-150,140
483,2158,0,-431,-4714,23,-342,-153,139
484,2160,0,-433,-4712,23,-345,-152,137
485,2158,1,-432,-4712,23,-345,-152,135
486,2158,1,-429,-4716,23,-344,-151,134
487,2157,-1,-429,-4716,23,-346,-156,135
488,2159,0,-430,-4715,23,-347,-150,137
489,2158,1,-426,-4713,23,-343,-147,140
490,2159,-1,-424,-4713,23,-346,-146,137
491,2158,1,-428,-4710,23,-345,-144,134
492,2158,1,-428,-4714,23,-342,-147,137
493,2158,4,-430,-4718,23,-342,-151,139
494,2157,3,-430,-4717,23,-347,-150,140
495,2158,2,-428,-4712,23,-345,-151,136
496,2159,1,-427,-4712,23,-343,-150,140
497,2158,0,-426,-4708,23,-341,-150,143
498,2157,2,-425,-4710,23,-346,-156,140
499,2156,1,-429,-4709,23,-346,-154,140
500,2157,1,-430,-4710,23,-341,-150,140
501,2159,1,-428,-4714,23,-336,-148,141
502,2158,2,-426,-4715,23,-337,-150,137
503,2157,-1,-426,-4715,23,-343,-155,138
504,2155,0,-426,-4713,23,-343,-152,140
505,2155,1,-426,-4714,23,-341,-152,140
506,2159,0,-429,-4716,23,-343,-157,136
507,2157,0,-429,-4715,23,-338,-155,140
508,2156,1,-429,-4718,23,-339,-151,143
509,2155,3,-430,-4718,23,-342,-154,141
510,2156,3,-429,-4714,23,-344,-157,142
511,2155,4,-427,-4713,23,-340,-156,139
512,2156,3,-427,-4715,23,-340,-155,140
513,2157,3,-430,-4713,23,-341,-154,136
514,2156,2,-431,-4716,23,-346,-157,134
515,2157,2,-430,-4717,23,-350,-155,136
516,2159,3,-432,-4714,23,-346,-157,137
517,2158,0,-432,-4717,23,-344,-153,137
518,2157,2,-432,-4718,23,-344,-150,137
519,2160,0,-430,-4716,23,-342,-151,139
520,2159,-2,-430,-4714,23,-344,-153,138
521,2157,-1,-430,-4713,23,-343,-152,142
522,2157,0,-428,-4714,23,-343,-152,142
523,2158,1,-428,-4714,23,-345,-148,139
524,2157,0,-427,-4713,23,-341,-146,144
525,2157,-2,-431,-4712,23,-343,-155,141
526,2158,1,-433,-4714,23,-346,-155,138
527,2156,0,-434,-4718,23,-345,-155,137
528,2156,2,-432,-4717,23,-341,-154,140
529,2157,-1,-428,-4714,23,-342,-154,139
530,2157,0,-431,-4713,23,-342,-152,140
531,2156,2,-433,-4713,23,-342,-152,137
532,2157,3,-433,-4714,23,-343,-153,137
533,2155,3,-433,-4713,23,-344,-150,136
534,2157,1,-433,-4711,23,-343,-150,139
535,2159,-1,-432,-4713,23,-345,-148,141
536,2160,1,-429,-4715,23,-349,-148,137
537,2160,1,-431,-4714,23,-345,-149,136
538,2159,1,-430,-4715,23,-341,-153,135
539,2157,-1,-431,-4714,23,-338,-150,140
540,2157,-1,-433,-4713,23,-340,-151,140
541,2157,-1,-429,-4712,23,-338,-151,134
542,2158,0,-428,-4710,23,-339,-145,134
543,2156,-2,-430,-4707,23,-341,-146,133
544,2159,-4,-428,-4710,23,-340,-148,135
545,2158,-3,-427,-4712,23,-337,-150,135
546,2158,-2,-431,-4710,23,-339,-146,139
547,2158,1,-430,-4717,23,-338,-152,138
548,2159,0,-427,-4714,23,-341,-156,139
549,2159,2,-430,-4713,23,-341,-153,139
550,2159,1,-431,-4713,23,-342,-156,140
551,2156,0,-430,-4713,23,-341,-157,139
552,2158,2,-430,-4713,23,-343,-157,137
553,2156,-1,-430,-4712,23,-343,-153,135
554,2156,-1,-431,-4715,23,-346,-151,137
555,2155,1,-431,-4715,23,-345,-146,138
556,2156,1,-428,-4715,23,-344,-151,138
557,2157,1,-428,-4717,23,-345,-155,139
558,2157,1,-427,-4718,23,-342,-151,142
559,2158,2,-430,-4717,23,-342,-153,143
560,2159,2,-428,-4715,23,-345,-153,138
561,2160,2,-430,-4714,23,-344,-149,136
562,2158,1,-432,-4714,23,-343,-155,141
563,2158,3,-431,-4712,23,-344,-150,143
564,2157,2,-431,-4717,23,-345,-149,143
565,2158,0,-431,-4714,23,-346,-148,139
566,2158,-2,-431,-4714,23,-343,-152,141
567,2156,-1,-426,-4713,23,-345,-148,137
568,2157,0,-428,-4715,23,-345,-149,138
569,2156,3,-430,-4713,23,-346,-150,139
570,2158,2,-431,-4716,23,-342,-151,138
571,2158,-1,-432,-4713,23,-340,-149,141
572,2159,-1,-431,-4710,23,-342,-150,138
573,2159,1,-431,-4709,23,-339,-148,139
574,2159,2,-429,-4712,23,-341,-154,139
575,2160,-1,-426,-4710,23,-346,-152,140
576,2159,0,-427,-4712,23,-343,-150,136
577,2160,2,-429,-4714,23,-342,-150,137
578,2157,4,-427,-4713,23,-342,-152,137
579,2157,1,-433,-4716,23,-342,-157,138
580,2157,1,-432,-4716,23,-346,-150,138
581,2156,0,-430,-4712,23,-343,-149,141
582,2157,-1,-430,-4714,23,-344,-149,135
583,2157,1,-428,-4716,23,-344,-152,138
584,2158,1,-429,-4716,23,-345,-154,138
585,2158,3,-429,-4717,23,-344,-157,135
586,2158,4,-429,-4718,23,-346,-157,139
587,2160,1,-429,-4717,23,-347,-154,136
588,2159,1,-427,-4713,23,-348,-156,135
589,2157,0,-430,-4715,23,-344,-155,134
590,2158,0,-427,-4713,23,-347,-152,138
591,2159,-1,-429,-4714,23,-346,-151,139
592,2162,0,-426,-4712,23,-344,-149,137
593,2159,1,-427,-4709,23,-342,-154,137
594,2158,2,-432,-4713,23,-339,-153,136
595,2158,0,-437,-4714,23,-338,-151,136
596,2160,-1,-437,-4714,23,-339,-152,136
597,2160,0,-435,-4715,23,-345,-150,136
598,2159,0,-433,-4715,23,-344,-149,137
599,2160,2,-429,-4715,23,-344,-145,140
600,2158,-1,-432,-4715,23,-347,-151,141
601,2158,1,-430,-4717,23,-344,-145,140
602,2157,2,-429,-4714,23,-346,-147,136
603,2158,2,-431,-4712,23,-344,-148,138
604,2158,-1,-431,-4713,23,-344,-149,140
605,2161,-1,-425,-4708,23,-343,-148,135
606,2160,-1,-427,-4713,23,-341,-149,135
607,2160,-1,-428,-4709,23,-346,-153,138
608,2160,0,-430,-4716,23,-345,-154,140
609,2156,1,-430,-4717,23,-345,-156,142
610,2157,1,-431,-4714,23,-347,-157,142
611,2156,2,-431,-4713,23,-349,-154,142
612,2157,2,-428,-4713,23,-348,-156,142
613,2158,1,-432,-4717,23,-349,-155,141
614,2158,0,-432,-4721,23,-349,-155,137
615,2158,0,-427,-4714,23,-347,-149,135
616,2159,1,-429,-4715,23,-345,-148,137
617,2160,-1,-428,-4716,23,-344,-151,137
618,2158,0,-424,-4715,23,-346,-155,134
619,2157,2,-425,-4716,23,-338,-151,137
620,2156,3,-424,-4716,23,-342,-150,135
621,2157,0,-427,-4714,23,-337,-148,139
622,2158,1,-428,-4710,23,-336,-150,140
623,2159,0,-429,-4715,23,-338,-148,139
624,2160,2,-434,-4715,23,-343,-144,139
625,2160,2,-430,-4713,23,-345,-149,140
626,2159,2,-432,-4716,23,-344,-151,139
627,2155,1,-432,-4715,23,-345,-149,139
628,2156,0,-429,-4716,23,-346,-152,140
629,2157,3,-429,-4715,23,-347,-152,137
630,2159,0,-432,-4714,23,-344,-153,137
631,2159,-1,-432,-4711,23,-343,-151,137
632,2161,0,-430,-4711,23,-343,-148,142
633,2160,-1,-433,-4710,23,-344,-151,141
634,2159,-1,-433,-4711,23,-343,-154,144
635,2160,0,-432,-4711,23,-343,-152,144
636,2159,0,-427,-4715,23,-347,-153,140
637,2159,2,-428,-4717,23,-345,-154,140
638,2159,3,-428,-4715,23,-344,-153,138
639,2158,2,-427,-4713,23,-344,-155,137
640,2158,2,-425,-4713,23,-347,-152,143
641,2157,4,-430,-4712,23,-348,-155,142
642,2159,2,-427,-4712,23,-346,-156,142
643,2161,3,-428,-4710,23,-342,-155,140
644,2160,4,-429,-4713,23,-346,-151,138
645,2158,4,-428,-4713,23,-351,-151,140
646,2160,2,-431,-4714,23,-350,-154,137
647,2160,2,-428,-4716,23,-352,-156,138
648,2159,0,-429,-4715,23,-348,-156,137
649,2156,2,-430,-4711,23,-345,-145,137
650,2159,1,-431,-4712,23,-342,-145,136
651,2157,-1,-431,-4712,23,-342,-151,139
652,2159,1,-430,-4714,23,-340,-146,139
653,2160,1,-427,-4714,23,-343,-147,143
654,2160,1,-424,-4713,23,-346,-149,139
655,2160,1,-426,-4713,23,-342,-149,139
656,2158,2,-427,-4713,23,-344,-147,142
657,2160,3,-428,-4711,23,-344,-150,137
658,2160,4,-426,-4711,23,-347,-152,136
659,2156,4,-427,-4714,23,-345,-150,133
660,2157,3,-429,-4713,23,-344,-146,137
661,2157,4,-426,-4713,23,-342,-149,137
662,2156,4,-426,-4713,23,-344,-149,135
663,2157,3,-428,-4714,23,-346,-147,136
664,2158,2,-431,-4712,23,-344,-147,134
665,2156,1,-430,-4713,23,-348,-147,139
666,2160,2,-430,-4713,23,-345,-149,140
667,2161,4,-429,-4711,23,-349,-148,139
668,2160,4,-428,-4715,23,-345,-148,140
669,2158,3,-428,-4712,23,-344,-148,140
670,2158,2,-428,-4712,23,-346,-150,142
671,2161,-1,-429,-4713,23,-339,-150,145
672,2157,-1,-429,-4712,23,-338,-150,143
673,2159,-1,-428,-4714,23,-341,-151,144
674,2160,-3,-429,-4710,23,-338,-149,139
675,2160,-1,-428,-4709,23,-338,-151,137
676,2160,0,-430,-4710,23,-341,-152,138
677,2160,0,-432,-4714,23,-339,-149,140
678,2160,2,-429,-4711,23,-344,-152,138
679,2160,2,-433,-4709,23,-343,-156,141
680,2162,1,-432,-4715,23,-346,-155,139
681,2159,1,-433,-4713,23,-341,-151,140
682,2157,-1,-432,-4710,23,-340,-149,139
683,2156,1,-428,-4713,23,-343,-148,138
684,2157,0,-431,-4718,23,-341,-149,140
685,2158,-1,-432,-4715,23,-342,-152,138
686,2158,0,-430,-4714,23,-346,-157,140
687,2157,0,-430,-4717,23,-346,-153,144
688,2158,3,-426,-4714,23,-347,-151,143
689,2158,2,-429,-4716,23,-349,-149,143
690,2160,3,-428,-4714,23,-346,-153,140
691,2162,3,-431,-4716,23,-346,-157,142
692,2164,1,-431,-4713,23,-345,-153,139
693,2163,1,-431,-4712,23,-343,-151,140
694,2161,1,-430,-4713,23,-345,-152,142
695,2161,1,-430,-4715,23,-342,-151,138
696,2159,2,-430,-4713,23,-348,-153,139
697,2159,3,-427,-4714,23,-346,-153,139
698,2159,0,-425,-4713,23,-345,-153,142
699,2161,1,-426,-4711,23,-344,-158,139
700,2160,0,-426,-4714,23,-344,-154,140
701,2160,0,-427,-4715,23,-348,-153,143
702,2161,2,-426,-4712,23,-346,-153,143
703,2161,1,-429,-4711,23,-349,-151,143
704,2158,2,-432,-4711,23,-346,-150,142
705,2158,2,-429,-4712,23,-347,-152,142
706,2158,2,-431,-4713,23,-345,-150,138
707,2160,0,-433,-4712,23,-348,-149,136
708,2161,-2,-434,-4712,23,-347,-152,137
709,2162,-1,-428,-4713,23,-347,-155,135
710,2161,0,-429,-4713,23,-344,-156,141
711,2159,1,-430,-4715,23,-344,-154,140
712,2159,1,-428,-4715,23,-340,-155,140
713,2159,1,-431,-4715,23,-339,-155,141
714,2160,1,-430,-4713,23,-345,-149,135
715,2158,-1,-429,-4713,23,-345,-148,140
716,2157,0,-427,-4714,23,-343,-150,142
717,2159,0,-426,-4714,23,-345,-154,139
718,2159,0,-428,-4711,23,-347,-153,136
719,2158,1,-431,-4712,23,-341,-151,135
720,2158,2,-430,-4715,23,-345,-144,136
721,2159,3,-429,-4714,23,-341,-148,135
722,2158,5,-429,-4714,23,-347,-151,139
723,2157,2,-431,-4717,23,-347,-147,141
724,2159,0,-431,-4716,23,-342,-142,139
725,2157,1,-433,-4718,23,-339,-147,138
726,2156,0,-428,-4716,23,-341,-148,138
727,2157,0,-431,-4715,23,-342,-151,138
728,2157,1,-430,-4712,23,-342,-152,141
729,2158,1,-428,-4715,23,-342,-151,141
730,2158,0,-427,-4717,23,-340,-150,143
731,2156,1,-428,-4718,23,-344,-155,143
732,2159,2,-430,-4716,23,-346,-153,142
733,2157,2,-429,-4714,23,-344,-154,141
734,2157,2,-427,-4711,23,-345,-151,139
735,2158,1,-428,-4710,23,-347,-155,136
736,2157,1,-429,-4709,23,-342,-153,136
737,2158,2,-430,-4711,23,-342,-149,132
738,2158,1,-429,-4712,23,-343,-151,137
739,2159,1,-429,-4712,23,-340,-150,140
740,2159,1,-433,-4711,23,-342,-157,141
741,2159,1,-431,-4716,23,-340,-155,139
742,2159,0,-431,-4718,23,-336,-151,140
743,2160,0,-432,-4715,23,-340,-150,143
744,2159,-1,-432,-4716,23,-346,-150,141
745,2161,0,-428,-4716,23,-345,-152,141
746,2160,0,-428,-4714,23,-345,-152,141
747,2158,0,-426,-4717,23,-347,-147,140
748,2158,1,-424,-4713,23,-350,-152,140
749,2158,-2,-425,-4714,23,-346,-156,135
750,2159,-2,-423,-4713,23,-343,-153,137
751,2158,0,-424,-4714,23,-343,-153,139
752,2158,-2,-428,-4712,23,-340,-150,140
753,2157,-1,-430,-4712,23,-342,-149,139
754,2158,-3,-430,-4712,23,-344,-147,139
755,2159,-3,-432,-4712,23,-343,-148,139
756,2157,-2,-431,-4713,23,-342,-147,138
757,2159,0,-429,-4715,23,-341,-156,140
758,2161,1,-429,-4714,23,-340,-149,138
759,2162,0,-428,-4711,23,-341,-150,137
760,2162,2,-431,-4714,23,-345,-150,138
761,2159,0,-429,-4713,23,-344,-151,136
762,2160,2,-430,-4710,23,-344,-149,136
763,2158,2,-430,-4710,23,-344,-150,135
764,2157,2,-427,-4713,23,-345,-148,137
765,2158,0,-429,-4712,23,-342,-149,141
766,2158,1,-427,-4716,23,-343,-154,141
767,2157,1,-431,-4716,23,-343,-158,143
768,2158,3,-430,-4716,23,-343,-157,139
769,2159,2,-430,-4714,23,-339,-153,139
770,2157,2,-434,-4711,23,-344,-153,141
771,2159,2,-430,-4712,23,-344,-151,141
772,2158,3,-433,-4712,23,-345,-150,144
773,2158,1,-430,-4709,23,-347,-151,143
774,2158,3,-430,-4708,23,-349,-150,143
775,2158,1,-430,-4711,23,-343,-147,139
776,2158,1,-430,-4710,23,-343,-147,139
777,2160,-1,-428,-4709,23,-342,-147,139
778,2160,-1,-427,-4707,23,-343,-146,140
779,2160,1,-427,-4711,23,-343,-147,140
780,2159,1,-424,-4710,23,-345,-150,137
781,2157,1,-426,-4710,23,-343,-152,139
782,2157,3,-429,-4712,23,-346,-154,141
783,2158,2,-429,-4713,23,-345,-151,144
784,2160,-1,-433,-4715,23,-346,-148,139
785,2160,0,-430,-4717,23,-346,-153,140
786,2161,3,-430,-4715,23,-347,-153,143
787,2158,4,-431,-4717,23,-348,-153,143
788,2159,3,-430,-4714,23,-348,-152,145
789,2156,3,-430,-4711,23,-348,-154,138
790,2158,5,-429,-4713,23,-347,-152,138
791,2157,4,-430,-4713,23,-345,-149,138
792,2157,2,-429,-4713,23,-343,-152,137
793,2158,1,-431,-4713,23,-342,-148,137
794,2159,1,-429,-4710,23,-340,-150,139
795,2160,0,-430,-4711,23,-342,-149,140
796,2159,0,-430,-4709,23,-345,-148,137
797,2159,1,-429,-4710,23,-340,-147,137
798,2158,3,-427,-4711,23,-337,-149,139
799,2157,4,-428,-4716,23,-338,-145,139
800,2158,3,-425,-4715,23,-341,-146,139
801,2159,3,-428,-4714,23,-345,-146,139
802,2160,3,-429,-4711,23,-344,-147,140
803,2160,2,-425,-4711,23,-347,-149,140
804,2159,2,-426,-4711,23,-347,-155,141
805,2157,0,-424,-4708,23,-345,-155,144
806,2157,-1,-427,-4708,23,-343,-157,143
807,2159,1,-431,-4712,23,-344,-156,138
808,2161,1,-428,-4709,23,-346,-156,138
809,2159,2,-430,-4711,23,-345,-151,136
810,2161,2,-433,-4712,23,-345,-150,136
811,2160,1,-430,-4715,23,-343,-150,138
812,2159,1,-430,-4713,23,-344,-150,137
813,2160,2,-428,-4713,23,-340,-153,137
814,2161,4,-428,-4714,23,-340,-154,138
815,2162,5,-432,-4715,23,-339,-154,138
816,2161,2,-429,-4714,23,-338,-153,139
817,2160,1,-433,-4711,23,-341,-146,140
818,2160,2,-430,-4711,23,-343,-144,142
819,2160,1,-432,-4711,23,-340,-143,142
820,2160,2,-429,-4715,23,-341,-146,141
821,2159,3,-427,-4714,23,-345,-150,141
822,2158,1,-424,-4713,23,-350,-152,140
823,2160,0,-427,-4708,23,-347,-155,140
824,2161,0,-427,-4708,23,-347,-150,141
825,2161,1,-423,-4706,23,-342,-152,140
826,2160,4,-424,-4709,23,-345,-149,137
827,2160,3,-424,-4710,23,-345,-153,136
828,2162,4,-423,-4708,23,-342,-151,136
829,2161,2,-425,-4711,23,-341,-150,141
830,2162,0,-427,-4708,23,-343,-151,141
831,2159,1,-429,-4710,23,-344,-149,139
832,2158,1,-426,-4706,23,-344,-144,137
833,2158,1,-425,-4710,23,-343,-145,139
834,2160,-1,-429,-4711,23,-346,-151,140
835,2161,-2,-431,-4710,23,-344,-154,143
836,2159,0,-432,-4711,23,-346,-153,145
837,2157,1,-432,-4707,23,-343,-151,144
838,2159,2,-430,-4707,23,-343,-151,139
839,2158,2,-429,-4707,23,-343,-149,140
840,2157,1,-429,-4708,23,-347,-150,141
841,2156,1,-430,-4709,23,-344,-149,136
842,2157,0,-433,-4709,23,-347,-151,137
843,2156,-1,-429,-4710,23,-341,-144,140
844,2156,0,-428,-4709,23,-341,-146,139
845,2156,1,-427,-4709,23,-339,-150,139
846,2156,0,-426,-4709,23,-341,-148,140
847,2155,1,-427,-4707,23,-344,-160,140
848,2158,-1,-428,-4708,23,-344,-153,137
849,2158,0,-429,-4709,23,-340,-154,136
850,2158,3,-431,-4709,23,-342,-154,133
851,2159,3,-430,-4710,23,-342,-150,138
852,2159,1,-428,-4709,23,-344,-148,139
853,2159,0,-427,-4708,23,-343,-151,138
854,2160,1,-429,-4705,23,-346,-150,138
855,2160,3,-432,-4707,23,-346,-152,140
856,2161,2,-432,-4709,23,-344,-150,134
857,2159,3,-430,-4708,23,-348,-149,135
858,2159,1,-434,-4709,23,-342,-150,136
859,2159,2,-432,-4709,23,-341,-152,139
860,2159,2,-429,-4710,23,-341,-150,140
861,2160,-1,-432,-4710,23,-342,-155,140
862,2159,-1,-432,-4712,23,-340,-155,140
863,2157,-2,-431,-4713,23,-341,-153,141
864,2159,0,-430,-4709,23,-343,-152,139
865,2158,-2,-430,-4708,23,-339,-149,142
866,2156,1,-430,-4709,23,-343,-151,143
867,2158,1,-430,-4711,23,-343,-153,139
868,2160,1,-433,-4710,23,-343,-148,140
869,2158,-2,-433,-4711,23,-344,-146,135
870,2159,-1,-434,-4708,23,-340,-151,135
871,2157,-1,-434,-4708,23,-342,-151,137
872,2156,1,-430,-4710,23,-344,-153,138
873,2156,0,-431,-4712,23,-342,-156,140
874,2159,0,-430,-4710,23,-339,-156,139
875,2161,1,-429,-4712,23,-342,-155,140
876,2159,1,-432,-4708,23,-344,-152,138
877,2161,-1,-430,-4707,23,-341,-153,140
878,2159,1,-429,-4709,23,-349,-153,138
879,2159,3,-425,-4710,23,-350,-150,136
880,2158,1,-428,-4707,23,-349,-151,137
881,2157,0,-428,-4707,23,-346,-149,137
882,2159,0,-427,-4710,23,-345,-153,140
883,2159,0,-429,-4709,23,-345,-151,139
884,2161,2,-428,-4710,23,-347,-150,143
885,2159,2,-430,-4708,23,-347,-152,144
886,2158,0,-429,-4710,23,-345,-155,146
887,2159,0,-428,-4716,23,-342,-152,142
888,2158,1,-429,-4719,23,-344,-146,139
889,2160,0,-430,-4714,23,-341,-148,141
890,2160,-1,-428,-4713,23,-341,-148,141
891,2159,0,-430,-4712,23,-344,-147,141
892,2159,-1,-431,-4710,23,-344,-149,141
893,2161,0,-430,-4710,23,-345,-151,141
894,2160,1,-428,-4709,23,-344,-150,142
895,2160,0,-428,-4710,23,-342,-153,141
896,2160,-1,-431,-4712,23,-344,-153,141
897,2160,2,-429,-4709,23,-344,-154,140
898,2160,2,-430,-4710,23,-344,-157,139
899,2159,2,-431,-4709,23,-343,-155,139
900,2158,2,-429,-4706,23,-341,-150,141
901,2161,3,-430,-4710,23,-345,-152,139
902,2161,3,-431,-4710,23,-344,-154,135
903,2161,2,-427,-4709,23,-344,-149,136
904,2160,2,-428,-4712,23,-346,-152,138
905,2159,0,-427,-4710,23,-344,-149,141
906,2156,0,-428,-4709,23,-342,-149,137
907,2157,0,-426,-4707,23,-341,-149,138
908,2159,0,-427,-4708,23,-343,-150,139
909,2161,-1,-427,-4711,23,-342,-149,139
910,2159,1,-431,-4712,23,-338,-148,141
911,2158,2,-428,-4710,23,-338,-153,139
912,2156,0,-429,-4710,23,-340,-154,139
913,2158,2,-428,-4713,23,-343,-150,140
914,2156,3,-432,-4709,23,-342,-154,140
915,2156,1,-431,-4711,23,-347,-153,139
916,2156,2,-432,-4712,23,-344,-150,133
917,2158,3,-428,-4712,23,-346,-151,133
918,2159,2,-424,-4713,23,-347,-152,134
919,2159,2,-429,-4712,23,-350,-156,136
920,2157,0,-432,-4711,23,-352,-152,138
921,2156,-1,-429,-4711,23,-345,-155,139
922,2157,-1,-429,-4714,23,-341,-154,141
923,2158,-1,-433,-4711,23,-342,-154,140
924,2158,0,-433,-4709,23,-342,-156,141
925,2158,1,-432,-4710,23,-343,-154,140
926,2160,0,-430,-4709,23,-344,-154,139
927,2160,-1,-433,-4710,23,-341,-155,137
928,2160,-2,-434,-4709,23,-345,-154,132
929,2160,1,-434,-4711,23,-344,-155,134
930,2161,0,-435,-4712,23,-341,-156,134
931,2161,1,-428,-4713,23,-343,-155,135
932,2160,1,-431,-4713,23,-341,-150,138
933,2160,1,-429,-4715,23,-346,-145,142
934,2162,1,-430,-4712,23,-344,-147,141
935,2163,0,-434,-4711,23,-347,-152,142
936,2159,2,-430,-4710,23,-347,-154,141
937,2158,3,-430,-4712,23,-349,-153,139
938,2159,3,-431,-4709,23,-349,-150,143
939,2158,1,-428,-4708,23,-345,-151,144
940,2159,-1,-424,-4711,23,-342,-152,144
941,2159,-1,-427,-4711,23,-344,-156,144
942,2158,-1,-427,-4714,23,-346,-155,144
943,2158,-1,-428,-4713,23,-346,-154,139
944,2157,0,-426,-4715,23,-346,-151,140
945,2155,2,-426,-4713,23,-344,-149,139
946,2154,4,-428,-4714,23,-337,-148,138
947,2153,1,-428,-4712,23,-342,-147,138
948,2154,1,-430,-4713,23,-340,-149,140
949,2156,1,-430,-4712,23,-341,-151,139
950,2158,2,-429,-4712,23,-341,-149,138
951,2159,2,-429,-4710,23,-344,-152,141
952,2159,3,-427,-4711,23,-346,-153,139
953,2156,2,-430,-4711,23,-345,-153,141
954,2157,2,-428,-4709,23,-343,-147,141
955,2157,1,-428,-4709,23,-348,-147,135
956,2157,0,-430,-4712,23,-347,-152,140
957,2156,-1,-430,-4711,23,-350,-152,142
958,2158,0,-432,-4710,23,-346,-152,141
959,2157,-2,-433,-4711,23,-343,-150,140
960,2158,1,-430,-4710,23,-343,-151,137
961,2159,2,-428,-4708,23,-346,-155,140
962,2159,0,-427,-4707,23,-344,-154,137
963,2159,-1,-424,-4710,23,-344,-150,137
964,2157,-1,-427,-4713,23,-341,-151,139
965,2157,1,-428,-4710,23,-343,-149,140
966,2159,-1,-430,-4709,23,-343,-151,140
967,2159,-1,-430,-4712,23,-342,-149,139
968,2160,-3,-430,-4709,23,-342,-151,141
969,2160,2,-429,-4707,23,-343,-149,141
970,2159,1,-427,-4709,23,-345,-150,135
971,2158,-3,-428,-4712,23,-343,-152,136
972,2157,-3,-426,-4710,23,-345,-149,138
973,2157,-1,-427,-4710,23,-346,-147,138
974,2159,-1,-430,-4708,23,-347,-148,141
975,2157,0,-430,-4711,23,-344,-147,138
976,2158,1,-431,-4709,23,-346,-148,138
977,2159,0,-427,-4711,23,-344,-148,139
978,2159,1,-429,-4711,23,-344,-149,135
979,2161,3,-430,-4709,23,-344,-150,135
980,2159,0,-430,-4709,23,-342,-149,136
981,2159,1,-430,-4711,23,-343,-151,138
982,2160,-2,-428,-4708,23,-340,-150,139
983,2159,1,-432,-4708,23,-340,-147,139
984,2160,0,-432,-4707,23,-342,-146,140
985,2159,1,-430,-4709,23,-347,-149,139
986,2157,1,-431,-4707,23,-346,-146,140
987,2158,0,-432,-4707,23,-344,-156,138
988,2159,-1,-430,-4707,23,-340,-152,139
989,2158,-1,-431,-4709,23,-337,-150,140
990,2159,0,-429,-4707,23,-338,-151,143
991,2159,-1,-428,-4709,23,-341,-151,140
992,2160,-1,-427,-4707,23,-342,-155,143
993,2159,0,-427,-4706,23,-345,-153,143
994,2159,-2,-429,-4709,23,-346,-155,148
995,2160,-1,-425,-4707,23,-348,-152,142
996,2159,0,-426,-4710,23,-346,-151,139
997,2158,0,-422,-4712,23,-344,-148,139
998,2156,0,-425,-4712,23,-345,-145,138
