,acc_X,acc_Y,acc_Z,temp,tempC,gyr_X,gyr_Y,gyr_Z
0,17282,-42,-3446,-4668,23,-87,-38,34
1,17276,20,-3340,-4658,23,-86,-36,34
2,17304,10,-3478,-4667,23,-87,-38,35
3,17316,8,-3548,-4657,23,-86,-41,36
4,17316,-30,-3366,-4664,23,-87,-37,36
5,17286,32,-3430,-4669,23,-86,-38,37
6,17276,18,-3426,-4665,23,-88,-38,35
7,17248,26,-3444,-4664,23,-86,-37,34
8,17268,-10,-3430,-4671,23,-86,-38,36
9,17280,-26,-3410,-4661,23,-88,-38,33
10,17244,-10,-3418,-4659,23,-89,-39,36
11,17258,-18,-3412,-4667,23,-85,-37,33
12,17274,-52,-3366,-4654,23,-86,-37,35
13,17282,-48,-3384,-4659,23,-88,-38,34
14,17294,-34,-3406,-4659,23,-88,-37,34
15,17282,-24,-3414,-4656,23,-87,-39,33
16,17284,-26,-3416,-4660,23,-86,-36,34
17,17276,-16,-3422,-4662,23,-88,-38,35
18,17274,-10,-3388,-4669,23,-87,-39,36
19,17322,36,-3414,-4660,23,-88,-40,34
20,17234,62,-3388,-4657,23,-86,-37,32
21,17294,-16,-3384,-4661,23,-87,-38,34
22,17310,-16,-3422,-4665,23,-87,-36,31
23,17274,26,-3326,-4665,23,-87,-37,35
24,17268,34,-3394,-4662,23,-87,-37,36
25,17264,26,-3386,-4662,23,-88,-35,36
26,17258,30,-3318,-4666,23,-87,-39,34
27,17282,-18,-3330,-4654,23,-87,-38,35
28,17260,30,-3358,-4654,23,-87,-36,37
29,17258,-36,-3400,-4667,23,-87,-36,33
30,17258,-8,-3356,-4665,23,-87,-37,35
31,17284,18,-3424,-4658,23,-87,-40,33
32,17266,-28,-3324,-4667,23,-89,-40,35
33,17280,6,-3416,-4670,23,-86,-41,33
34,17292,0,-3482,-4660,23,-88,-40,33
35,17254,-16,-3454,-4658,23,-89,-38,35
36,17288,2,-3436,-4664,23,-87,-38,35
37,17262,-16,-3422,-4659,23,-86,-36,35
38,17278,-22,-3404,-4659,23,-86,-38,32
39,17320,-30,-3436,-4653,23,-87,-40,31
40,17322,10,-3438,-4655,23,-89,-38,35
41,17302,24,-3420,-4656,23,-85,-39,33
42,17282,-4,-3452,-4664,23,-89,-39,35
43,17280,-28,-3442,-4665,23,-91,-38,31
44,17276,-56,-3460,-4658,23,-84,-37,34
45,17280,-2,-3494,-4667,23,-87,-39,33
46,17262,-26,-3430,-4669,23,-86,-39,34
47,17278,10,-3374,-4663,23,-84,-40,34
48,17238,30,-3406,-4663,23,-88,-39,36
49,17242,24,-3438,-4659,23,-85,-38,33
50,17280,6,-3418,-4663,23,-87,-39,36
51,17270,-2,-3422,-4662,23,-88,-36,34
52,17268,46,-3468,-4663,23,-88,-34,34
53,17248,34,-3466,-4669,23,-88,-38,33
54,17262,44,-3384,-4660,23,-88,-38,36
55,17292,8,-3436,-4661,23,-89,-38,34
56,17234,42,-3468,-4667,23,-90,-38,34
57,17246,14,-3490,-4667,23,-87,-39,35
58,17276,-8,-3414,-4668,23,-85,-39,34
59,17284,30,-3448,-4661,23,-89,-38,36
60,17280,-22,-3450,-4659,23,-88,-38,36
61,17268,-12,-3380,-4656,23,-86,-39,36
62,17258,-30,-3416,-4663,23,-85,-38,35
63,17330,-8,-3410,-4662,23,-86,-35,37
64,17246,-2,-3432,-4661,23,-87,-36,35
65,17276,-20,-3332,-4659,23,-86,-39,33
66,17268,-22,-3418,-4659,23,-91,-39,35
67,17286,26,-3480,-4659,23,-89,-38,34
68,17260,-28,-3430,-4660,23,-87,-39,34
69,17300,-18,-3342,-4665,23,-86,-37,33
70,17296,0,-3382,-4659,23,-86,-39,36
71,17258,-16,-3406,-4665,23,-85,-37,32
72,17230,-26,-3414,-4667,23,-86,-38,36
73,17252,-16,-3408,-4659,23,-84,-37,37
74,17258,18,-3348,-4662,23,-87,-37,34
75,17240,14,-3406,-4661,23,-84,-37,34
76,17254,-6,-3392,-4670,23,-87,-41,34
77,17272,10,-3456,-4663,23,-87,-37,36
78,17312,-36,-3434,-4665,23,-87,-39,35
79,17262,54,-3422,-4662,23,-85,-39,34
80,17248,34,-3362,-4661,23,-84,-37,34
81,17290,8,-3428,-4666,23,-88,-39,36
82,17310,20,-3462,-4659,23,-88,-38,35
83,17266,46,-3436,-4665,23,-85,-37,35
84,17328,-10,-3408,-4669,23,-87,-39,34
85,17280,-10,-3382,-4660,23,-88,-38,34
86,17284,-14,-3382,-4669,23,-86,-37,34
87,17272,-4,-3446,-4665,23,-87,-34,34
88,17262,38,-3404,-4658,23,-86,-37,37
89,17292,46,-3434,-4660,23,-88,-38,34
90,17306,10,-3424,-4666,23,-89,-39,34
91,17272,24,-3496,-4664,23,-86,-38,36
92,17266,-8,-3504,-4668,23,-88,-38,35
93,17240,30,-3406,-4662,23,-87,-38,36
94,17264,52,-3408,-4664,23,-86,-35,34
95,17274,2,-3398,-4658,23,-88,-38,35
96,17266,-34,-3464,-4661,23,-85,-37,35
97,17246,-4,-3356,-4658,23,-89,-37,33
98,17318,-44,-3416,-4659,23,-89,-39,35
99,17288,-24,-3434,-4661,23,-88,-37,35
100,17262,-8,-3432,-4666,23,-89,-40,33
101,17272,52,-3454,-4663,23,-87,-41,35
102,17250,0,-3388,-4662,23,-88,-37,38
103,17256,14,-3438,-4663,23,-87,-36,33
104,17270,14,-3378,-4670,23,-89,-39,34
105,17292,12,-3418,-4656,23,-88,-40,35
106,17278,22,-3470,-4661,23,-86,-39,34
107,17284,-12,-3438,-4658,23,-88,-37,36
108,17228,-16,-3430,-4659,23,-87,-36,35
109,17244,-48,-3418,-4664,23,-86,-38,34
110,17282,26,-3378,-4665,23,-88,-38,34
111,17284,-14,-3444,-4662,23,-87,-37,34
112,17292,8,-3368,-4670,23,-87,-39,32
113,17298,6,-3418,-4666,23,-87,-37,34
114,17254,56,-3400,-4660,23,-86,-38,34
115,17298,12,-3388,-4659,23,-87,-38,33
116,17272,38,-3446,-4660,23,-85,-39,34
117,17222,-38,-3432,-4658,23,-88,-39,34
118,17284,-10,-3430,-4658,23,-88,-39,33
119,17308,14,-3402,-4662,23,-88,-37,33
120,17274,4,-3390,-4657,23,-87,-39,33
121,17292,62,-3442,-4657,23,-89,-38,38
122,17240,-2,-3404,-4661,23,-87,-37,34
123,17242,82,-3476,-4663,23,-89,-40,34
124,17312,68,-3432,-4659,23,-88,-40,37
125,17302,42,-3478,-4655,23,-87,-37,34
126,17302,68,-3438,-4660,23,-87,-34,35
127,17232,-10,-3454,-4662,23,-84,-38,34
128,17284,-12,-3402,-4665,23,-88,-37,34
129,17314,-2,-3386,-4668,23,-85,-37,34
130,17304,34,-3406,-4653,23,-87,-37,35
131,17254,26,-3420,-4661,23,-88,-37,34
132,17248,26,-3432,-4670,23,-85,-39,34
133,17278,-42,-3420,-4664,23,-89,-36,36
134,17284,-2,-3404,-4661,23,-88,-38,34
135,17252,-8,-3468,-4661,23,-86,-38,37
136,17272,2,-3444,-4656,23,-88,-37,38
137,17296,-36,-3416,-4663,23,-88,-39,34
138,17290,8,-3430,-4665,23,-87,-38,33
139,17288,-4,-3452,-4665,23,-84,-39,35
140,17310,34,-3380,-4661,23,-88,-37,34
141,17278,10,-3436,-4662,23,-87,-38,38
142,17310,-6,-3376,-4653,23,-88,-36,35
143,17304,2,-3452,-4662,23,-89,-38,37
144,17312,-50,-3362,-4659,23,-86,-39,35
145,17280,-18,-3398,-4668,23,-85,-38,33
146,17264,-14,-3400,-4662,23,-88,-39,34
147,17270,-14,-3410,-4665,23,-87,-38,34
148,17292,-12,-3386,-4664,23,-89,-40,36
149,17292,-2,-3370,-4671,23,-86,-38,34
150,17230,-10,-3478,-4663,23,-86,-40,35
151,17258,22,-3424,-4666,23,-88,-40,35
152,17288,18,-3408,-4661,23,-85,-38,34
153,17288,16,-3394,-4662,23,-87,-38,36
154,17286,0,-3474,-4661,23,-89,-40,33
155,17274,-10,-3460,-4658,23,-87,-40,35
156,17270,10,-3478,-4662,23,-87,-38,34
157,17246,-24,-3416,-4659,23,-84,-38,34
158,17246,-22,-3408,-4665,23,-86,-39,36
159,17290,-14,-3392,-4669,23,-87,-40,35
160,17260,26,-3374,-4657,23,-90,-41,33
161,17272,-24,-3428,-4661,23,-86,-38,33
162,17260,6,-3440,-4658,23,-87,-38,33
163,17278,-38,-3384,-4660,23,-89,-37,34
164,17270,-42,-3390,-4661,23,-86,-39,33
165,17302,8,-3366,-4663,23,-88,-39,35
166,17306,-20,-3460,-4665,23,-85,-39,35
167,17318,4,-3416,-4663,23,-83,-39,35
168,17276,2,-3444,-4670,23,-87,-38,33
169,17296,-8,-3344,-4650,23,-87,-38,32
170,17310,44,-3458,-4662,23,-87,-39,36
171,17300,6,-3458,-4665,23,-88,-39,33
172,17264,46,-3418,-4656,23,-87,-38,35
173,17206,46,-3414,-4666,23,-88,-38,36
174,17226,2,-3336,-4669,23,-86,-37,35
175,17318,-10,-3352,-4654,23,-88,-38,33
176,17268,18,-3480,-4664,23,-87,-39,35
177,17272,-14,-3398,-4663,23,-88,-38,33
178,17272,10,-3394,-4659,23,-86,-39,34
179,17288,-24,-3392,-4656,23,-88,-37,34
180,17256,-2,-3346,-4653,23,-87,-37,35
181,17266,-4,-3372,-4663,23,-87,-39,33
182,17232,0,-3426,-4660,23,-90,-39,35
183,17254,8,-3440,-4661,23,-88,-37,33
184,17270,-18,-3374,-4669,23,-85,-38,33
185,17226,-18,-3458,-4662,23,-86,-39,37
186,17290,-20,-3460,-4664,23,-87,-36,35
187,17280,-8,-3414,-4665,23,-87,-36,36
188,17252,34,-3400,-4670,23,-88,-41,35
189,17318,-8,-3404,-4661,23,-87,-37,33
190,17278,-40,-3458,-4663,23,-89,-39,36
191,17270,2,-3416,-4666,23,-86,-38,34
192,17312,16,-3408,-4656,23,-84,-39,36
193,17306,12,-3408,-4663,23,-87,-37,34
194,17294,0,-3422,-4667,23,-85,-39,35
195,17268,0,-3476,-4661,23,-89,-34,36
196,17248,-32,-3342,-4662,23,-88,-38,35
197,17266,2,-3366,-4667,23,-87,-38,34
198,17234,4,-3392,-4669,23,-86,-38,34
199,17266,-4,-3468,-4670,23,-89,-37,36
200,17266,30,-3372,-4663,23,-88,-35,32
201,17274,18,-3394,-4660,23,-87,-39,35
202,17260,6,-3434,-4662,23,-86,-40,34
203,17264,30,-3432,-4661,23,-88,-40,36
204,17232,18,-3498,-4661,23,-88,-39,33
205,17288,38,-3426,-4663,23,-87,-35,33
206,17246,8,-3378,-4659,23,-87,-40,33
207,17302,-44,-3500,-4662,23,-87,-38,35
208,17294,-24,-3432,-4664,23,-86,-38,36
209,17292,-2,-3496,-4665,23,-86,-39,37
210,17252,8,-3440,-4665,23,-89,-38,35
211,17238,-4,-3354,-4663,23,-87,-38,34
212,17272,22,-3390,-4665,23,-86,-39,36
213,17280,6,-3414,-4656,23,-86,-39,34
214,17278,42,-3428,-4659,23,-86,-36,35
215,17264,-22,-3468,-4666,23,-87,-38,35
216,17296,52,-3386,-4660,23,-87,-37,35
217,17256,32,-3494,-4663,23,-85,-38,37
218,17324,18,-3390,-4656,23,-89,-37,36
219,17274,10,-3438,-4657,23,-86,-38,36
220,17288,14,-3412,-4658,23,-86,-41,34
221,17246,-4,-3496,-4660,23,-87,-36,34
222,17298,16,-3520,-4663,23,-86,-36,36
223,17226,32,-3480,-4660,23,-88,-39,35
224,17268,-24,-3374,-4664,23,-88,-38,35
225,17270,-28,-3438,-4661,23,-86,-35,35
226,17268,20,-3376,-4657,23,-85,-37,36
227,17290,-16,-3428,-4659,23,-89,-37,36
228,17288,4,-3466,-4665,23,-86,-37,33
229,17276,52,-3324,-4655,23,-87,-38,35
230,17270,-6,-3450,-4658,23,-86,-38,34
231,17240,0,-3398,-4663,23,-87,-37,36
232,17296,-26,-3382,-4662,23,-88,-40,34
233,17230,-14,-3440,-4662,23,-86,-39,36
234,17288,-12,-3370,-4665,23,-87,-37,36
235,17302,-22,-3342,-4657,23,-88,-39,36
236,17266,-14,-3398,-4667,23,-85,-40,35
237,17272,16,-3354,-4659,23,-86,-39,33
238,17276,12,-3336,-4657,23,-87,-40,35
239,17274,8,-3460,-4664,23,-87,-41,37
240,17278,24,-3416,-4667,23,-88,-40,33
241,17288,-10,-3398,-4658,23,-88,-38,34
242,17276,-20,-3368,-4664,23,-88,-36,32
243,17288,-42,-3396,-4664,23,-86,-40,35
244,17296,-14,-3460,-4662,23,-84,-37,36
245,17262,-2,-3374,-4660,23,-89,-38,35
246,17272,28,-3416,-4652,23,-87,-37,35
247,17280,12,-3456,-4659,23,-90,-37,35
248,17310,60,-3464,-4667,23,-88,-38,34
249,17286,0,-3414,-4660,23,-88,-37,32
250,17266,6,-3372,-4661,23,-87,-38,32
251,17298,-4,-3392,-4663,23,-86,-39,34
252,17274,-34,-3462,-4662,23,-88,-40,34
253,17300,40,-3378,-4658,23,-88,-36,35
254,17268,38,-3420,-4652,23,-88,-37,35
255,17240,-4,-3452,-4659,23,-88,-38,36
256,17276,2,-3436,-4658,23,-87,-37,33
257,17198,-36,-3476,-4669,23,-84,-39,33
258,17266,26,-3400,-4662,23,-86,-38,34
259,17290,0,-3422,-4667,23,-89,-39,33
260,17280,-24,-3414,-4654,23,-87,-36,33
261,17274,-14,-3386,-4657,23,-89,-41,35
262,17302,0,-3394,-4657,23,-87,-36,36
263,17278,16,-3408,-4661,23,-88,-39,37
264,17254,12,-3408,-4664,23,-86,-36,35
265,17274,-4,-3450,-4662,23,-85,-38,33
266,17278,24,-3456,-4660,23,-88,-36,34
267,17266,-30,-3456,-4660,23,-87,-40,34
268,17286,20,-3478,-4662,23,-87,-40,33
269,17286,40,-3474,-4655,23,-84,-35,33
270,17256,8,-3426,-4655,23,-88,-41,32
271,17268,-36,-3380,-4659,23,-88,-39,35
272,17258,-6,-3324,-4657,23,-89,-39,34
273,17266,-4,-3396,-4659,23,-87,-42,34
274,17268,-30,-3434,-4658,23,-86,-40,35
275,17260,52,-3408,-4663,23,-87,-41,36
276,17312,10,-3462,-4657,23,-88,-39,35
277,17286,18,-3416,-4665,23,-88,-40,34
278,17270,-58,-3414,-4655,23,-88,-37,35
279,17298,32,-3398,-4670,23,-87,-41,37
280,17274,36,-3464,-4652,23,-86,-39,35
281,17308,10,-3448,-4656,23,-89,-41,33
282,17270,0,-3442,-4661,23,-89,-38,36
283,17302,20,-3422,-4663,23,-88,-37,35
284,17280,32,-3416,-4663,23,-87,-39,33
285,17288,-2,-3330,-4667,23,-86,-36,35
286,17298,2,-3460,-4656,23,-86,-40,34
287,17294,-34,-3412,-4658,23,-86,-40,35
288,17222,-8,-3376,-4663,23,-87,-40,36
289,17258,-26,-3430,-4651,23,-87,-38,34
290,17262,-4,-3406,-4663,23,-88,-40,35
291,17262,-30,-3404,-4657,23,-88,-38,35
292,17244,20,-3414,-4658,23,-87,-39,36
293,17278,-16,-3402,-4660,23,-86,-39,33
294,17260,4,-3422,-4658,23,-86,-39,33
295,17296,8,-3352,-4660,23,-86,-36,35
296,17294,40,-3358,-4662,23,-89,-39,34
297,17264,4,-3382,-4659,23,-89,-38,35
298,17300,2,-3402,-4654,23,-89,-38,34
299,17286,10,-3446,-4660,23,-88,-40,35
300,17282,-22,-3412,-4662,23,-85,-37,34
301,17286,-30,-3438,-4663,23,-86,-36,35
302,17316,14,-3438,-4663,23,-85,-35,36
303,17274,-22,-3402,-4664,23,-88,-37,34
304,17298,26,-3320,-4666,23,-87,-38,36
305,17258,-2,-3420,-4663,23,-86,-35,34
306,17250,-20,-3432,-4662,23,-88,-39,34
307,17288,52,-3430,-4662,23,-89,-36,34
308,17266,-4,-3454,-4667,23,-86,-36,35
309,17266,0,-3466,-4664,23,-88,-36,33
310,17304,4,-3392,-4662,23,-89,-38,36
311,17314,100,-3278,-4661,23,-87,-42,35
312,17164,-12,-3438,-4665,23,-88,-32,34
313,17316,-68,-3312,-4666,23,-85,-42,36
314,17226,-44,-3408,-4663,23,-84,-35,36
315,17172,-64,-3492,-4663,23,-85,-40,32
316,17240,-28,-3470,-4656,23,-87,-41,35
317,17312,-20,-3530,-4658,23,-84,-38,32
318,17222,28,-3526,-4655,23,-87,-38,33
319,17352,4,-3434,-4653,23,-87,-38,33
320,17308,32,-3448,-4658,23,-85,-36,35
321,17218,62,-3364,-4659,23,-88,-40,34
322,17272,66,-3404,-4658,23,-88,-38,35
323,17304,112,-3372,-4662,23,-88,-37,32
324,17242,64,-3332,-4668,23,-87,-38,34
325,17240,58,-3364,-4661,23,-89,-35,34
326,17334,-12,-3360,-4656,23,-88,-41,34
327,17252,14,-3438,-4658,23,-86,-40,35
328,17256,-58,-3376,-4660,23,-84,-39,35
329,17242,-22,-3366,-4663,23,-87,-39,35
330,17294,-52,-3400,-4668,23,-87,-37,35
331,17232,-24,-3442,-4664,23,-86,-39,36
332,17260,-8,-3352,-4665,23,-87,-37,34
333,17288,16,-3430,-4668,23,-88,-35,34
334,17294,22,-3430,-4666,23,-88,-38,35
335,17294,-38,-3456,-4660,23,-87,-38,36
336,17248,38,-3414,-4663,23,-85,-40,35
337,17280,32,-3412,-4663,23,-88,-38,35
338,17256,46,-3478,-4653,23,-87,-39,35
339,17284,34,-3384,-4661,23,-86,-38,34
340,17298,26,-3424,-4658,23,-86,-37,34
341,17314,18,-3384,-4656,23,-85,-39,35
342,17308,8,-3368,-4654,23,-85,-37,37
343,17320,4,-3386,-4666,23,-88,-37,35
344,17276,-24,-3322,-4656,23,-86,-34,37
345,17280,-28,-3348,-4659,23,-89,-38,35
346,17240,-22,-3324,-4660,23,-86,-41,35
347,17282,-62,-3354,-4663,23,-88,-38,33
348,17266,-32,-3376,-4662,23,-86,-39,33
349,17290,-28,-3340,-4658,23,-86,-40,33
350,17262,-16,-3422,-4664,23,-85,-39,34
351,17252,18,-3386,-4667,23,-88,-38,33
352,17282,0,-3414,-4664,23,-85,-37,33
353,17318,62,-3428,-4661,23,-86,-39,37
354,17284,10,-3442,-4662,23,-89,-38,37
355,17254,-4,-3482,-4662,23,-88,-38,39
356,17288,18,-3448,-4660,23,-88,-36,37
357,17300,30,-3436,-4656,23,-88,-35,34
358,17268,14,-3448,-4663,23,-88,-38,34
359,17280,-6,-3422,-4662,23,-88,-37,35
360,17246,-80,-3410,-4658,23,-90,-38,33
361,17212,-38,-3390,-4664,23,-89,-38,33
362,17294,-40,-3416,-4662,23,-86,-37,33
363,17284,-6,-3368,-4665,23,-87,-37,33
364,17274,-18,-3398,-4662,23,-85,-36,32
365,17278,-14,-3394,-4655,23,-84,-40,35
366,17262,20,-3398,-4659,23,-85,-41,33
367,17252,28,-3432,-4660,23,-87,-41,33
368,17256,6,-3368,-4660,23,-88,-41,32
369,17248,28,-3388,-4661,23,-87,-39,35
370,17290,-24,-3466,-4668,23,-90,-39,33
371,17274,18,-3494,-4664,23,-89,-39,34
372,17256,28,-3414,-4663,23,-87,-38,34
373,17280,28,-3436,-4653,23,-87,-40,34
374,17292,24,-3408,-4663,23,-85,-39,35
375,17224,12,-3476,-4663,23,-85,-38,38
376,17292,-26,-3458,-4659,23,-86,-36,34
377,17264,-24,-3410,-4660,23,-86,-36,37
378,17296,-26,-3442,-4665,23,-88,-38,36
379,17282,-22,-3350,-4661,23,-90,-39,35
380,17274,-20,-3404,-4658,23,-87,-38,36
381,17228,-12,-3374,-4669,23,-84,-38,34
382,17280,28,-3318,-4664,23,-84,-39,34
383,17296,-10,-3316,-4658,23,-86,-37,34
384,17262,36,-3446,-4659,23,-87,-37,35
385,17242,4,-3518,-4654,23,-87,-38,36
386,17268,36,-3442,-4657,23,-87,-39,36
387,17236,64,-3450,-4661,23,-86,-39,35
388,17254,4,-3452,-4660,23,-88,-41,35
389,17288,-4,-3444,-4669,23,-86,-38,35
390,17278,-8,-3428,-4657,23,-86,-38,33
391,17264,-14,-3392,-4660,23,-85,-41,36
392,17246,-8,-3412,-4661,23,-85,-39,33
393,17262,-20,-3438,-4662,23,-87,-36,35
394,17268,-12,-3508,-4664,23,-88,-39,33
395,17236,26,-3410,-4658,23,-88,-39,35
396,17262,0,-3414,-4664,23,-88,-37,32
397,17308,32,-3450,-4665,23,-89,-39,32
398,17264,34,-3444,-4664,23,-86,-37,35
399,17298,12,-3424,-4665,23,-88,-38,35
400,17276,46,-3404,-4663,23,-88,-38,34
401,17258,104,-3428,-4658,23,-86,-39,33
402,17268,30,-3448,-4664,23,-86,-37,34
403,17284,-4,-3442,-4662,23,-84,-39,32
404,17228,2,-3468,-4662,23,-87,-39,34
405,17264,12,-3466,-4665,23,-86,-38,33
406,17260,0,-3388,-4668,23,-84,-40,33
407,17278,12,-3362,-4652,23,-88,-38,33
408,17264,-4,-3400,-4661,23,-86,-38,35
409,17280,-18,-3350,-4658,23,-86,-37,37
410,17228,-46,-3320,-4657,23,-87,-41,35
411,17280,-40,-3414,-4660,23,-87,-41,34
412,17294,-18,-3424,-4658,23,-86,-39,36
413,17242,-42,-3444,-4663,23,-86,-38,36
414,17260,26,-3446,-4657,23,-86,-40,33
415,17266,-34,-3386,-4665,23,-89,-40,31
416,17294,24,-3470,-4657,23,-85,-40,33
417,17308,28,-3434,-4663,23,-87,-39,32
418,17310,-34,-3448,-4663,23,-87,-36,33
419,17278,14,-3384,-4666,23,-87,-41,35
420,17238,4,-3416,-4664,23,-86,-39,36
421,17254,10,-3346,-4657,23,-87,-38,36
422,17272,30,-3354,-4660,23,-87,-37,33
423,17284,32,-3372,-4655,23,-88,-37,34
424,17268,-6,-3318,-4663,23,-86,-40,38
425,17294,10,-3448,-4660,23,-85,-37,35
426,17238,-10,-3454,-4660,23,-88,-38,35
427,17302,-12,-3370,-4655,23,-87,-35,34
428,17272,-56,-3426,-4659,23,-88,-38,34
429,17272,-10,-3436,-4662,23,-85,-39,32
430,17304,6,-3446,-4667,23,-89,-42,33
431,17270,-66,-3414,-4671,23,-85,-38,36
432,17266,-36,-3402,-4656,23,-87,-38,34
433,17248,34,-3408,-4660,23,-85,-37,35
434,17244,46,-3440,-4655,23,-88,-39,35
435,17282,10,-3396,-4667,23,-88,-38,35
436,17302,8,-3428,-4652,23,-87,-40,36
437,17260,-20,-3454,-4658,23,-87,-41,36
438,17284,-20,-3436,-4662,23,-86,-37,37
439,17278,-12,-3424,-4655,23,-86,-39,35
440,17280,-26,-3414,-4666,23,-86,-37,36
441,17266,18,-3410,-4657,23,-88,-38,36
442,17284,4,-3356,-4662,23,-86,-37,35
443,17260,10,-3444,-4655,23,-86,-37,36
444,17294,16,-3472,-4658,23,-86,-37,36
445,17264,-46,-3430,-4662,23,-87,-37,36
446,17286,8,-3424,-4651,23,-85,-39,35
447,17278,28,-3408,-4656,23,-86,-36,35
448,17236,44,-3386,-4664,23,-89,-37,35
449,17266,40,-3460,-4656,23,-86,-37,34
450,17272,44,-3472,-4653,23,-86,-36,34
451,17268,10,-3440,-4662,23,-89,-33,35
452,17282,-32,-3466,-4668,23,-90,-39,33
453,17246,30,-3452,-4662,23,-88,-38,35
454,17276,20,-3362,-4661,23,-83,-37,33
455,17286,-18,-3434,-4659,23,-87,-38,35
456,17258,-42,-3398,-4655,23,-87,-38,34
457,17284,-32,-3416,-4653,23,-85,-39,36
458,17244,-30,-3396,-4658,23,-86,-40,37
459,17240,-62,-3352,-4664,23,-88,-39,36
460,17264,-10,-3384,-4656,23,-87,-38,33
461,17314,22,-3410,-4656,23,-88,-39,32
462,17292,16,-3386,-4666,23,-86,-40,36
463,17290,42,-3412,-4647,23,-88,-38,36
464,17336,2,-3438,-4660,23,-90,-42,35
465,17286,14,-3434,-4664,23,-91,-38,34
466,17262,30,-3440,-4663,23,-89,-38,34
467,17266,10,-3380,-4655,23,-87,-41,33
468,17264,26,-3418,-4659,23,-86,-40,34
469,17288,-22,-3408,-4661,23,-89,-39,33
470,17294,6,-3430,-4658,23,-87,-40,34
471,17278,-16,-3456,-4660,23,-91,-36,34
472,17276,-18,-3404,-4659,23,-86,-37,33
473,17282,6,-3432,-4654,23,-85,-36,35
474,17276,8,-3470,-4658,23,-87,-38,35
475,17256,-48,-3358,-4652,23,-88,-36,36
476,17234,-20,-3408,-4666,23,-86,-36,35
477,17232,-54,-3408,-4659,23,-86,-35,33
478,17304,14,-3428,-4661,23,-86,-38,35
479,17242,42,-3428,-4664,23,-87,-38,36
480,17312,6,-3362,-4664,23,-86,-39,33
481,17312,40,-3410,-4665,23,-87,-36,34
482,17274,8,-3432,-4665,23,-90,-39,33
483,17278,18,-3476,-4661,23,-87,-39,34
484,17276,-14,-3490,-4651,23,-89,-38,33
485,17264,-26,-3478,-4662,23,-89,-38,36
486,17284,14,-3492,-4665,23,-87,-40,35
487,17306,30,-3432,-4656,23,-86,-35,36
488,17248,4,-3458,-4655,23,-88,-38,34
489,17234,-2,-3410,-4653,23,-83,-38,35
490,17272,24,-3406,-4660,23,-84,-38,33
491,17280,-38,-3394,-4662,23,-86,-37,34
492,17264,-32,-3394,-4656,23,-87,-39,34
493,17292,0,-3436,-4658,23,-87,-39,33
494,17244,8,-3456,-4665,23,-88,-37,33
495,17246,8,-3494,-4662,23,-87,-38,33
496,17246,20,-3390,-4655,23,-86,-38,36
497,17276,-8,-3426,-4655,23,-86,-38,33
498,17270,28,-3344,-4652,23,-86,-37,34
499,17258,-8,-3434,-4659,23,-86,-36,33
500,17258,18,-3330,-4655,23,-88,-38,33
501,17256,-6,-3376,-4654,23,-87,-38,35
502,17244,50,-3460,-4656,23,-88,-39,34
503,17256,28,-3428,-4660,23,-87,-40,34
504,17238,12,-3480,-4667,23,-87,-38,33
505,17322,16,-3372,-4654,23,-87,-38,35
506,17278,12,-3398,-4661,23,-86,-39,34
507,17298,-36,-3462,-4664,23,-88,-40,36
508,17254,-8,-3394,-4660,23,-88,-39,36
509,17240,-18,-3458,-4663,23,-86,-37,34
510,17254,0,-3388,-4667,23,-87,-37,35
511,17314,42,-3378,-4656,23,-87,-39,34
512,17310,46,-3390,-4653,23,-89,-39,37
513,17294,-4,-3380,-4654,23,-88,-37,33
514,17260,42,-3432,-4651,23,-86,-38,33
515,17296,8,-3328,-4658,23,-88,-41,36
516,17308,-12,-3390,-4659,23,-85,-41,33
517,17302,30,-3472,-4662,23,-90,-38,35
518,17260,36,-3500,-4662,23,-88,-40,35
519,17276,28,-3502,-4659,23,-89,-36,35
520,17266,-12,-3416,-4660,23,-85,-36,34
521,17290,24,-3376,-4654,23,-86,-39,33
522,17272,-36,-3414,-4663,23,-88,-38,34
523,17302,-6,-3344,-4662,23,-88,-39,34
524,17318,8,-3392,-4657,23,-88,-38,35
525,17222,28,-3456,-4656,23,-87,-38,34
526,17236,22,-3414,-4665,23,-88,-39,35
527,17242,36,-3414,-4663,23,-87,-36,36
528,17290,-6,-3436,-4653,23,-85,-36,33
529,17274,22,-3410,-4650,23,-86,-37,35
530,17276,8,-3408,-4657,23,-87,-39,36
531,17312,48,-3454,-4663,23,-85,-38,33
532,17288,4,-3434,-4660,23,-87,-39,37
533,17286,16,-3422,-4665,23,-89,-37,35
534,17232,14,-3456,-4665,23,-88,-37,36
535,17294,-12,-3394,-4657,23,-87,-35,33
536,17332,-50,-3426,-4656,23,-87,-37,34
537,17302,-8,-3402,-4657,23,-88,-38,34
538,17278,30,-3408,-4665,23,-86,-38,35
539,17250,16,-3414,-4654,23,-85,-39,34
540,17266,44,-3382,-4657,23,-87,-40,33
541,17284,-10,-3394,-4669,23,-86,-37,31
542,17292,-10,-3410,-4669,23,-86,-36,32
543,17264,-2,-3386,-4661,23,-87,-38,34
544,17288,-2,-3362,-4651,23,-86,-39,33
545,17284,6,-3426,-4657,23,-89,-37,35
546,17264,52,-3402,-4656,23,-85,-39,33
547,17268,6,-3458,-4658,23,-88,-40,32
548,17246,2,-3414,-4663,23,-89,-37,33
549,17296,18,-3408,-4660,23,-88,-39,36
550,17292,2,-3452,-4657,23,-86,-39,37
551,17292,42,-3400,-4658,23,-88,-40,37
552,17306,-22,-3422,-4659,23,-88,-38,33
553,17264,6,-3412,-4660,23,-87,-40,36
554,17300,4,-3452,-4663,23,-85,-36,35
555,17264,8,-3458,-4657,23,-87,-39,34
556,17278,-12,-3404,-4663,23,-86,-35,35
557,17290,-28,-3400,-4661,23,-88,-40,37
558,17234,-8,-3392,-4652,23,-88,-39,35
559,17266,14,-3442,-4659,23,-86,-38,34
560,17262,38,-3420,-4660,23,-87,-36,35
561,17270,-12,-3392,-4652,23,-86,-37,37
562,17294,-20,-3378,-4651,23,-87,-37,34
563,17246,24,-3502,-4657,23,-88,-39,34
564,17246,40,-3384,-4662,23,-88,-38,34
565,17278,10,-3410,-4659,23,-88,-37,35
566,17286,16,-3418,-4657,23,-89,-36,35
567,17280,-6,-3390,-4655,23,-88,-37,34
568,17248,-12,-3414,-4662,23,-88,-37,35
569,17262,-6,-3460,-4660,23,-84,-39,37
570,17282,-4,-3444,-4658,23,-88,-37,35
571,17308,26,-3418,-4659,23,-87,-35,35
572,17334,-6,-3478,-4656,23,-87,-42,37
573,17258,6,-3414,-4660,23,-86,-39,35
574,17264,6,-3416,-4658,23,-87,-39,34
575,17304,2,-3366,-4662,23,-88,-37,35
576,17292,36,-3426,-4660,23,-86,-42,33
577,17272,6,-3360,-4663,23,-88,-35,36
578,17298,28,-3354,-4655,23,-85,-38,35
579,17250,42,-3396,-4654,23,-88,-36,35
580,17312,36,-3404,-4648,23,-88,-40,37
581,17258,18,-3402,-4661,23,-87,-39,35
582,17238,10,-3438,-4657,23,-86,-38,34
583,17266,-6,-3390,-4658,23,-86,-41,32
584,17314,-12,-3414,-4670,23,-85,-40,35
585,17290,-44,-3356,-4656,23,-86,-37,34
586,17266,-36,-3384,-4656,23,-87,-36,34
587,17290,10,-3418,-4658,23,-87,-39,34
588,17268,16,-3432,-4654,23,-85,-39,32
589,17274,-28,-3372,-4656,23,-87,-37,33
590,17276,6,-3430,-4654,23,-89,-37,34
591,17254,-10,-3376,-4654,23,-84,-38,33
592,17244,-24,-3404,-4653,23,-87,-38,36
593,17312,2,-3440,-4655,23,-88,-35,36
594,17308,24,-3490,-4662,23,-84,-39,36
595,17278,-10,-3386,-4659,23,-88,-40,34
596,17228,-2,-3474,-4654,23,-87,-35,34
597,17260,-20,-3416,-4659,23,-89,-39,34
598,17296,2,-3328,-4655,23,-89,-38,35
599,17302,-6,-3374,-4652,23,-85,-38,36
600,17290,30,-3436,-4655,23,-86,-36,37
601,17274,42,-3410,-4666,23,-85,-36,33
602,17296,-18,-3394,-4655,23,-85,-39,34
603,17276,-26,-3484,-4651,23,-89,-39,34
604,17298,10,-3434,-4666,23,-89,-38,35
605,17270,42,-3434,-4652,23,-87,-35,33
606,17306,20,-3412,-4658,23,-88,-35,36
607,17278,20,-3420,-4649,23,-88,-41,35
608,17282,20,-3368,-4656,23,-85,-39,34
609,17266,32,-3408,-4655,23,-88,-34,35
610,17280,0,-3380,-4666,23,-86,-37,37
611,17310,4,-3450,-4649,23,-89,-36,36
612,17276,16,-3420,-4659,23,-85,-38,37
613,17310,-14,-3392,-4656,23,-87,-36,35
614,17244,16,-3332,-4650,23,-87,-36,34
615,17260,22,-3368,-4658,23,-86,-37,34
616,17296,-34,-3376,-4653,23,-85,-37,35
617,17270,-20,-3450,-4658,23,-86,-38,33
618,17266,-30,-3356,-4658,23,-87,-42,34
619,17264,32,-3440,-4655,23,-88,-38,35
620,17250,-56,-3472,-4655,23,-88,-41,33
621,17256,-38,-3398,-4660,23,-88,-41,35
622,17278,-10,-3432,-4650,23,-88,-38,33
623,17302,-4,-3430,-4658,23,-88,-39,34
624,17242,-30,-3482,-4655,23,-88,-38,33
625,17264,30,-3440,-4655,23,-88,-38,32
626,17238,26,-3388,-4660,23,-88,-40,34
627,17330,10,-3378,-4655,23,-87,-36,37
628,17290,-12,-3398,-4662,23,-86,-38,34
629,17226,24,-3380,-4654,23,-87,-39,37
630,17282,-44,-3454,-4655,23,-88,-39,35
631,17248,-12,-3392,-4662,23,-88,-37,36
632,17290,-16,-3438,-4660,23,-85,-35,33
633,17282,2,-3456,-4648,23,-88,-39,38
634,17274,18,-3380,-4662,23,-86,-39,35
635,17278,12,-3364,-4658,23,-86,-39,32
636,17340,20,-3412,-4655,23,-88,-38,34
637,17250,-36,-3432,-4665,23,-88,-39,33
638,17262,-8,-3438,-4657,23,-84,-40,34
639,17232,-6,-3424,-4653,23,-86,-38,35
640,17238,4,-3422,-4658,23,-87,-38,32
641,17274,-38,-3396,-4660,23,-89,-39,34
642,17302,-8,-3492,-4658,23,-86,-41,35
643,17284,24,-3396,-4661,23,-88,-40,33
644,17280,4,-3412,-4651,23,-86,-38,35
645,17296,-28,-3354,-4653,23,-89,-39,33
646,17256,-28,-3438,-4658,23,-87,-36,34
647,17276,-30,-3370,-4655,23,-87,-37,35
648,17260,32,-3384,-4666,23,-85,-37,34
649,17222,-18,-3408,-4657,23,-86,-38,34
650,17296,-20,-3382,-4655,23,-85,-38,35
651,17264,34,-3338,-4647,23,-87,-39,37
652,17252,-34,-3386,-4663,23,-88,-37,34
653,17292,28,-3404,-4654,23,-88,-39,33
654,17284,34,-3380,-4664,23,-87,-35,35
655,17296,16,-3422,-4665,23,-86,-37,36
656,17270,26,-3446,-4660,23,-88,-38,36
657,17260,-2,-3472,-4653,23,-86,-37,35
658,17274,2,-3376,-4658,23,-85,-37,34
659,17282,-10,-3374,-4652,23,-85,-39,34
660,17210,14,-3456,-4657,23,-86,-39,37
661,17288,-2,-3424,-4664,23,-87,-39,34
662,17282,38,-3378,-4660,23,-86,-37,35
663,17266,-8,-3412,-4656,23,-85,-37,36
664,17278,8,-3388,-4660,23,-86,-38,35
665,17292,-14,-3420,-4659,23,-86,-36,34
666,17308,0,-3466,-4663,23,-86,-40,33
667,17258,-18,-3406,-4668,23,-85,-37,34
668,17266,-54,-3412,-4665,23,-85,-42,35
669,17306,-54,-3422,-4656,23,-85,-36,33
670,17248,-12,-3376,-4653,23,-88,-38,33
671,17246,-32,-3376,-4654,23,-84,-40,35
672,17236,26,-3432,-4663,23,-86,-39,33
673,17274,4,-3438,-4656,23,-91,-40,33
674,17250,-2,-3414,-4660,23,-88,-38,32
675,17224,-22,-3382,-4657,23,-87,-37,36
676,17248,8,-3404,-4656,23,-85,-41,34
677,17278,24,-3446,-4650,23,-88,-38,34
678,17296,-18,-3410,-4654,23,-89,-40,34
679,17266,-10,-3456,-4659,23,-87,-39,33
680,17270,-20,-3464,-4653,23,-89,-37,33
681,17268,0,-3452,-4658,23,-87,-39,35
682,17244,-18,-3388,-4658,23,-88,-37,35
683,17218,6,-3406,-4657,23,-86,-38,37
684,17294,6,-3436,-4653,23,-85,-36,36
685,17296,10,-3472,-4646,23,-86,-36,34
686,17286,10,-3412,-4662,23,-85,-36,34
687,17258,36,-3482,-4656,23,-87,-36,32
688,17206,42,-3406,-4659,23,-88,-36,33
689,17230,22,-3332,-4662,23,-89,-39,33
690,17274,-48,-3382,-4658,23,-88,-39,36
691,17320,-18,-3406,-4654,23,-88,-38,34
692,17272,-34,-3366,-4656,23,-90,-37,34
693,17336,-32,-3414,-4661,23,-90,-40,35
694,17282,14,-3428,-4656,23,-87,-37,34
695,17288,40,-3430,-4660,23,-82,-41,35
696,17256,10,-3398,-4665,23,-87,-37,31
697,17308,-4,-3422,-4660,23,-88,-40,33
698,17248,-12,-3388,-4653,23,-88,-38,36
699,17252,20,-3420,-4656,23,-85,-38,35
700,17270,34,-3448,-4663,23,-88,-39,35
701,17294,-20,-3386,-4655,23,-85,-37,35
702,17276,40,-3448,-4655,23,-88,-37,34
703,17240,-18,-3400,-4654,23,-88,-36,35
704,17276,40,-3436,-4650,23,-88,-39,36
705,17288,16,-3404,-4657,23,-87,-38,33
706,17280,24,-3450,-4652,23,-89,-40,35
707,17296,-2,-3418,-4646,23,-89,-36,35
708,17294,42,-3430,-4661,23,-88,-38,35
709,17286,6,-3350,-4668,23,-86,-40,33
710,17252,8,-3450,-4662,23,-84,-36,34
711,17282,12,-3376,-4651,23,-87,-38,35
712,17270,18,-3342,-4651,23,-88,-40,34
713,17282,10,-3324,-4649,23,-88,-38,34
714,17274,-20,-3440,-4658,23,-89,-38,32
715,17252,-8,-3464,-4662,23,-89,-41,32
716,17250,-22,-3444,-4652,23,-88,-38,35
717,17282,-12,-3484,-4657,23,-87,-40,34
718,17250,54,-3394,-4654,23,-86,-41,37
719,17230,46,-3418,-4654,23,-89,-40,34
720,17272,22,-3442,-4655,23,-86,-38,35
721,17266,14,-3396,-4663,23,-87,-40,35
722,17284,2,-3368,-4655,23,-87,-40,35
723,17268,0,-3438,-4657,23,-87,-38,36
724,17288,10,-3404,-4650,23,-85,-36,38
725,17242,-56,-3390,-4653,23,-86,-37,35
726,17244,16,-3454,-4657,23,-88,-38,36
727,17246,-30,-3444,-4662,23,-88,-35,34
728,17282,-16,-3454,-4660,23,-88,-37,34
729,17282,-6,-3360,-4654,23,-88,-40,35
730,17244,36,-3426,-4659,23,-85,-37,35
731,17264,18,-3384,-4659,23,-84,-36,36
732,17218,-4,-3366,-4654,23,-87,-40,35
733,17260,40,-3398,-4659,23,-86,-38,35
734,17300,-10,-3442,-4665,23,-85,-41,35
735,17256,18,-3408,-4647,23,-90,-42,35
736,17298,-16,-3382,-4654,23,-88,-40,34
737,17270,-22,-3418,-4653,23,-88,-36,36
738,17290,14,-3414,-4658,23,-86,-37,32
739,17302,-12,-3440,-4657,23,-87,-40,36
740,17232,4,-3442,-4650,23,-87,-37,33
741,17250,-12,-3444,-4655,23,-88,-39,32
742,17264,-10,-3464,-4657,23,-85,-39,36
743,17314,48,-3458,-4657,23,-88,-39,37
744,17274,-2,-3416,-4655,23,-87,-38,36
745,17282,-26,-3406,-4647,23,-86,-39,34
746,17294,8,-3358,-4652,23,-86,-39,34
747,17260,4,-3376,-4657,23,-87,-39,32
748,17286,0,-3434,-4658,23,-88,-38,34
749,17288,-8,-3450,-4657,23,-90,-36,34
750,17228,2,-3424,-4655,23,-89,-38,36
751,17286,62,-3422,-4656,23,-85,-36,33
752,17254,-4,-3416,-4656,23,-88,-37,34
753,17234,8,-3402,-4658,23,-88,-38,36
754,17282,-16,-3402,-4658,23,-88,-38,35
755,17322,14,-3402,-4653,23,-87,-37,35
756,17254,-12,-3408,-4653,23,-89,-38,35
757,17268,8,-3434,-4663,23,-89,-36,35
758,17268,-34,-3468,-4662,23,-88,-37,33
759,17302,10,-3452,-4662,23,-84,-39,36
760,17296,-4,-3474,-4656,23,-88,-40,34
761,17280,28,-3382,-4653,23,-88,-40,35
762,17254,28,-3392,-4655,23,-87,-38,33
763,17312,-6,-3430,-4655,23,-88,-37,32
764,17302,2,-3410,-4651,23,-89,-39,32
765,17262,8,-3432,-4652,23,-89,-39,36
766,17306,42,-3416,-4647,23,-83,-40,34
767,17276,-8,-3384,-4651,23,-87,-39,34
768,17270,28,-3436,-4651,23,-86,-39,35
769,17294,-8,-3416,-4663,23,-87,-39,36
770,17290,16,-3386,-4652,23,-85,-35,34
771,17306,22,-3460,-4649,23,-86,-36,32
772,17248,0,-3404,-4660,23,-87,-37,35
773,17284,28,-3400,-4658,23,-89,-37,35
774,17300,6,-3420,-4654,23,-86,-39,35
775,17308,28,-3430,-4658,23,-86,-38,36
776,17270,24,-3386,-4652,23,-88,-40,35
777,17256,-12,-3394,-4653,23,-89,-36,33
778,17272,-30,-3410,-4654,23,-87,-37,34
779,17288,-8,-3410,-4661,23,-90,-40,33
780,17252,36,-3390,-4661,23,-90,-38,32
781,17280,-16,-3466,-4658,23,-86,-39,33
782,17248,-6,-3434,-4658,23,-88,-40,35
783,17224,0,-3398,-4656,23,-87,-37,35
784,17248,0,-3456,-4658,23,-89,-38,34
785,17220,0,-3392,-4657,23,-88,-36,34
786,17266,12,-3384,-4656,23,-88,-38,32
787,17244,20,-3422,-4650,23,-90,-38,33
788,17306,-2,-3400,-4663,23,-86,-38,35
789,17290,-30,-3416,-4650,23,-88,-38,34
790,17300,4,-3396,-4657,23,-87,-36,34
791,17252,8,-3466,-4652,23,-88,-40,33
792,17278,36,-3372,-4651,23,-89,-40,35
793,17250,-40,-3396,-4652,23,-86,-37,36
794,17324,-12,-3374,-4653,23,-86,-36,35
795,17354,12,-3442,-4662,23,-89,-38,35
796,17268,-18,-3416,-4659,23,-89,-38,36
797,17246,-10,-3406,-4652,23,-88,-39,34
798,17256,-8,-3376,-4657,23,-86,-38,37
799,17236,48,-3442,-4652,23,-87,-37,35
800,17266,-18,-3448,-4650,23,-87,-37,34
801,17260,6,-3436,-4658,23,-86,-40,34
802,17250,-8,-3366,-4647,23,-85,-38,32
803,17230,28,-3400,-4649,23,-87,-38,35
804,17294,30,-3412,-4660,23,-88,-38,33
805,17288,26,-3376,-4650,23,-87,-41,34
806,17266,24,-3414,-4654,23,-88,-40,35
807,17260,-28,-3414,-4657,23,-88,-40,34
808,17282,20,-3410,-4654,23,-86,-37,34
809,17314,2,-3382,-4652,23,-89,-39,35
810,17268,28,-3392,-4650,23,-91,-39,33
811,17284,10,-3390,-4654,23,-87,-38,34
812,17268,-34,-3482,-4654,23,-86,-39,33
813,17294,-2,-3470,-4648,23,-85,-39,35
814,17256,18,-3420,-4652,23,-88,-40,36
815,17272,6,-3488,-4651,23,-88,-41,37
816,17286,-46,-3472,-4657,23,-87,-38,36
817,17232,26,-3422,-4658,23,-86,-37,35
818,17274,-16,-3432,-4667,23,-87,-36,37
819,17286,26,-3496,-4654,23,-88,-34,36
820,17290,-36,-3350,-4654,23,-87,-39,36
821,17290,-12,-3408,-4659,23,-86,-37,35
822,17276,-40,-3404,-4658,23,-86,-37,37
823,17308,2,-3456,-4648,23,-88,-36,34
824,17250,26,-3350,-4656,23,-87,-39,33
825,17242,6,-3386,-4657,23,-87,-37,33
826,17276,0,-3408,-4662,23,-89,-39,34
827,17296,8,-3372,-4657,23,-87,-39,36
828,17288,-30,-3366,-4655,23,-87,-39,34
829,17294,-50,-3458,-4663,23,-87,-39,35
830,17224,-24,-3478,-4663,23,-85,-40,34
831,17278,4,-3444,-4657,23,-88,-37,36
832,17270,-6,-3422,-4662,23,-86,-38,36
833,17254,-8,-3462,-4654,23,-89,-37,35
834,17290,34,-3398,-4660,23,-89,-38,34
835,17296,10,-3366,-4655,23,-87,-36,34
836,17256,-20,-3446,-4649,23,-88,-36,37
837,17232,18,-3420,-4651,23,-85,-35,35
838,17296,-28,-3416,-4659,23,-88,-38,36
839,17216,38,-3458,-4659,23,-88,-40,39
840,17250,14,-3430,-4652,23,-88,-36,37
841,17264,2,-3408,-4647,23,-86,-38,37
842,17284,8,-3426,-4659,23,-88,-39,36
843,17270,-2,-3376,-4667,23,-87,-40,35
844,17276,18,-3332,-4658,23,-88,-38,36
845,17278,42,-3450,-4654,23,-89,-34,36
846,17286,-6,-3448,-4664,23,-89,-38,35
847,17308,26,-3380,-4661,23,-87,-37,35
848,17290,-4,-3408,-4651,23,-88,-37,35
849,17284,4,-3402,-4649,23,-86,-34,35
850,17296,-22,-3396,-4652,23,-87,-38,35
851,17264,-18,-3362,-4659,23,-86,-38,33
852,17262,14,-3456,-4652,23,-89,-37,35
853,17274,-12,-3364,-4655,23,-88,-37,33
854,17254,-42,-3448,-4656,23,-90,-41,37
855,17268,-18,-3380,-4657,23,-89,-41,37
856,17274,24,-3396,-4667,23,-89,-40,39
857,17266,-18,-3428,-4655,23,-90,-37,33
858,17278,2,-3456,-4657,23,-88,-39,34
859,17288,-6,-3408,-4655,23,-87,-38,34
860,17274,-10,-3442,-4661,23,-87,-37,37
861,17294,-40,-3390,-4655,23,-87,-35,34
862,17322,4,-3412,-4661,23,-86,-36,32
863,17330,24,-3390,-4661,23,-87,-38,34
864,17248,10,-3448,-4657,23,-85,-38,34
865,17238,-4,-3392,-4656,23,-88,-39,34
866,17290,-6,-3476,-4662,23,-86,-39,34
867,17234,48,-3464,-4657,23,-86,-37,34
868,17274,40,-3466,-4657,23,-87,-40,31
869,17238,10,-3394,-4658,23,-87,-38,32
870,17288,40,-3440,-4660,23,-89,-40,34
871,17268,4,-3468,-4651,23,-88,-37,37
872,17278,56,-3412,-4651,23,-90,-36,36
873,17282,14,-3412,-4651,23,-83,-34,34
874,17264,16,-3396,-4649,23,-86,-37,36
875,17272,40,-3462,-4656,23,-86,-35,36
876,17264,-24,-3462,-4648,23,-87,-39,34
877,17264,44,-3438,-4651,23,-89,-37,37
878,17222,24,-3386,-4648,23,-89,-38,32
879,17272,62,-3370,-4656,23,-85,-39,33
880,17314,6,-3462,-4663,23,-85,-40,33
881,17256,6,-3324,-4652,23,-86,-38,36
882,17304,22,-3390,-4661,23,-88,-35,34
883,17260,2,-3394,-4654,23,-87,-39,33
884,17274,-4,-3456,-4652,23,-87,-40,34
885,17322,24,-3430,-4658,23,-87,-38,34
886,17264,-42,-3442,-4660,23,-88,-37,33
887,17270,-8,-3502,-4662,23,-87,-36,33
888,17290,72,-3370,-4658,23,-86,-36,34
889,17236,20,-3432,-4661,23,-86,-37,35
890,17238,-20,-3426,-4660,23,-91,-40,35
891,17246,36,-3434,-4654,23,-88,-39,33
892,17282,28,-3358,-4654,23,-89,-42,34
893,17278,-14,-3350,-4655,23,-87,-37,36
894,17278,52,-3376,-4660,23,-87,-39,34
895,17282,24,-3492,-4653,23,-89,-39,33
896,17270,14,-3408,-4654,23,-89,-37,33
897,17270,10,-3426,-4657,23,-87,-38,34
898,17294,10,-3406,-4653,23,-88,-40,34
899,17280,12,-3362,-4655,23,-87,-37,32
900,17254,-18,-3328,-4653,23,-87,-36,34
901,17304,-10,-3374,-4655,23,-87,-39,32
902,17264,10,-3408,-4654,23,-88,-39,36
903,17246,-8,-3406,-4654,23,-88,-37,34
904,17234,0,-3470,-4656,23,-88,-39,34
905,17278,-30,-3384,-4659,23,-89,-38,35
906,17252,0,-3386,-4660,23,-89,-38,36
907,17244,-4,-3450,-4657,23,-88,-36,34
908,17276,-12,-3498,-4663,23,-89,-39,35
909,17270,-28,-3420,-4660,23,-88,-40,34
910,17258,34,-3422,-4658,23,-89,-40,34
911,17228,34,-3374,-4649,23,-88,-39,35
912,17270,-16,-3410,-4657,23,-87,-39,33
913,17272,16,-3386,-4662,23,-87,-39,34
914,17296,0,-3420,-4651,23,-89,-40,34
915,17304,12,-3418,-4663,23,-90,-39,35
916,17262,56,-3384,-4656,23,-83,-38,35
917,17308,-8,-3434,-4652,23,-87,-40,34
918,17306,46,-3456,-4665,23,-86,-39,36
919,17260,-24,-3366,-4662,23,-88,-38,34
920,17302,-38,-3444,-4662,23,-88,-38,35
921,17316,-32,-3412,-4657,23,-85,-37,35
922,17254,-8,-3414,-4665,23,-87,-40,34
923,17284,-28,-3376,-4664,23,-89,-38,35
924,17252,26,-3408,-4652,23,-87,-38,34
925,17276,0,-3462,-4661,23,-89,-38,36
926,17322,26,-3484,-4652,23,-86,-35,33
927,17254,20,-3444,-4655,23,-86,-37,34
928,17272,42,-3402,-4657,23,-88,-38,36
929,17324,8,-3388,-4658,23,-87,-38,35
930,17274,2,-3394,-4663,23,-85,-34,34
931,17256,-8,-3372,-4656,23,-86,-40,35
932,17270,2,-3468,-4655,23,-87,-39,35
933,17262,16,-3370,-4655,23,-89,-38,34
934,17236,-14,-3436,-4658,23,-87,-38,33
935,17282,38,-3440,-4662,23,-84,-35,32
936,17260,-58,-3424,-4665,23,-84,-39,34
937,17274,22,-3356,-4660,23,-85,-37,34
938,17286,-28,-3478,-4665,23,-87,-39,35
939,17234,-8,-3378,-4665,23,-91,-40,33
940,17296,22,-3446,-4650,23,-85,-39,34
941,17250,20,-3374,-4652,23,-86,-39,35
942,17260,16,-3436,-4657,23,-89,-37,33
943,17278,-4,-3468,-4658,23,-86,-39,35
944,17286,22,-3482,-4654,23,-85,-41,36
945,17252,54,-3416,-4655,23,-86,-39,36
946,17284,-12,-3392,-4652,23,-86,-37,35
947,17272,40,-3368,-4662,23,-89,-39,35
948,17304,10,-3410,-4650,23,-85,-39,34
949,17250,56,-3430,-4657,23,-84,-40,35
950,17296,30,-3394,-4658,23,-86,-39,33
951,17294,-12,-3398,-4663,23,-87,-38,34
952,17300,-34,-3464,-4655,23,-88,-37,34
953,17260,2,-3338,-4660,23,-88,-40,34
954,17302,-6,-3524,-4660,23,-89,-40,36
955,17212,10,-3368,-4662,23,-88,-38,36
956,17326,-34,-3494,-4662,23,-88,-37,33
957,17300,-24,-3410,-4656,23,-89,-39,38
958,17264,-4,-3462,-4659,23,-88,-37,35
959,17278,-20,-3420,-4658,23,-88,-39,34
960,17290,42,-3448,-4656,23,-86,-37,37
961,17302,70,-3420,-4665,23,-86,-38,34
962,17262,-48,-3412,-4661,23,-86,-39,36
963,17270,-22,-3374,-4652,23,-87,-39,33
964,17274,0,-3350,-4656,23,-89,-34,36
965,17288,-16,-3376,-4666,23,-89,-39,34
966,17294,16,-3454,-4664,23,-87,-35,33
967,17236,-58,-3454,-4654,23,-88,-40,34
968,17240,2,-3416,-4651,23,-85,-38,34
969,17236,-14,-3342,-4653,23,-88,-39,34
970,17278,-4,-3386,-4652,23,-87,-39,36
971,17236,-44,-3408,-4655,23,-85,-38,37
972,17292,-28,-3486,-4657,23,-87,-37,34
973,17284,-18,-3432,-4654,23,-87,-38,33
974,17322,-8,-3424,-4657,23,-85,-40,33
975,17274,4,-3408,-4652,23,-87,-40,32
976,17246,18,-3452,-4656,23,-89,-37,34
977,17264,-6,-3404,-4657,23,-86,-39,31
978,17262,18,-3420,-4660,23,-86,-37,35
979,17324,2,-3408,-4652,23,-88,-37,36
980,17314,34,-3430,-4657,23,-90,-40,34
981,17278,-22,-3424,-4659,23,-87,-40,33
982,17242,-20,-3440,-4659,23,-88,-38,34
983,17312,-14,-3446,-4659,23,-87,-39,35
984,17282,24,-3372,-4652,23,-87,-39,35
985,17314,-6,-3356,-4661,23,-91,-39,35
986,17272,28,-3426,-4655,23,-89,-37,34
987,17198,48,-3410,-4651,23,-85,-39,34
988,17274,-22,-3440,-4667,23,-85,-38,31
989,17252,4,-3398,-4659,23,-88,-37,32
990,17230,8,-3444,-4655,23,-86,-40,33
991,17246,16,-3390,-4650,23,-85,-39,34
992,17302,-36,-3410,-4657,23,-86,-41,35
993,17268,36,-3386,-4657,23,-85,-36,33
994,17242,-18,-3420,-4660,23,-86,-35,34
995,17260,-46,-3462,-4656,23,-87,-38,33
996,17232,48,-3438,-4659,23,-87,-37,34
997,17248,16,-3392,-4657,23,-86,-36,34
998,17266,12,-3470,-4652,23,-88,-39,35
